Time(s) acc_x(g) acc_y(g) acc_z(g) gyr_x(°/s) gyr_y(°/s) gyr_z(°/s) mag_x(G) mag_y(G) mag_z(G) SVM(g) yaw(°) pitch(°) roll(°)
0.000;-0.30;0.19;0.82;0.90;-0.56;-2.23;157.28;-18.02;-276.00;0.89;-161.90;-23.25;20.19 
0.030;-0.32;0.20;0.82;0.49;0.90;-1.53;155.30;-19.92;-277.00;0.90;-161.83;-23.18;20.23 
0.060;-0.28;0.20;0.81;-1.11;3.48;-1.18;154.31;-19.92;-274.00;0.88;-161.80;-23.13;20.26 
0.091;-0.34;0.16;0.79;0.42;2.99;-0.07;154.31;-18.02;-271.00;0.87;-161.79;-23.14;20.25 
0.120;-0.33;0.18;0.78;-0.28;2.57;-0.56;155.30;-19.92;-272.00;0.87;-161.76;-23.12;20.28 
0.149;-0.33;0.20;0.78;-0.42;7.72;-0.35;156.29;-18.97;-273.00;0.87;-161.73;-23.18;20.30 
0.179;-0.37;0.20;0.89;-0.42;4.94;0.77;154.31;-16.12;-272.00;0.98;-161.71;-23.29;20.30 
0.209;-0.36;0.18;0.82;0.42;-3.41;1.39;151.34;-17.07;-270.00;0.91;-161.75;-23.21;20.32 
0.239;-0.31;0.20;0.81;0.70;-3.62;1.11;156.29;-18.02;-275.00;0.89;-161.77;-23.05;20.37 
0.269;-0.30;0.18;0.86;0.49;-2.43;0.21;155.30;-19.92;-269.00;0.93;-161.79;-22.88;20.41 
0.300;-0.34;0.21;0.78;0.07;-3.55;1.11;155.30;-18.97;-270.00;0.88;-161.80;-22.71;20.46 
0.330;-0.30;0.25;0.77;0.21;-1.04;0.90;156.29;-19.92;-273.00;0.86;-161.82;-22.56;20.52 
0.360;-0.31;0.22;0.82;-0.70;1.88;0.35;157.28;-22.76;-272.00;0.90;-161.85;-22.46;20.56 
0.391;-0.32;0.22;0.83;-0.77;2.23;0.77;155.30;-20.86;-274.00;0.92;-161.86;-22.44;20.58 
0.421;-0.34;0.20;0.81;-0.77;2.78;0.00;157.28;-16.12;-274.00;0.90;-161.87;-22.40;20.60 
0.450;-0.34;0.22;0.80;-1.32;3.27;-0.35;158.27;-18.02;-271.00;0.90;-161.85;-22.43;20.61 
0.479;-0.34;0.24;0.82;-1.60;1.81;0.07;154.31;-17.07;-271.00;0.92;-161.83;-22.45;20.60 
0.508;-0.35;0.18;0.83;-0.70;1.18;1.32;152.33;-18.97;-273.00;0.92;-161.84;-22.41;20.60 
0.537;-0.34;0.19;0.82;-0.90;-1.67;1.95;151.34;-15.17;-271.00;0.91;-161.88;-22.33;20.61 
0.567;-0.33;0.18;0.79;-1.04;-0.97;1.60;154.31;-17.07;-272.00;0.87;-161.95;-22.19;20.63 
0.598;-0.33;0.19;0.83;-0.35;0.56;0.90;156.29;-19.92;-273.00;0.91;-161.99;-22.08;20.64 
0.628;-0.32;0.20;0.82;-0.77;0.77;0.14;156.29;-20.86;-269.00;0.90;-161.99;-22.02;20.65 
0.658;-0.33;0.21;0.82;-0.42;1.81;0.07;154.31;-18.97;-272.00;0.91;-161.98;-21.97;20.64 
0.689;-0.34;0.20;0.81;-0.56;1.32;0.00;158.27;-20.86;-273.00;0.90;-161.96;-21.97;20.66 
0.719;-0.35;0.21;0.84;-0.42;0.90;-0.49;155.30;-16.12;-273.00;0.93;-161.95;-21.92;20.65 
0.749;-0.34;0.21;0.81;-0.35;1.39;-0.21;153.32;-18.97;-268.00;0.90;-161.92;-21.89;20.67 
0.779;-0.34;0.20;0.84;-0.35;1.32;-0.21;154.31;-13.28;-271.00;0.93;-161.90;-21.89;20.69 
0.810;-0.34;0.22;0.80;-0.56;0.42;-0.49;158.27;-17.07;-270.00;0.90;-161.87;-21.86;20.71 
0.839;-0.32;0.19;0.83;-0.56;1.74;-0.14;159.26;-14.23;-272.00;0.91;-161.84;-21.85;20.73 
0.868;-0.33;0.22;0.79;-0.63;1.74;0.49;156.29;-18.97;-274.00;0.88;-161.82;-21.84;20.74 
0.898;-0.34;0.21;0.81;-0.14;1.04;0.70;156.29;-15.17;-270.00;0.90;-161.82;-21.82;20.74 
0.928;-0.34;0.19;0.81;-0.07;0.07;0.35;158.27;-16.12;-271.00;0.90;-161.81;-21.79;20.76 
0.958;-0.34;0.22;0.83;-0.42;1.60;-0.07;153.32;-16.12;-270.00;0.92;-161.80;-21.75;20.75 
0.988;-0.34;0.21;0.82;-0.35;1.60;0.07;155.30;-15.17;-270.00;0.91;-161.78;-21.75;20.76 
1.018;-0.33;0.21;0.82;0.07;0.07;-0.21;156.29;-18.02;-269.00;0.91;-161.75;-21.72;20.76 
1.048;-0.34;0.20;0.81;0.00;0.49;-1.25;154.31;-15.17;-271.00;0.90;-161.71;-21.67;20.76 
1.078;-0.34;0.20;0.83;-0.14;0.63;-1.53;154.31;-16.12;-270.00;0.92;-161.65;-21.66;20.77 
1.109;-0.34;0.19;0.78;0.56;0.00;-0.70;154.31;-18.02;-267.00;0.87;-161.60;-21.63;20.79 
1.139;-0.33;0.22;0.83;0.07;-1.25;-1.25;154.31;-17.07;-269.00;0.92;-161.56;-21.55;20.81 
1.169;-0.34;0.22;0.80;-0.70;-2.09;-1.67;156.29;-19.92;-272.00;0.90;-161.51;-21.47;20.81 
1.199;-0.35;0.22;0.80;-0.70;-1.04;-2.43;153.32;-18.02;-269.00;0.90;-161.44;-21.40;20.77 
1.228;-0.34;0.21;0.77;-0.56;-1.32;-2.16;153.32;-16.12;-272.00;0.87;-161.35;-21.35;20.72 
1.257;-0.33;0.16;0.83;0.07;-1.39;-2.50;153.32;-17.07;-271.00;0.91;-161.27;-21.30;20.68 
1.286;-0.32;0.19;0.82;0.90;0.14;-3.62;153.32;-16.12;-270.00;0.90;-161.16;-21.28;20.65 
1.315;-0.32;0.20;0.84;0.83;-0.07;-3.34;153.32;-18.02;-272.00;0.92;-161.02;-21.29;20.65 
1.345;-0.34;0.21;0.82;0.70;-0.35;-2.92;154.31;-17.07;-270.00;0.91;-160.91;-21.26;20.65 
1.375;-0.34;0.24;0.86;0.70;-0.42;-3.62;152.33;-18.02;-272.00;0.96;-160.80;-21.21;20.64 
1.405;-0.34;0.22;0.82;0.42;-0.70;-3.55;150.35;-18.97;-268.00;0.91;-160.67;-21.19;20.61 
1.435;-0.32;0.20;0.78;0.28;-2.78;-3.13;149.37;-17.07;-273.00;0.87;-160.57;-21.10;20.59 
1.465;-0.32;0.18;0.82;1.11;-1.95;-3.83;151.34;-16.12;-272.00;0.90;-160.45;-21.03;20.56 
1.496;-0.33;0.20;0.84;1.11;-3.13;-4.73;148.38;-18.97;-273.00;0.92;-160.30;-20.96;20.55 
1.526;-0.34;0.19;0.79;2.09;-3.27;-6.47;148.38;-21.81;-274.00;0.88;-160.13;-20.87;20.52 
1.556;-0.34;0.21;0.82;3.27;-3.27;-8.14;148.38;-22.76;-271.00;0.91;-159.90;-20.80;20.47 
1.586;-0.34;0.22;0.84;2.43;-4.17;-8.90;149.37;-21.81;-271.00;0.93;-159.63;-20.72;20.44 
1.616;-0.36;0.22;0.87;2.09;-3.06;-8.35;143.43;-18.97;-273.00;0.97;-159.37;-20.63;20.42 
1.646;-0.35;0.26;0.82;0.90;-2.99;-6.61;143.43;-21.81;-275.00;0.93;-159.14;-20.59;20.39 
1.676;-0.34;0.23;0.85;-2.30;-6.47;-7.03;143.43;-22.76;-275.00;0.94;-158.96;-20.49;20.30 
1.707;-0.31;0.19;0.83;-3.90;-12.03;-12.31;142.44;-20.86;-273.00;0.91;-158.72;-20.29;20.09 
1.737;-0.31;0.22;0.77;-5.91;-15.86;-16.70;136.51;-24.66;-279.00;0.86;-158.34;-19.98;19.74 
1.767;-0.30;0.31;0.76;-9.60;-12.59;-19.97;134.53;-25.61;-281.00;0.87;-157.89;-19.71;19.34 
1.798;-0.27;0.31;0.77;-11.13;-13.50;-19.06;127.60;-30.35;-283.00;0.87;-157.40;-19.47;18.93 
1.828;-0.30;0.36;0.76;-18.16;-15.65;-18.64;126.61;-30.35;-283.00;0.89;-157.01;-19.14;18.39 
1.858;-0.26;0.34;0.80;-23.10;-15.03;-19.90;113.76;-33.19;-287.00;0.91;-156.61;-18.83;17.73 
1.887;-0.25;0.38;0.79;-28.03;-13.70;-21.01;107.82;-36.04;-287.00;0.91;-156.23;-18.52;16.94 
1.917;-0.26;0.36;0.80;-28.03;-13.22;-19.69;98.92;-36.04;-290.00;0.91;-155.89;-18.17;16.05 
1.947;-0.28;0.35;0.81;-28.31;-13.15;-17.74;90.01;-41.73;-292.00;0.93;-155.57;-17.87;15.16 
1.977;-0.23;0.42;0.74;-31.72;-19.06;-14.68;81.11;-41.73;-291.00;0.88;-155.35;-17.44;14.28 
2.008;-0.22;0.38;0.67;-35.90;-11.20;-13.63;70.23;-45.52;-290.00;0.80;-155.23;-16.95;13.34 
2.038;-0.28;0.36;0.69;-37.57;-3.48;-10.43;63.31;-45.52;-294.00;0.83;-155.15;-16.73;12.30 
2.068;-0.30;0.31;0.74;-38.26;-8.07;-4.87;55.39;-48.37;-290.00;0.86;-155.17;-16.61;11.28 
2.098;-0.26;0.40;0.67;-42.30;-12.66;3.34;51.44;-50.26;-291.00;0.82;-155.46;-16.24;10.30 
2.128;-0.28;0.42;0.59;-46.33;-9.67;9.81;41.55;-51.21;-290.00;0.78;-156.02;-15.79;9.28 
2.158;-0.29;0.33;0.50;-48.14;-5.36;13.84;34.62;-53.11;-285.00;0.67;-156.72;-15.55;8.29 
2.187;-0.22;0.14;0.41;-46.82;-10.85;10.30;31.65;-51.21;-284.00;0.49;-157.40;-15.37;7.20 
2.216;-0.16;0.00;0.20;-42.71;-17.67;2.64;25.72;-51.21;-281.00;0.26;-157.96;-15.10;5.97 
2.245;-0.06;-0.06;0.03;-45.70;-12.52;-11.20;20.77;-56.90;-277.00;0.09;-158.15;-14.88;4.30 
2.275;0.02;0.11;0.15;-55.03;13.29;-25.74;6.92;-58.80;-277.00;0.19;-158.01;-14.85;2.62 
2.306;-0.08;0.33;0.26;-61.15;20.66;-21.70;-1.98;-55.95;-266.00;0.43;-157.60;-15.30;1.30 
2.336;-0.10;0.18;0.24;-63.30;-6.12;18.37;-13.85;-54.06;-264.00;0.32;-158.05;-15.61;0.01 
2.365;0.10;-0.12;0.11;-70.19;-5.84;23.65;-22.75;-52.16;-255.00;0.19;-159.40;-14.88;-1.78 
2.394;-0.06;-0.34;0.25;-75.41;23.86;11.06;-31.65;-51.21;-248.00;0.43;-160.55;-14.70;-4.42 
2.423;-0.14;-0.10;0.50;-69.84;9.88;7.10;-40.56;-44.57;-237.00;0.53;-161.33;-15.34;-6.84 
2.452;-0.13;0.02;0.51;-67.06;-14.89;8.42;-45.50;-46.47;-235.00;0.53;-162.18;-15.31;-8.72 
2.482;-0.66;-0.18;0.31;-74.78;-5.70;1.46;-55.39;-43.63;-234.00;0.75;-162.98;-14.96;-10.71 
2.512;-1.17;-1.16;1.18;-92.31;72.83;-37.91;-60.34;-41.73;-229.00;2.03;-163.52;-15.76;-13.31 
2.542;-0.78;-3.07;2.82;-103.30;-146.02;-191.17;-101.89;-37.94;-200.00;4.24;-162.12;-18.32;-16.94 
2.572;-0.41;-0.23;0.86;-153.46;-257.74;-372.80;-176.07;-108.11;-220.00;0.98;-153.00;-6.79;-23.36 
2.603;0.86;-3.55;3.18;-217.88;109.43;-267.69;-228.50;-165.02;-215.00;4.84;-147.96;-0.01;-30.05 
2.633;-1.24;0.36;2.65;-113.18;-332.73;-354.92;-276.97;-193.47;-165.00;2.95;-143.14;3.62;-37.95 
2.662;-0.28;1.33;0.27;-168.97;-309.22;42.09;-316.54;-275.98;-140.00;1.39;-143.78;12.26;-42.55 
2.693;1.94;-2.22;-0.31;-242.02;-292.38;-170.16;-332.36;-305.38;-111.00;2.96;-146.45;20.34;-48.60 
2.723;-0.50;-0.75;-0.43;-190.96;-250.43;-115.48;-346.21;-352.80;-68.00;1.00;-144.38;28.59;-51.70 
2.753;1.86;-0.96;-1.24;-113.67;-238.75;-106.71;-347.20;-385.04;-35.00;2.43;-142.87;34.12;-51.81 
2.783;1.26;-0.60;-1.78;-26.99;-78.82;6.75;-347.20;-407.80;-2.00;2.26;-141.34;37.67;-50.92 
2.813;0.40;-0.62;-1.25;-11.41;105.53;-25.88;-348.19;-404.96;1.00;1.45;-141.29;37.82;-51.09 
2.842;0.63;-0.51;-0.47;-13.29;145.74;-38.19;-344.23;-408.75;-8.00;0.94;-140.31;38.07;-50.44 
2.872;0.52;-0.40;0.26;-23.23;121.88;-37.15;-343.24;-414.44;-7.00;0.71;-138.91;38.20;-49.66 
2.903;0.57;-0.21;0.37;-24.42;-12.38;-24.14;-344.23;-419.18;-7.00;0.71;-137.46;38.95;-48.60 
2.933;0.77;-0.44;-0.41;-19.13;-76.38;-21.22;-340.28;-425.82;3.00;0.98;-137.13;40.22;-48.09 
2.963;0.83;-0.51;-0.77;-6.47;-18.16;-13.63;-339.29;-429.61;6.00;1.24;-136.93;41.30;-47.68 
2.993;0.97;-0.83;-0.53;7.37;48.00;-23.58;-337.31;-436.25;9.00;1.38;-136.44;41.90;-47.20 
3.023;1.19;-0.73;-0.18;10.99;59.69;-38.05;-339.29;-441.00;5.00;1.41;-135.18;42.76;-46.13 
3.053;0.93;-0.45;0.03;22.89;53.63;8.14;-335.33;-443.84;-4.00;1.03;-134.12;43.25;-45.28 
3.083;0.82;-0.71;0.00;31.10;29.77;18.50;-335.33;-442.89;-6.00;1.08;-134.23;42.66;-45.49 
3.114;0.71;-0.68;-0.14;28.10;33.04;12.80;-338.30;-436.25;-19.00;0.99;-134.51;42.07;-45.76 
3.144;0.70;-0.78;-0.19;36.66;56.49;6.05;-337.31;-432.46;-29.00;1.07;-134.65;41.43;-45.93 
3.174;0.71;-0.80;-0.05;45.08;77.22;-6.26;-337.31;-430.56;-36.00;1.07;-134.34;40.87;-45.72 
3.205;0.79;-0.70;0.14;46.89;91.06;-8.56;-333.35;-429.61;-53.00;1.06;-133.60;40.24;-45.14 
3.235;0.82;-0.62;0.21;48.83;84.17;2.85;-332.36;-423.92;-65.00;1.05;-132.82;39.42;-44.47 
3.265;0.78;-0.54;0.32;45.36;81.04;3.62;-325.44;-421.08;-84.00;1.00;-132.21;38.45;-43.87 
3.295;0.79;-0.48;0.44;42.23;70.68;17.04;-330.38;-414.44;-94.00;1.02;-131.79;37.30;-43.42 
3.325;0.69;-0.62;0.35;40.21;47.37;26.09;-326.43;-405.91;-103.00;0.99;-131.94;35.98;-43.29 
3.355;0.72;-0.54;0.30;36.52;56.56;16.83;-322.47;-402.11;-114.00;0.95;-132.15;34.87;-43.22 
3.385;0.67;-0.44;0.42;35.34;71.65;26.16;-324.45;-394.52;-125.00;0.90;-132.19;33.59;-43.07 
3.416;0.61;-0.53;0.62;31.58;61.77;38.26;-320.49;-377.45;-134.00;1.02;-132.58;31.76;-43.14 
3.445;0.51;-0.59;0.58;29.84;40.42;35.69;-319.50;-366.07;-140.00;0.97;-133.34;30.04;-43.43 
3.475;0.49;-0.58;0.51;26.99;37.43;36.73;-316.54;-358.49;-145.00;0.91;-134.15;28.63;-43.70 
3.505;0.42;-0.62;0.51;24.14;41.74;34.71;-312.58;-352.80;-149.00;0.91;-134.97;27.18;-43.99 
3.535;0.36;-0.69;0.63;24.21;47.65;30.26;-310.60;-337.62;-158.00;1.00;-135.82;25.54;-44.32 
3.565;0.44;-0.78;0.66;21.22;46.26;20.10;-312.58;-331.93;-158.00;1.11;-136.42;24.10;-44.50 
3.595;0.40;-0.78;0.60;21.43;41.74;12.38;-308.62;-319.60;-163.00;1.06;-136.70;22.94;-44.50 
3.626;0.38;-0.65;0.51;16.28;45.22;13.57;-304.67;-312.96;-171.00;0.91;-136.99;21.93;-44.59 
3.655;0.30;-0.68;0.73;20.45;51.90;2.16;-301.70;-306.33;-173.00;1.04;-136.99;20.81;-44.55 
3.684;0.38;-0.66;0.56;15.23;25.32;-0.07;-301.70;-301.58;-176.00;0.95;-136.91;20.16;-44.39 
3.715;0.46;-0.38;0.58;11.20;42.64;-4.66;-296.75;-301.58;-176.00;0.83;-136.60;19.78;-44.18 
3.745;0.32;-0.50;0.77;24.56;43.76;8.83;-294.77;-296.84;-180.00;0.97;-136.13;19.08;-43.73 
3.775;0.51;-0.55;0.61;20.73;31.72;27.48;-292.80;-285.46;-184.00;0.97;-136.42;18.16;-43.53 
3.805;0.39;-0.62;0.55;29.84;57.53;23.17;-290.82;-275.03;-189.00;0.92;-136.78;17.02;-43.44 
3.835;0.34;-0.58;0.58;36.87;40.63;39.44;-287.85;-267.44;-194.00;0.89;-137.20;15.49;-43.11 
3.865;0.46;-0.70;0.47;44.17;52.17;45.84;-282.90;-255.11;-200.00;0.96;-138.01;14.02;-42.80 
3.895;0.15;-0.72;0.75;41.95;52.38;38.96;-268.07;-238.99;-205.00;1.05;-138.80;12.17;-42.38 
3.925;0.15;-0.60;0.60;41.95;27.69;39.79;-261.14;-229.51;-215.00;0.86;-139.56;10.70;-41.79 
3.955;0.06;-0.59;0.63;41.74;57.74;36.03;-254.22;-218.13;-218.00;0.87;-140.37;9.10;-41.20 
3.985;0.00;-0.54;0.79;40.70;52.17;28.52;-245.32;-207.69;-223.00;0.96;-140.78;7.25;-40.43 
4.015;0.10;-0.41;0.70;37.77;58.30;25.32;-241.36;-198.21;-226.00;0.82;-140.95;5.63;-39.53 
4.045;-0.03;-0.46;0.69;33.88;67.97;11.13;-233.45;-183.04;-228.00;0.83;-140.89;3.93;-38.69 
4.075;0.04;-0.39;0.81;28.52;67.90;3.06;-229.49;-171.66;-229.00;0.90;-140.44;2.34;-37.94 
4.105;-0.02;-0.28;0.86;28.03;66.23;-8.90;-223.55;-165.02;-227.00;0.90;-139.67;0.98;-37.23 
4.135;-0.06;-0.26;0.79;28.17;55.30;4.38;-222.56;-159.33;-220.00;0.83;-138.95;-0.33;-36.42 
4.165;-0.06;-0.40;0.83;23.86;67.48;7.17;-215.64;-148.90;-222.00;0.92;-138.50;-1.73;-35.79 
4.195;-0.18;-0.40;0.84;19.69;58.09;8.14;-210.69;-143.20;-221.00;0.95;-138.10;-3.28;-35.36 
4.226;-0.14;-0.35;0.83;18.85;61.22;13.15;-206.74;-133.72;-217.00;0.91;-137.82;-4.78;-35.00 
4.256;-0.21;-0.26;0.82;12.73;51.20;24.56;-204.76;-127.08;-214.00;0.89;-137.86;-6.41;-34.62 
4.286;-0.19;-0.49;0.83;10.16;51.62;24.21;-198.82;-113.81;-209.00;0.98;-138.31;-7.91;-34.46 
4.316;-0.21;-0.54;0.92;7.51;47.23;22.12;-193.88;-105.27;-207.00;1.09;-138.71;-9.30;-34.45 
4.346;-0.34;-0.28;1.42;15.03;43.62;32.28;-188.93;-96.73;-198.00;1.49;-139.04;-10.78;-34.12 
4.376;-0.22;-0.34;0.78;18.37;10.57;59.06;-188.93;-93.89;-195.00;0.88;-140.41;-11.65;-33.50 
4.406;-0.33;-0.53;0.87;-1.39;20.45;60.94;-172.12;-74.92;-200.00;1.07;-142.33;-13.05;-33.06 
4.437;-0.29;-0.42;0.81;-21.57;9.46;56.56;-163.21;-63.54;-195.00;0.96;-144.55;-14.21;-33.17 
4.467;-0.34;-0.55;0.78;-32.90;15.58;70.82;-156.29;-58.80;-192.00;1.01;-147.16;-15.62;-33.58 
4.497;-0.27;-0.51;0.67;-25.04;31.30;66.92;-150.35;-48.37;-187.00;0.88;-149.83;-17.13;-34.04 
4.528;-0.48;-0.31;1.02;-18.09;18.37;77.43;-135.52;-36.04;-180.00;1.17;-152.31;-19.19;-33.92 
4.558;-0.36;-0.24;0.77;-12.24;-18.02;88.28;-118.70;-30.35;-176.00;0.88;-155.34;-20.37;-33.44 
4.588;-0.32;-0.18;0.75;-2.71;-5.84;106.02;-104.85;-19.92;-184.00;0.84;-158.73;-21.69;-32.37 
4.618;-0.27;-0.24;0.90;-3.06;-9.04;113.60;-85.07;-12.33;-184.00;0.97;-162.24;-23.29;-30.77 
4.648;-0.45;-0.39;0.85;-1.39;-36.03;106.16;-60.34;1.90;-192.00;1.04;-165.81;-24.39;-29.12 
4.678;-0.39;-0.22;0.76;-5.70;-37.63;101.50;-39.57;8.54;-198.00;0.88;-169.11;-25.09;-27.50 
4.708;-0.26;-0.14;0.66;-13.91;-20.10;97.04;-22.75;10.43;-205.00;0.72;-172.28;-25.65;-26.05 
4.739;-0.35;-0.23;0.88;-17.18;-11.69;90.02;-4.95;12.33;-212.00;0.97;-175.39;-26.54;-24.67 
4.769;-0.41;-0.36;0.95;-10.71;-28.66;66.71;13.85;15.17;-218.00;1.10;-178.04;-27.06;-23.53 
4.799;-0.46;-0.06;0.94;3.97;-39.23;49.88;23.74;20.86;-223.00;1.05;-179.69;-26.94;-22.38 
4.829;-0.18;0.18;0.77;6.26;-50.16;54.82;35.61;17.07;-235.00;0.81;179.08;-26.32;-20.79 
4.859;-0.31;0.08;0.78;9.25;-16.42;54.12;45.50;13.28;-242.00;0.84;177.69;-26.11;-18.97 
4.889;-0.35;-0.07;0.96;16.70;-29.15;52.52;65.29;10.43;-249.00;1.02;176.48;-26.13;-17.29 
4.919;-0.26;-0.02;0.86;31.58;-43.34;44.73;72.21;9.48;-257.00;0.90;175.64;-25.47;-15.50 
4.950;-0.15;0.06;0.72;35.55;-47.72;34.30;83.09;3.79;-266.00;0.74;175.22;-24.43;-13.38 
4.980;-0.04;0.06;0.75;41.67;-59.13;29.77;91.00;-0.95;-274.00;0.75;175.08;-22.80;-11.33 
5.010;-0.15;0.06;0.70;41.18;-61.36;40.97;107.82;-11.38;-283.00;0.72;174.83;-21.01;-9.04 
5.041;-0.11;-0.06;0.78;33.18;-44.87;12.38;113.76;-17.07;-288.00;0.79;174.64;-19.33;-7.08 
5.071;-0.21;-0.18;1.03;31.03;-47.86;-2.16;118.70;-20.86;-291.00;1.07;175.16;-18.20;-5.84 
5.101;-0.29;-0.26;0.70;28.87;-18.23;-7.51;124.64;-34.14;-294.00;0.80;175.79;-16.79;-4.73 
5.131;-0.50;0.26;1.30;38.54;50.23;-46.75;128.59;-36.04;-289.00;1.42;177.13;-17.69;-3.80 
5.162;-0.37;0.09;1.21;41.46;-10.23;-14.89;129.58;-34.14;-289.00;1.27;178.59;-18.36;-2.34 
5.192;-0.42;0.34;0.87;36.38;16.00;-5.70;137.50;-37.94;-286.00;1.02;179.66;-18.35;-0.69 
5.222;-0.33;0.37;0.98;26.50;46.47;2.09;143.43;-33.19;-282.00;1.10;-179.75;-19.41;0.96 
5.253;-0.38;0.24;1.04;19.06;37.22;-6.54;148.38;-24.66;-268.00;1.13;-179.31;-20.66;2.16 
5.283;-0.38;0.27;0.99;12.10;41.67;-11.83;148.38;-25.61;-267.00;1.09;-178.62;-21.87;2.98 
5.313;-0.39;0.26;1.02;10.92;42.92;-6.68;152.33;-18.97;-257.00;1.12;-177.94;-23.06;3.70 
5.343;-0.46;0.18;0.99;17.25;36.24;-3.83;155.30;-13.28;-252.00;1.11;-177.37;-24.29;4.47 
5.373;-0.48;0.26;0.96;17.04;22.54;-7.58;156.29;-10.43;-250.00;1.10;-176.68;-25.24;5.29 
5.403;-0.44;0.25;0.81;15.93;11.27;-4.03;156.29;-9.48;-250.00;0.96;-175.99;-25.81;6.10 
5.433;-0.44;0.26;0.68;10.09;12.80;2.43;157.28;-9.48;-249.00;0.85;-175.52;-26.16;7.00 
5.464;-0.44;0.32;0.61;1.74;21.15;1.60;159.26;-7.59;-241.00;0.82;-175.22;-26.72;7.72 
5.493;-0.46;0.23;0.72;4.80;25.04;6.33;162.22;-4.74;-244.00;0.88;-175.08;-27.39;8.35 
5.522;-0.51;0.14;0.77;4.87;23.72;2.99;163.21;-4.74;-241.00;0.93;-174.91;-28.12;8.96 
5.553;-0.47;0.10;0.73;2.16;13.84;-9.18;163.21;-0.95;-238.00;0.87;-174.47;-28.75;9.30 
5.583;-0.45;0.18;0.66;5.57;6.40;-10.57;160.25;2.85;-240.00;0.82;-173.88;-29.08;9.53 
5.613;-0.33;0.22;0.66;7.58;2.64;-9.60;159.26;2.85;-237.00;0.77;-173.39;-29.26;9.75 
5.643;-0.38;0.18;0.48;-4.66;-4.24;-16.90;159.26;-0.95;-236.00;0.64;-172.82;-29.28;9.98 
5.674;-0.38;0.09;0.31;-12.66;-6.61;-23.44;151.34;-1.90;-239.00;0.50;-172.06;-29.40;9.86 
5.703;-0.26;0.03;0.22;-10.02;-4.59;-19.90;144.42;-0.95;-243.00;0.34;-171.37;-29.54;9.51 
5.732;-0.19;0.00;0.26;-14.05;11.34;-28.24;138.48;-0.95;-240.00;0.32;-170.72;-29.72;9.22 
5.763;-0.44;-0.05;0.51;-31.03;34.64;-44.38;129.58;0.95;-237.00;0.68;-169.83;-30.68;8.04 
5.792;-0.63;0.26;0.74;-22.75;44.94;-26.37;117.71;7.59;-229.00;1.01;-168.85;-32.19;6.91 
5.822;-0.39;0.32;0.89;-12.73;30.19;-1.81;115.73;11.38;-222.00;1.02;-168.37;-33.36;6.64 
5.852;-0.41;0.08;0.92;-13.57;-1.74;7.65;114.74;12.33;-221.00;1.01;-168.60;-33.54;6.76 
5.881;-0.41;-0.05;0.77;-12.45;-14.68;-6.68;109.80;11.38;-218.00;0.87;-168.80;-33.07;6.57 
5.911;-0.26;0.03;0.78;-1.95;-11.27;-18.85;108.81;11.38;-223.00;0.82;-168.50;-32.65;6.41 
5.941;-0.31;0.13;0.86;0.77;-12.73;-17.81;103.86;8.54;-227.00;0.92;-167.88;-32.17;6.37 
5.971;-0.37;0.06;0.80;2.23;-22.26;-14.19;99.91;6.64;-228.00;0.88;-167.37;-31.49;6.40 
6.001;-0.35;0.11;0.75;7.86;-23.03;-11.34;96.94;3.79;-232.00;0.83;-166.90;-30.72;6.53 
6.031;-0.31;0.14;0.69;10.71;-18.64;-5.43;97.93;0.95;-238.00;0.77;-166.54;-29.93;6.87 
6.062;-0.30;0.04;0.74;11.41;-15.23;-0.83;96.94;-0.95;-242.00;0.80;-166.27;-29.23;7.31 
6.092;-0.32;0.00;0.77;12.66;-13.70;2.71;96.94;-2.85;-242.00;0.83;-166.13;-28.67;7.82 
6.122;-0.34;0.07;0.77;13.15;-12.52;9.53;101.89;-5.69;-246.00;0.84;-166.08;-28.09;8.31 
6.152;-0.39;-0.02;0.81;12.73;-8.07;16.35;106.83;-3.79;-250.00;0.90;-166.23;-27.60;8.98 
6.182;-0.46;-0.11;0.82;12.94;-5.91;13.84;108.81;-8.54;-252.00;0.95;-166.49;-27.20;9.54 
6.212;-0.36;-0.03;0.78;20.52;-6.19;6.89;116.72;-6.64;-253.00;0.86;-166.52;-26.88;10.07 
6.241;-0.38;0.07;0.76;25.46;-1.32;12.17;124.64;-6.64;-254.00;0.85;-166.41;-26.64;10.92 
6.270;-0.46;0.02;0.80;23.72;1.60;12.38;129.58;-8.54;-255.00;0.92;-166.37;-26.50;11.84 
6.299;-0.48;0.11;0.85;18.85;6.61;9.39;134.53;-8.54;-253.00;0.98;-166.32;-26.53;12.61 
6.328;-0.44;0.19;0.98;16.70;8.00;7.79;137.50;-7.59;-251.00;1.09;-166.25;-26.60;13.35 
6.358;-0.53;0.10;1.06;1.67;-5.01;7.58;139.47;-5.69;-253.00;1.19;-166.29;-26.56;13.86 
6.388;-0.42;0.14;0.80;-1.67;-18.50;2.85;138.48;-7.59;-258.00;0.91;-166.39;-26.07;14.02 
6.418;-0.35;0.26;0.66;-2.92;-9.11;8.77;140.46;-8.54;-260.00;0.79;-166.53;-25.51;14.28 
6.449;-0.29;0.30;0.74;-5.08;-5.84;18.02;142.44;-10.43;-262.00;0.85;-166.91;-25.10;14.64 
6.479;-0.31;0.22;0.76;-2.85;-8.42;27.83;146.40;-11.38;-261.00;0.85;-167.66;-24.50;15.09 
6.509;-0.27;0.22;0.72;1.32;-5.70;27.97;151.34;-12.33;-263.00;0.80;-168.47;-23.87;15.64 
6.539;-0.35;0.26;0.77;-0.35;2.78;19.76;156.29;-17.07;-261.00;0.88;-169.11;-23.51;16.22 
6.570;-0.31;0.24;0.83;-2.02;5.01;9.04;160.25;-16.12;-262.00;0.92;-169.53;-23.37;16.63 
6.600;-0.28;0.26;0.90;0.00;0.07;-0.21;163.21;-17.07;-261.00;0.98;-169.62;-23.26;16.88 
6.630;-0.29;0.34;0.91;2.78;-7.58;-5.29;159.26;-13.28;-262.00;1.01;-169.51;-22.97;17.13 
6.661;-0.24;0.31;0.83;4.52;-11.97;-6.82;160.25;-16.12;-266.00;0.92;-169.33;-22.51;17.44 
6.691;-0.18;0.32;0.78;2.57;-12.52;-10.99;159.26;-17.07;-265.00;0.86;-169.02;-22.00;17.73 
6.721;-0.18;0.33;0.72;-0.35;-7.58;-16.00;157.28;-18.02;-270.00;0.81;-168.63;-21.57;17.88 
6.751;-0.26;0.35;0.79;-3.20;0.21;-14.75;156.29;-19.92;-271.00;0.90;-168.19;-21.39;17.92 
6.781;-0.33;0.27;0.78;-3.69;5.50;-11.62;151.34;-19.92;-268.00;0.89;-167.80;-21.42;17.89 
6.811;-0.38;0.18;0.90;2.57;11.76;-8.42;146.40;-18.02;-268.00;0.99;-167.44;-21.67;17.88 
6.841;-0.43;0.28;0.92;6.75;-1.88;-1.88;149.37;-18.02;-268.00;1.05;-167.16;-21.84;18.07 
6.872;-0.33;0.38;0.76;6.05;-7.58;2.71;148.38;-16.12;-264.00;0.91;-167.08;-21.59;18.47 
6.902;-0.29;0.34;0.70;2.99;4.52;6.89;147.39;-17.07;-267.00;0.83;-167.17;-21.35;18.99 
6.932;-0.34;0.18;0.82;-1.25;5.22;4.17;152.33;-14.23;-264.00;0.91;-167.29;-21.37;19.26 
6.961;-0.34;0.15;0.85;-2.71;-2.57;-0.21;155.30;-18.02;-266.00;0.93;-167.33;-21.29;19.26 
6.990;-0.34;0.22;0.76;-0.28;1.25;-1.46;155.30;-16.12;-266.00;0.86;-167.25;-21.21;19.28 
7.019;-0.37;0.30;0.78;-0.21;3.97;2.16;156.29;-17.07;-264.00;0.91;-167.22;-21.20;19.42 
7.048;-0.37;0.19;0.81;-2.50;2.85;2.30;154.31;-17.07;-266.00;0.91;-167.23;-21.21;19.53 
7.077;-0.38;0.18;0.84;-2.71;-1.46;-2.23;152.33;-14.23;-264.00;0.94;-167.24;-21.14;19.52 
7.106;-0.37;0.20;0.82;-1.25;-0.07;-5.01;152.33;-16.12;-263.00;0.92;-167.14;-21.06;19.47 
7.135;-0.35;0.19;0.83;0.77;-0.77;-6.54;152.33;-15.17;-263.00;0.92;-166.93;-21.05;19.47 
7.164;-0.35;0.17;0.86;0.49;-4.52;-8.90;148.38;-14.23;-268.00;0.94;-166.66;-20.98;19.46 
7.193;-0.34;0.21;0.81;1.88;-6.05;-10.85;150.35;-19.92;-270.00;0.90;-166.35;-20.86;19.43 
7.222;-0.35;0.21;0.79;3.13;-5.57;-9.60;147.39;-13.28;-270.00;0.89;-166.00;-20.72;19.43 
7.251;-0.36;0.20;0.80;3.62;-5.15;-6.75;147.39;-18.02;-268.00;0.90;-165.71;-20.58;19.54 
7.280;-0.34;0.21;0.82;1.81;-6.47;-5.57;145.41;-18.02;-268.00;0.91;-165.50;-20.39;19.63 
7.309;-0.35;0.20;0.79;1.11;-6.96;-4.52;146.40;-16.12;-272.00;0.89;-165.33;-20.18;19.66 
7.340;-0.36;0.21;0.77;1.60;-5.50;-4.38;144.42;-19.92;-271.00;0.88;-165.18;-19.94;19.73 
7.370;-0.34;0.20;0.80;1.32;-4.17;-3.76;145.41;-18.97;-271.00;0.89;-165.03;-19.76;19.76 
7.400;-0.31;0.21;0.85;-0.07;-5.29;-3.20;142.44;-20.86;-275.00;0.93;-164.92;-19.60;19.78 
7.431;-0.30;0.21;0.82;0.21;-4.59;-2.43;141.45;-19.92;-276.00;0.90;-164.83;-19.38;19.79 
7.461;-0.34;0.21;0.80;0.28;-2.23;-1.46;140.46;-19.92;-276.00;0.89;-164.76;-19.21;19.81 
7.491;-0.30;0.20;0.81;-0.83;-1.18;-0.63;143.43;-22.76;-279.00;0.89;-164.71;-19.10;19.82 
7.521;-0.30;0.21;0.82;-0.14;3.27;-0.49;141.45;-21.81;-276.00;0.90;-164.70;-19.01;19.84 
7.552;-0.34;0.21;0.86;-1.04;1.32;0.97;141.45;-20.86;-278.00;0.95;-164.68;-19.00;19.86 
7.582;-0.26;0.23;0.82;-1.67;0.63;2.57;141.45;-24.66;-277.00;0.89;-164.72;-18.92;19.85 
7.612;-0.30;0.21;0.84;-0.90;4.10;3.76;140.46;-18.97;-276.00;0.92;-164.82;-18.86;19.90 
7.643;-0.30;0.17;0.82;-2.09;1.88;3.20;143.43;-22.76;-273.00;0.89;-164.93;-18.77;19.93 
