Time(s) acc_x(g) acc_y(g) acc_z(g) gyr_x(°/s) gyr_y(°/s) gyr_z(°/s) mag_x(G) mag_y(G) mag_z(G) SVM(g) yaw(°) pitch(°) roll(°)
0.000;-0.14;0.01;0.90;-12.73;16.97;-5.77;357.24;-128.80;-415.00;0.91;-130.03;-3.77;7.26 
0.030;-0.14;0.03;0.82;-9.67;14.26;-14.89;354.27;-125.94;-413.00;0.83;-129.62;-4.41;6.94 
0.060;-0.14;0.07;0.81;-6.40;9.39;-27.76;351.29;-120.21;-415.00;0.82;-128.94;-4.98;6.76 
0.091;-0.06;-0.08;0.83;-0.21;1.18;-33.60;346.33;-115.44;-416.00;0.84;-127.85;-5.38;6.56 
0.121;-0.03;-0.26;0.87;1.25;-5.08;-22.05;348.31;-113.54;-416.00;0.91;-126.83;-5.47;6.37 
0.151;0.09;-0.32;0.96;2.02;-8.70;1.39;345.34;-112.58;-413.00;1.02;-126.33;-5.21;6.17 
0.181;0.00;0.00;0.98;2.43;7.44;6.12;345.34;-114.49;-417.00;0.98;-126.48;-4.98;6.13 
0.211;-0.12;0.21;0.90;-0.97;20.45;-8.21;348.31;-109.72;-413.00;0.93;-126.37;-5.47;6.29 
0.241;-0.14;0.10;0.91;1.67;7.10;-14.96;347.32;-105.90;-415.00;0.93;-125.97;-6.06;6.46 
0.271;-0.14;-0.10;0.90;-2.23;5.50;-18.57;348.31;-104.95;-414.00;0.92;-125.43;-6.34;6.50 
0.301;-0.04;-0.20;0.78;-0.35;3.34;-7.37;346.33;-103.99;-412.00;0.81;-124.89;-6.55;6.25 
0.331;-0.10;-0.14;0.74;1.25;-10.30;3.90;346.33;-102.09;-411.00;0.76;-124.70;-6.59;6.06 
0.361;-0.07;-0.02;0.94;0.21;-26.02;12.17;346.33;-103.04;-416.00;0.94;-124.83;-6.11;6.02 
0.392;-0.06;0.08;1.04;1.95;-21.43;14.26;348.31;-111.63;-416.00;1.04;-125.14;-5.43;6.14 
0.422;-0.02;0.03;0.99;1.32;8.21;11.13;346.33;-117.35;-417.00;0.99;-125.42;-5.27;6.32 
0.452;-0.13;0.02;0.84;-0.35;4.80;10.37;349.31;-113.54;-414.00;0.85;-125.70;-5.53;6.40 
0.482;-0.13;0.03;0.82;-0.63;-9.74;6.61;346.33;-119.26;-412.00;0.83;-125.87;-5.52;6.43 
0.512;-0.06;0.02;0.94;1.60;-9.74;4.59;347.32;-119.26;-416.00;0.94;-125.95;-5.21;6.49 
0.542;-0.03;0.04;0.97;2.78;0.70;4.10;349.31;-122.12;-414.00;0.97;-126.00;-5.01;6.59 
0.572;-0.05;0.06;0.90;0.77;4.17;1.88;348.31;-122.12;-414.00;0.90;-126.02;-5.09;6.73 
0.602;-0.06;0.04;0.84;-0.42;0.63;0.70;349.31;-119.26;-414.00;0.84;-125.99;-5.18;6.79 
0.632;-0.05;0.02;0.87;0.21;-1.60;0.70;347.32;-120.21;-413.00;0.87;-125.92;-5.19;6.81 
0.662;-0.02;0.03;0.93;-0.07;-2.64;1.04;349.31;-121.17;-413.00;0.93;-125.87;-5.09;6.85 
0.693;-0.03;0.02;0.93;-0.83;1.25;0.56;350.30;-123.08;-417.00;0.93;-125.81;-5.04;6.88 
0.723;-0.06;-0.03;0.91;0.14;3.27;4.24;350.30;-122.12;-413.00;0.91;-125.80;-5.13;6.96 
0.753;-0.04;0.01;0.94;-0.63;2.23;6.40;346.33;-119.26;-414.00;0.94;-125.89;-5.18;6.96 
0.783;-0.05;0.06;0.88;-0.90;3.62;4.31;349.31;-117.35;-415.00;0.88;-125.98;-5.27;7.02 
0.813;-0.02;0.02;0.88;-0.28;1.95;3.06;349.31;-119.26;-412.00;0.88;-125.98;-5.34;7.02 
0.843;-0.06;0.01;0.91;0.28;2.71;3.13;347.32;-119.26;-412.00;0.91;-125.99;-5.40;7.03 
0.873;-0.07;0.03;0.98;-0.83;7.37;3.90;351.29;-120.21;-413.00;0.98;-126.02;-5.52;7.11 
0.903;-0.07;0.04;0.89;-1.46;14.68;-0.42;347.32;-117.35;-412.00;0.89;-126.02;-5.87;7.10 
0.933;-0.14;0.01;0.82;-0.77;8.00;-2.64;348.31;-116.40;-410.00;0.83;-125.91;-6.32;7.07 
0.963;-0.11;0.00;0.93;-0.42;3.97;-2.99;351.29;-114.49;-414.00;0.94;-125.77;-6.53;7.06 
0.993;-0.10;0.03;0.98;-3.20;11.90;-3.13;348.31;-113.54;-413.00;0.99;-125.63;-6.76;7.03 
1.023;-0.07;0.00;0.90;-3.34;19.20;-4.17;348.31;-108.77;-412.00;0.90;-125.45;-7.28;6.98 
1.053;-0.12;-0.02;0.86;-1.25;17.74;-2.50;347.32;-104.95;-408.00;0.87;-125.29;-7.91;6.98 
1.083;-0.14;-0.05;0.88;0.28;11.34;-0.28;347.32;-104.95;-410.00;0.89;-125.16;-8.41;6.92 
1.114;-0.13;0.00;0.93;-1.11;10.99;4.24;348.31;-101.13;-407.00;0.94;-125.13;-8.75;6.90 
1.144;-0.14;-0.05;0.95;-1.95;18.16;8.28;350.30;-96.36;-412.00;0.96;-125.22;-9.18;6.86 
1.174;-0.15;-0.06;0.87;-1.18;22.47;13.36;348.31;-93.50;-409.00;0.88;-125.44;-9.77;6.81 
1.205;-0.20;0.04;0.78;-3.06;18.37;13.70;349.31;-93.50;-406.00;0.81;-125.77;-10.44;6.79 
1.235;-0.10;0.08;0.88;-3.41;7.51;7.37;348.31;-93.50;-408.00;0.89;-126.02;-10.81;6.80 
1.265;-0.10;0.08;0.97;-1.81;17.18;-0.35;347.32;-89.68;-407.00;0.98;-126.07;-11.05;6.83 
1.295;-0.16;-0.04;1.00;-0.28;24.77;-2.43;347.32;-84.91;-408.00;1.01;-125.94;-11.69;6.81 
1.324;-0.18;-0.05;0.97;0.07;31.86;2.23;349.31;-82.05;-408.00;0.99;-125.82;-12.51;6.79 
1.354;-0.19;0.02;0.91;-0.49;40.21;4.66;347.32;-77.28;-401.00;0.93;-125.79;-13.54;6.77 
1.384;-0.24;0.08;0.87;-1.88;35.97;0.77;353.28;-69.65;-403.00;0.91;-125.76;-14.69;6.82 
1.415;-0.22;0.01;0.82;-3.90;32.49;-0.42;349.31;-62.02;-398.00;0.85;-125.63;-15.77;6.77 
1.445;-0.25;-0.03;0.82;-3.97;25.39;4.87;351.29;-58.20;-396.00;0.86;-125.53;-16.69;6.61 
1.475;-0.24;0.03;0.93;-2.50;26.64;5.22;348.31;-53.43;-394.00;0.96;-125.56;-17.43;6.62 
1.504;-0.17;0.04;0.94;-4.73;36.17;6.61;346.33;-47.70;-394.00;0.96;-125.58;-18.24;6.57 
1.533;-0.22;0.00;0.90;-5.29;42.43;6.61;346.33;-41.03;-389.00;0.93;-125.59;-19.36;6.47 
1.563;-0.27;-0.02;0.82;-5.84;42.57;8.42;347.32;-39.12;-389.00;0.86;-125.60;-20.62;6.44 
1.593;-0.35;0.00;0.86;-5.08;40.28;6.89;347.32;-30.53;-385.00;0.93;-125.60;-21.82;6.34 
1.623;-0.26;0.00;0.85;-6.12;43.34;6.26;348.31;-23.85;-380.00;0.89;-125.60;-23.11;6.32 
1.653;-0.26;-0.02;0.87;-3.97;47.58;6.54;349.31;-15.27;-379.00;0.91;-125.53;-24.38;6.24 
1.682;-0.26;-0.03;0.86;-5.22;50.50;6.96;348.31;-9.54;-371.00;0.90;-125.42;-25.73;6.17 
1.712;-0.33;0.02;0.80;-7.65;60.94;1.74;345.34;-1.91;-369.00;0.87;-125.24;-27.30;6.02 
1.742;-0.31;-0.06;0.78;-3.76;52.17;3.13;345.34;10.49;-362.00;0.84;-124.91;-28.99;5.85 
1.772;-0.27;-0.05;0.86;-3.55;53.70;4.52;344.34;15.27;-358.00;0.90;-124.64;-30.40;5.79 
1.803;-0.32;-0.06;0.86;-6.12;64.83;9.18;347.32;26.71;-349.00;0.92;-124.39;-32.09;5.69 
1.833;-0.23;0.00;0.78;-7.58;67.41;9.67;349.31;33.39;-345.00;0.81;-124.09;-33.93;5.56 
1.863;-0.30;-0.06;0.78;-4.45;73.11;15.23;346.33;44.84;-338.00;0.84;-123.93;-35.71;5.57 
1.893;-0.42;0.02;0.71;-3.41;70.61;15.17;349.31;52.47;-329.00;0.83;-123.71;-37.68;5.71 
1.924;-0.26;0.00;0.77;2.71;53.22;7.17;352.28;62.97;-319.00;0.81;-123.46;-39.42;5.93 
1.953;-0.10;0.10;0.86;3.06;71.86;4.73;354.27;67.74;-310.00;0.87;-123.12;-40.82;6.22 
1.982;-0.29;0.03;0.72;-5.63;102.61;2.16;354.27;79.19;-297.00;0.78;-122.50;-42.87;6.29 
2.012;-0.44;0.02;0.50;1.60;93.36;3.20;353.28;87.78;-284.00;0.67;-121.49;-45.75;6.26 
2.042;-0.38;0.11;0.69;2.92;60.94;-0.77;354.27;99.22;-265.00;0.80;-120.60;-47.96;6.38 
2.072;-0.18;0.11;0.82;6.96;85.36;-19.13;358.24;105.90;-254.00;0.85;-119.57;-49.68;6.36 
2.101;-0.31;-0.02;0.68;0.77;117.50;-13.98;356.25;114.49;-242.00;0.75;-117.94;-52.24;6.10 
2.131;-0.23;-0.10;0.36;-3.90;109.70;-0.83;353.28;124.03;-225.00;0.44;-116.06;-55.68;5.72 
2.161;0.10;0.22;0.39;7.44;80.70;-3.90;356.25;132.62;-206.00;0.46;-114.91;-57.93;5.73 
2.191;0.18;0.42;0.58;8.00;113.11;-27.06;352.28;140.25;-185.00;0.74;-113.69;-60.05;6.03 
2.221;0.05;0.14;0.22;-6.26;180.24;-46.61;347.32;147.88;-157.00;0.27;-110.89;-64.11;5.54 
2.251;0.18;-0.11;-0.13;-10.16;169.88;-45.50;340.38;157.42;-129.00;0.25;-106.79;-69.49;4.28 
2.280;0.34;-0.10;-0.07;-2.85;110.47;-25.18;336.41;165.06;-100.00;0.36;-102.83;-74.18;2.96 
2.311;-0.48;-0.23;0.59;-27.90;181.50;25.74;331.44;166.96;-80.00;0.79;-100.59;-77.39;2.58 
2.341;-0.98;-0.46;0.10;-53.01;376.35;12.66;340.38;163.15;-25.00;1.09;-95.27;-85.45;2.53 
2.371;-1.31;-0.46;-1.46;-164.66;503.65;131.62;348.31;148.84;36.00;2.01;-86.89;-79.85;3.45 
2.401;-0.65;1.10;-3.78;-176.77;350.75;-110.68;383.05;99.22;95.00;3.99;-73.16;-60.42;8.45 
2.431;0.48;0.86;-2.34;20.66;-136.35;78.40;382.05;94.45;95.00;2.54;-70.81;-58.84;8.86 
2.461;-1.52;0.97;-2.66;67.97;-216.21;12.52;389.99;94.45;93.00;3.21;-76.05;-60.20;10.18 
2.491;-0.69;-0.09;-0.70;19.06;-322.92;-59.06;388.01;105.90;76.00;0.99;-83.34;-68.79;9.14 
2.520;-1.16;-0.74;-0.22;16.63;-126.26;29.98;381.06;133.57;17.00;1.39;-87.64;-75.60;7.44 
2.550;-1.79;0.35;-0.12;29.29;42.71;55.03;388.01;133.57;3.00;1.83;-90.76;-76.52;8.67 
2.580;-2.24;0.91;-0.90;9.67;78.05;40.21;402.89;121.17;25.00;2.58;-90.28;-73.20;10.22 
2.611;-1.92;0.26;-1.29;0.97;79.65;-53.15;399.92;122.12;33.00;2.33;-87.49;-71.33;9.41 
2.641;-1.70;-0.18;-1.30;3.13;38.40;-44.59;391.98;124.03;48.00;2.15;-84.42;-69.92;7.92 
2.671;-1.12;-0.21;-0.86;8.63;-25.39;-7.58;385.03;129.76;49.00;1.43;-83.04;-69.61;6.77 
2.700;-0.72;0.10;-0.47;-4.24;-39.44;-2.71;385.03;130.71;43.00;0.87;-83.54;-70.30;6.53 
2.730;-0.89;0.12;-0.53;-6.12;-16.28;-4.17;379.08;133.57;38.00;1.04;-83.93;-70.63;6.51 
2.760;-1.02;0.18;-0.54;5.29;-53.98;-28.17;381.06;131.66;36.00;1.17;-84.15;-71.22;6.20 
2.790;-0.71;-0.10;-0.19;5.29;-62.47;-36.45;377.09;141.20;27.00;0.74;-84.44;-73.11;5.13 
2.820;-1.09;-0.34;-0.04;-7.79;-27.83;4.73;371.14;143.11;15.00;1.14;-84.72;-74.70;4.31 
2.849;-1.08;0.00;-0.17;5.98;7.93;2.64;368.16;143.11;15.00;1.09;-85.01;-74.97;4.25 
2.879;-1.02;0.04;-0.41;6.26;12.59;-0.77;373.12;143.11;14.00;1.10;-84.87;-74.46;4.22 
2.910;-1.02;0.05;-0.55;-3.83;-21.36;-9.81;367.17;143.11;16.00;1.16;-84.68;-74.16;4.07 
2.940;-1.02;-0.14;-0.28;5.63;-31.37;-9.81;368.16;146.93;11.00;1.07;-84.75;-74.85;3.62 
2.970;-0.93;-0.10;-0.18;5.63;-12.17;1.25;363.20;148.84;5.00;0.95;-85.00;-75.50;3.29 
3.000;-1.02;0.11;-0.34;-1.81;-3.41;1.11;365.18;146.93;8.00;1.08;-85.20;-75.54;3.30 
3.030;-0.96;0.02;-0.30;1.32;-2.50;-9.60;364.19;148.84;3.00;1.01;-85.14;-75.50;3.15 
3.060;-0.88;-0.02;-0.24;2.23;-4.59;-5.22;363.20;149.79;6.00;0.91;-84.92;-75.48;2.84 
3.090;-0.91;0.07;-0.26;1.32;-1.88;-8.21;362.21;149.79;4.00;0.95;-84.83;-75.49;2.62 
3.121;-0.94;-0.06;-0.28;2.64;5.22;-4.87;362.21;149.79;7.00;0.98;-84.60;-75.33;2.35 
3.151;-1.00;-0.04;-0.37;-1.18;0.77;2.09;361.21;151.70;6.00;1.07;-84.41;-75.02;2.19 
3.181;-0.96;0.02;-0.32;-1.67;-7.17;0.42;362.21;151.70;7.00;1.01;-84.48;-74.93;2.18 
3.211;-0.99;-0.08;-0.25;0.77;-4.45;3.41;362.21;153.61;6.00;1.02;-84.60;-74.98;2.14 
3.241;-1.02;-0.02;-0.26;-0.56;5.84;3.55;360.22;148.84;3.00;1.05;-84.71;-74.89;2.16 
3.271;-1.02;-0.03;-0.36;-1.53;4.45;0.42;359.23;150.74;6.00;1.08;-84.67;-74.54;2.17 
3.301;-1.02;-0.08;-0.33;-0.97;-3.69;2.92;364.19;149.79;3.00;1.08;-84.63;-74.34;2.11 
3.332;-1.02;0.03;-0.26;-0.56;0.56;2.43;360.22;151.70;2.00;1.05;-84.78;-74.28;2.16 
3.362;-1.06;-0.02;-0.34;-0.83;5.22;0.14;362.21;152.65;7.00;1.11;-84.76;-74.03;2.13 
3.392;-1.02;-0.05;-0.38;-1.88;-3.41;3.83;361.21;150.74;9.00;1.09;-84.70;-73.81;2.06 
3.423;-1.03;0.02;-0.30;-1.67;1.60;3.90;363.20;146.93;5.00;1.07;-84.88;-73.74;2.14 
3.453;-1.02;-0.02;-0.30;-1.88;3.48;3.13;366.18;145.97;4.00;1.06;-84.95;-73.50;2.20 
3.483;-1.02;0.00;-0.32;-1.11;1.11;4.17;368.16;145.02;7.00;1.07;-85.00;-73.30;2.23 
3.513;-0.98;0.01;-0.31;0.35;1.81;1.81;365.18;147.88;6.00;1.03;-85.10;-73.11;2.27 
3.543;-1.01;0.00;-0.30;-0.56;3.06;1.53;368.16;148.84;2.00;1.05;-85.13;-72.92;2.26 
3.572;-0.98;0.01;-0.30;-2.99;4.38;2.09;368.16;147.88;7.00;1.02;-85.14;-72.73;2.24 
3.602;-1.03;0.00;-0.38;-1.04;1.11;1.04;367.17;145.97;6.00;1.10;-85.14;-72.48;2.24 
3.633;-1.02;0.02;-0.34;-0.28;-2.09;0.77;371.14;147.88;10.00;1.08;-85.20;-72.38;2.22 
3.663;-1.06;0.01;-0.35;-1.53;3.48;0.49;369.15;145.97;8.00;1.12;-85.24;-72.25;2.19 
3.693;-0.99;0.00;-0.37;-1.11;0.14;-0.14;369.15;145.02;7.00;1.06;-85.21;-72.06;2.12 
3.723;-1.02;-0.02;-0.30;-2.02;-2.78;1.88;370.15;147.88;3.00;1.06;-85.30;-72.01;2.13 
3.753;-1.02;-0.02;-0.30;-0.21;2.23;4.80;369.15;144.07;6.00;1.06;-85.36;-71.93;2.09 
3.783;-1.06;0.02;-0.34;-0.77;0.07;4.59;368.16;147.88;7.00;1.11;-85.48;-71.77;2.15 
3.812;-1.02;0.02;-0.35;-2.30;-1.39;1.25;373.12;144.07;4.00;1.08;-85.60;-71.68;2.18 
3.842;-1.02;0.01;-0.32;0.42;-3.34;0.21;369.15;145.97;4.00;1.07;-85.67;-71.65;2.16 
3.872;-1.02;-0.03;-0.26;0.07;0.07;3.13;372.13;146.93;5.00;1.05;-85.76;-71.67;2.11 
3.902;-0.99;0.03;-0.30;-1.74;3.97;2.30;372.13;143.11;2.00;1.03;-85.84;-71.50;2.15 
3.933;-1.00;0.00;-0.38;-0.49;2.30;1.25;373.12;144.07;6.00;1.07;-85.88;-71.26;2.16 
3.963;-1.02;0.01;-0.31;-0.63;-3.41;3.97;373.12;142.16;6.00;1.07;-85.99;-71.18;2.18 
3.993;-1.01;0.04;-0.34;-0.21;2.64;-0.07;374.11;144.07;2.00;1.07;-86.09;-71.13;2.18 
4.023;-1.01;0.00;-0.38;0.28;2.92;0.90;374.11;144.07;7.00;1.08;-86.08;-70.96;2.11 
4.052;-0.98;0.01;-0.38;-1.39;-1.32;2.78;373.12;146.93;4.00;1.05;-86.14;-70.84;2.10 
4.082;-1.02;0.07;-0.30;-2.64;-2.78;-0.35;376.10;145.02;5.00;1.07;-86.24;-70.80;2.11 
4.112;-0.98;-0.02;-0.32;-1.53;-0.28;-0.07;372.13;142.16;4.00;1.03;-86.25;-70.83;2.03 
4.141;-1.02;0.00;-0.31;-2.71;4.03;1.46;372.13;145.02;6.00;1.07;-86.29;-70.68;2.03 
4.171;-1.03;0.00;-0.35;-1.53;0.83;-0.63;372.13;142.16;5.00;1.09;-86.29;-70.54;1.98 
4.200;-0.99;0.00;-0.33;0.83;-0.49;1.04;374.11;143.11;3.00;1.04;-86.32;-70.53;1.92 
4.231;-1.04;0.05;-0.30;0.77;0.14;1.39;376.10;144.07;5.00;1.08;-86.38;-70.47;1.87 
4.261;-1.02;0.04;-0.26;-0.07;1.04;-0.42;375.11;143.11;4.00;1.05;-86.48;-70.46;1.86 
4.291;-1.02;-0.02;-0.32;-1.39;4.59;1.25;376.10;142.16;5.00;1.07;-86.47;-70.31;1.80 
4.322;-1.02;0.00;-0.32;-0.63;0.21;3.69;377.09;141.20;7.00;1.07;-86.54;-70.17;1.80 
4.352;-1.02;0.06;-0.31;-1.39;0.77;2.09;375.11;142.16;2.00;1.07;-86.65;-70.13;1.82 
4.382;-1.00;0.01;-0.34;-0.56;2.64;1.39;375.11;143.11;4.00;1.06;-86.70;-70.03;1.81 
4.412;-1.01;0.02;-0.34;-0.63;1.74;2.43;376.10;143.11;3.00;1.07;-86.77;-69.90;1.81 
4.443;-1.02;0.05;-0.32;-0.97;1.04;1.88;378.08;142.16;6.00;1.07;-86.84;-69.82;1.81 
4.473;-1.00;0.05;-0.34;-1.25;1.04;1.04;377.09;141.20;5.00;1.06;-86.91;-69.74;1.80 
4.503;-1.03;0.02;-0.31;-1.11;1.39;2.99;377.09;142.16;6.00;1.08;-86.99;-69.65;1.81 
4.534;-1.02;0.05;-0.32;-0.49;2.23;2.23;380.07;140.25;8.00;1.07;-87.08;-69.54;1.82 
4.564;-1.00;0.07;-0.38;-0.70;1.60;0.35;375.11;140.25;9.00;1.07;-87.13;-69.42;1.80 
4.594;-1.00;0.01;-0.32;-0.83;1.04;0.21;378.08;138.34;8.00;1.05;-87.16;-69.34;1.76 
4.624;-1.02;0.03;-0.33;-0.42;2.64;0.49;380.07;144.07;9.00;1.07;-87.17;-69.28;1.69 
4.653;-1.00;0.02;-0.36;-0.42;1.60;0.56;379.08;143.11;7.00;1.06;-87.17;-69.17;1.62 
4.683;-1.00;0.02;-0.33;-0.42;2.16;0.07;382.05;142.16;3.00;1.05;-87.19;-69.11;1.56 
4.713;-1.02;0.01;-0.31;-0.07;2.50;-0.49;380.07;138.34;6.00;1.07;-87.19;-69.03;1.49 
4.744;-1.02;0.01;-0.34;-0.49;2.57;0.77;380.07;140.25;9.00;1.08;-87.18;-68.96;1.41 
4.774;-1.00;0.02;-0.35;-0.28;2.37;1.04;378.08;139.30;5.00;1.06;-87.22;-68.87;1.36 
4.804;-0.99;0.05;-0.34;-0.28;1.88;-0.07;376.10;142.16;8.00;1.05;-87.24;-68.80;1.31 
4.834;-1.02;0.01;-0.34;-0.77;2.09;1.11;380.07;140.25;10.00;1.08;-87.25;-68.69;1.26 
4.863;-1.00;0.00;-0.32;-0.49;2.57;1.32;382.05;144.07;10.00;1.05;-87.29;-68.57;1.23 
4.893;-1.00;0.04;-0.36;-0.49;1.81;1.67;380.07;138.34;10.00;1.06;-87.35;-68.51;1.22 
4.923;-0.98;0.03;-0.34;-0.63;2.50;0.83;380.07;137.39;6.00;1.04;-87.42;-68.43;1.21 
4.954;-0.99;0.02;-0.35;-0.49;0.90;1.39;378.08;138.34;11.00;1.05;-87.46;-68.37;1.17 
4.983;-1.01;0.04;-0.33;-0.35;2.16;1.39;381.06;139.30;11.00;1.06;-87.54;-68.34;1.17 
5.013;-1.00;0.04;-0.37;-0.63;3.06;0.83;381.06;139.30;8.00;1.07;-87.58;-68.25;1.15 
5.044;-1.02;0.02;-0.38;-0.42;0.90;0.70;379.08;139.30;11.00;1.09;-87.63;-68.16;1.13 
5.074;-0.99;0.05;-0.31;-0.28;-0.07;-0.35;383.05;141.20;11.00;1.04;-87.65;-68.16;1.07 
5.104;-1.01;0.00;-0.37;-0.28;1.88;0.28;384.04;137.39;13.00;1.08;-87.65;-68.12;0.99 
5.133;-1.02;0.03;-0.35;-0.21;0.77;-0.42;381.06;138.34;10.00;1.08;-87.67;-68.07;0.94 
5.163;-1.02;0.04;-0.34;0.00;0.56;-0.63;380.07;136.43;10.00;1.08;-87.68;-68.07;0.87 
5.193;-1.02;0.01;-0.34;-0.63;1.95;0.42;384.04;139.30;11.00;1.08;-87.71;-68.05;0.81 
5.223;-1.02;0.03;-0.36;-0.42;1.25;0.00;380.07;137.39;8.00;1.08;-87.73;-67.98;0.77 
5.254;-1.02;0.04;-0.34;0.21;-0.21;0.21;382.05;137.39;9.00;1.08;-87.76;-68.01;0.71 
5.284;-1.03;0.04;-0.37;-0.90;-0.56;0.35;379.08;137.39;10.00;1.10;-87.79;-68.04;0.66 
5.314;-1.02;0.02;-0.38;-0.28;-1.67;-0.35;384.04;136.43;11.00;1.09;-87.82;-68.10;0.61 
5.345;-0.99;0.04;-0.37;-0.07;-4.66;-0.90;380.07;137.39;13.00;1.06;-87.82;-68.19;0.52 
5.375;-0.98;0.06;-0.33;-0.49;-3.06;-1.60;380.07;137.39;10.00;1.04;-87.84;-68.34;0.45 
5.405;-1.02;0.04;-0.30;-0.21;0.28;-1.81;381.06;139.30;11.00;1.06;-87.84;-68.42;0.37 
5.434;-1.02;0.05;-0.36;-0.28;0.56;-1.32;383.05;139.30;9.00;1.08;-87.80;-68.44;0.26 
5.464;-1.01;0.01;-0.35;-0.14;-2.23;-1.11;381.06;140.25;9.00;1.07;-87.78;-68.48;0.18 
5.494;-1.02;0.03;-0.33;0.49;-2.30;-0.70;379.08;139.30;8.00;1.07;-87.75;-68.54;0.06 
5.524;-1.02;0.02;-0.34;0.21;-0.07;-0.97;381.06;139.30;8.00;1.08;-87.75;-68.62;-0.01 
5.554;-0.97;0.02;-0.36;0.21;-1.53;-1.60;381.06;137.39;10.00;1.03;-87.73;-68.65;-0.11 
5.584;-0.99;0.02;-0.37;0.14;-2.16;-0.56;379.08;144.07;9.00;1.06;-87.73;-68.71;-0.19 
5.614;-1.01;0.00;-0.34;-0.14;-2.37;0.90;379.08;141.20;8.00;1.07;-87.75;-68.82;-0.25 
5.644;-1.01;0.06;-0.35;-0.56;0.70;-0.07;377.09;140.25;7.00;1.07;-87.80;-68.89;-0.26 
5.673;-1.00;0.02;-0.38;0.07;-1.95;-0.83;380.07;140.25;8.00;1.07;-87.83;-68.91;-0.29 
5.703;-1.01;0.03;-0.32;0.21;-2.02;-0.28;382.05;139.30;9.00;1.06;-87.86;-69.02;-0.34 
5.733;-1.00;0.06;-0.33;0.21;-0.90;-1.04;378.08;140.25;10.00;1.05;-87.88;-69.11;-0.39 
5.764;-1.02;0.04;-0.35;0.49;-2.37;-1.67;380.07;138.34;7.00;1.08;-87.87;-69.18;-0.46 
5.794;-1.02;0.02;-0.34;0.90;-3.27;-1.11;379.08;140.25;6.00;1.08;-87.86;-69.27;-0.55 
5.824;-1.02;0.00;-0.34;0.63;-3.97;-2.43;381.06;144.07;7.00;1.08;-87.84;-69.40;-0.64 
5.854;-0.98;0.02;-0.30;1.11;-2.78;-1.88;375.11;142.16;5.00;1.03;-87.79;-69.53;-0.76 
5.884;-1.00;0.02;-0.31;0.14;-1.60;-1.81;379.08;144.07;1.00;1.05;-87.76;-69.63;-0.86 
5.914;-1.02;0.02;-0.34;0.21;-1.32;-2.37;377.09;143.11;8.00;1.08;-87.72;-69.71;-0.96 
5.944;-1.02;0.02;-0.34;0.56;-3.76;-1.53;375.11;144.07;2.00;1.08;-87.65;-69.78;-1.09 
5.974;-1.02;0.01;-0.32;-0.56;-1.39;-0.07;380.07;142.16;5.00;1.07;-87.67;-69.89;-1.14 
6.004;-1.02;0.02;-0.32;0.35;-3.13;-0.63;374.11;140.25;2.00;1.07;-87.66;-70.01;-1.20 
6.034;-1.02;0.03;-0.27;0.49;-1.39;-0.63;373.12;141.20;1.00;1.06;-87.66;-70.13;-1.26 
6.064;-1.00;0.01;-0.34;0.07;-0.07;-1.46;373.12;144.07;0.00;1.06;-87.65;-70.17;-1.32 
6.094;-1.01;0.04;-0.30;0.07;-2.09;-0.90;376.10;143.11;2.00;1.05;-87.64;-70.22;-1.39 
6.124;-0.99;0.04;-0.26;-0.21;-1.32;-1.25;376.10;144.07;-1.00;1.02;-87.64;-70.34;-1.44 
6.155;-1.02;0.02;-0.32;-0.35;1.11;-0.77;375.11;145.02;1.00;1.07;-87.64;-70.39;-1.48 
6.185;-1.02;0.02;-0.33;0.14;0.00;-0.63;378.08;143.11;-1.00;1.07;-87.61;-70.39;-1.56 
6.215;-1.00;0.02;-0.30;-0.21;1.53;-0.97;372.13;145.02;-2.00;1.04;-87.61;-70.40;-1.60 
6.244;-1.02;0.00;-0.32;-0.28;0.97;-0.42;375.11;144.07;-2.00;1.07;-87.62;-70.39;-1.64 
6.274;-1.01;0.00;-0.34;0.07;-0.35;0.07;374.11;143.11;-1.00;1.07;-87.62;-70.36;-1.70 
6.304;-1.02;0.01;-0.31;-0.28;1.25;1.32;374.11;144.07;4.00;1.07;-87.66;-70.39;-1.72 
6.334;-0.98;0.00;-0.38;-0.49;1.95;1.25;375.11;144.07;3.00;1.05;-87.68;-70.35;-1.74 
6.365;-1.02;0.02;-0.34;0.07;-0.07;0.70;376.10;145.02;-1.00;1.08;-87.73;-70.35;-1.72 
6.395;-0.99;0.01;-0.26;-0.77;2.30;1.04;379.08;143.11;0.00;1.02;-87.73;-70.34;-1.76 
6.425;-1.03;0.02;-0.33;-0.77;2.23;1.53;376.10;145.02;2.00;1.08;-87.80;-70.36;-1.73 
6.455;-0.95;0.03;-0.32;-0.49;0.56;0.14;375.11;144.07;2.00;1.00;-87.83;-70.36;-1.73 
6.484;-1.02;0.02;-0.31;-0.49;3.20;0.77;377.09;145.97;2.00;1.07;-87.86;-70.35;-1.74 
6.514;-1.01;0.03;-0.33;-0.63;2.23;1.18;379.08;143.11;1.00;1.06;-87.89;-70.31;-1.74 
6.544;-1.00;0.03;-0.35;-1.46;3.34;0.83;377.09;141.20;7.00;1.06;-87.93;-70.26;-1.72 
6.575;-0.96;0.03;-0.30;-0.83;2.71;0.00;380.07;143.11;3.00;1.01;-87.95;-70.22;-1.74 
6.604;-1.01;0.01;-0.34;-0.42;1.67;0.14;378.08;144.07;7.00;1.07;-87.97;-70.18;-1.75 
6.634;-1.00;0.02;-0.34;-1.32;2.37;-0.07;375.11;144.07;2.00;1.06;-87.99;-70.16;-1.76 
6.665;-1.02;0.01;-0.34;-0.35;0.90;-0.70;376.10;140.25;5.00;1.08;-88.01;-70.13;-1.76 
6.695;-0.98;0.00;-0.30;0.00;1.18;0.56;378.08;140.25;7.00;1.02;-87.98;-70.13;-1.83 
6.725;-1.01;0.02;-0.34;-0.90;3.41;1.46;378.08;142.16;6.00;1.07;-88.00;-70.08;-1.85 
6.755;-1.03;0.02;-0.35;-0.49;1.95;0.56;377.09;144.07;6.00;1.09;-88.03;-70.03;-1.85 
6.784;-1.02;0.02;-0.36;-0.49;-0.70;0.14;378.08;142.16;6.00;1.08;-88.05;-70.05;-1.86 
6.814;-1.02;0.04;-0.32;-0.14;-0.83;0.77;377.09;141.20;4.00;1.07;-88.09;-70.13;-1.86 
6.844;-1.02;0.05;-0.36;-0.49;0.35;0.83;379.08;141.20;7.00;1.08;-88.13;-70.17;-1.85 
6.875;-1.02;0.04;-0.32;0.21;-1.11;0.77;379.08;141.20;6.00;1.07;-88.18;-70.23;-1.83 
6.905;-1.02;0.07;-0.34;0.00;0.90;0.14;377.09;143.11;6.00;1.08;-88.24;-70.30;-1.81 
6.935;-1.02;0.03;-0.34;-0.35;1.46;-0.63;373.12;143.11;7.00;1.08;-88.25;-70.29;-1.83 
6.966;-0.98;0.00;-0.31;0.14;-0.63;-0.28;377.09;143.11;6.00;1.03;-88.26;-70.34;-1.85 
6.996;-1.02;0.02;-0.33;-0.56;0.70;-0.14;380.07;143.11;4.00;1.07;-88.27;-70.42;-1.87 
7.026;-1.01;0.02;-0.33;-0.07;0.42;-0.28;373.12;140.25;8.00;1.06;-88.28;-70.44;-1.89 
7.056;-1.02;0.02;-0.30;-0.07;0.83;-0.28;379.08;144.07;8.00;1.06;-88.28;-70.47;-1.92 
7.085;-1.02;0.00;-0.35;0.07;0.90;0.70;379.08;144.07;1.00;1.08;-88.29;-70.48;-1.94 
7.115;-1.02;0.04;-0.35;-0.35;-0.14;0.21;378.08;143.11;7.00;1.08;-88.33;-70.50;-1.93 
7.145;-1.01;0.03;-0.34;-0.35;-0.42;-0.63;376.10;142.16;8.00;1.07;-88.34;-70.55;-1.94 
7.176;-1.01;0.01;-0.33;-0.14;0.63;0.56;380.07;145.02;6.00;1.06;-88.35;-70.58;-1.95 
7.206;-1.02;0.04;-0.36;0.21;-0.21;0.21;381.06;145.02;6.00;1.08;-88.38;-70.61;-1.96 
7.236;-1.01;0.02;-0.30;0.00;-0.90;0.49;377.09;139.30;5.00;1.05;-88.40;-70.68;-1.96 
7.266;-1.00;0.03;-0.30;-0.35;0.70;0.00;379.08;141.20;4.00;1.04;-88.42;-70.74;-1.97 
7.296;-0.98;0.02;-0.36;-0.21;1.18;0.07;378.08;142.16;5.00;1.04;-88.40;-70.73;-2.02 
7.326;-1.02;0.02;-0.33;-0.07;0.28;0.21;381.06;143.11;9.00;1.07;-88.41;-70.73;-2.03 
7.356;-1.00;0.03;-0.32;-0.70;0.21;0.35;377.09;143.11;4.00;1.05;-88.44;-70.76;-2.02 
7.387;-1.01;0.04;-0.32;-0.56;2.02;-0.21;379.08;143.11;6.00;1.06;-88.45;-70.78;-2.03 
7.416;-1.02;0.02;-0.37;0.07;-0.35;0.07;379.08;142.16;3.00;1.09;-88.46;-70.80;-2.03 
7.446;-1.00;0.04;-0.28;-0.14;-0.21;0.07;380.07;143.11;4.00;1.04;-88.49;-70.85;-2.03 
7.477;-1.04;0.02;-0.31;-0.77;1.11;0.07;379.08;143.11;7.00;1.09;-88.51;-70.87;-2.04 
7.507;-1.01;0.01;-0.36;-0.07;-0.14;0.14;379.08;140.25;5.00;1.07;-88.52;-70.91;-2.04 
7.537;-1.01;0.03;-0.34;-0.14;-0.83;0.49;378.08;141.20;7.00;1.07;-88.55;-70.98;-2.04 
7.567;-1.02;0.03;-0.35;0.07;-1.25;0.35;381.06;142.16;3.00;1.08;-88.57;-71.04;-2.04 
7.597;-1.01;0.02;-0.33;0.07;-0.90;-0.21;380.07;139.30;7.00;1.06;-88.59;-71.13;-2.03 
7.627;-1.03;0.02;-0.34;-0.14;-0.49;0.56;376.10;141.20;6.00;1.08;-88.60;-71.17;-2.05 
7.657;-1.02;0.04;-0.35;-0.14;-2.43;-0.07;378.08;141.20;9.00;1.08;-88.62;-71.24;-2.04 
7.688;-0.98;0.06;-0.30;0.56;-1.95;-0.97;379.08;142.16;5.00;1.03;-88.63;-71.37;-2.05 
7.718;-1.02;0.02;-0.30;0.14;1.04;0.56;379.08;141.20;5.00;1.06;-88.64;-71.43;-2.06 
7.748;-1.02;0.02;-0.35;-0.42;0.56;0.63;377.09;140.25;2.00;1.08;-88.67;-71.41;-2.05 
7.778;-0.99;0.02;-0.30;-0.21;-0.35;-0.49;379.08;143.11;4.00;1.03;-88.70;-71.46;-2.03 
7.807;-0.98;0.00;-0.34;0.00;0.70;-0.35;378.08;144.07;8.00;1.04;-88.69;-71.50;-2.06 
7.837;-1.00;0.01;-0.32;-0.35;0.97;0.70;377.09;143.11;7.00;1.05;-88.71;-71.52;-2.05 
7.867;-1.01;0.01;-0.30;-0.35;0.90;0.35;379.08;141.20;5.00;1.05;-88.75;-71.53;-2.04 
7.898;-1.00;0.01;-0.31;0.07;0.07;-0.07;379.08;140.25;7.00;1.05;-88.76;-71.55;-2.03 
7.928;-1.01;0.01;-0.35;-0.49;0.56;0.56;378.08;141.20;5.00;1.07;-88.79;-71.58;-2.02 
7.958;-1.00;0.06;-0.33;-1.04;-0.21;-0.14;378.08;142.16;9.00;1.05;-88.83;-71.59;-1.99 
7.989;-1.02;0.03;-0.31;0.07;-0.35;-0.07;378.08;144.07;5.00;1.07;-88.83;-71.65;-2.00 
8.019;-1.02;0.03;-0.31;0.00;1.53;0.28;378.08;143.11;2.00;1.07;-88.84;-71.70;-2.00 
8.049;-1.01;0.04;-0.36;-0.28;-0.35;-0.21;380.07;142.16;3.00;1.07;-88.86;-71.71;-1.99 
8.079;-1.02;0.02;-0.33;-0.28;-0.56;0.35;378.08;144.07;6.00;1.07;-88.87;-71.77;-2.00 
8.109;-1.01;0.02;-0.33;-0.49;-0.14;0.63;377.09;139.30;6.00;1.06;-88.89;-71.80;-2.00 
8.138;-1.02;0.03;-0.31;-0.28;1.32;0.42;378.08;141.20;5.00;1.07;-88.93;-71.85;-1.96 
8.168;-1.00;0.04;-0.34;-0.21;1.53;0.07;378.08;143.11;11.00;1.06;-88.95;-71.85;-1.95 
8.199;-1.02;0.02;-0.34;-0.07;0.49;-0.28;379.08;140.25;5.00;1.08;-88.97;-71.87;-1.94 
8.229;-1.01;0.02;-0.32;-0.21;1.18;0.70;381.06;142.16;5.00;1.06;-88.98;-71.90;-1.94 
8.259;-1.00;0.03;-0.31;-1.04;1.18;0.70;381.06;137.39;6.00;1.05;-89.01;-71.90;-1.92 
8.289;-1.02;0.03;-0.34;-0.56;1.53;0.90;380.07;139.30;4.00;1.08;-89.06;-71.90;-1.88 
8.319;-1.02;0.02;-0.34;-0.07;0.90;0.07;377.09;139.30;4.00;1.08;-89.10;-71.89;-1.85 
8.349;-1.02;0.04;-0.30;-0.56;1.32;-0.07;381.06;138.34;6.00;1.06;-89.16;-71.88;-1.82 
8.379;-1.01;0.02;-0.34;-0.21;0.49;0.14;377.09;143.11;7.00;1.07;-89.20;-71.88;-1.79 
8.410;-1.00;0.02;-0.35;-0.63;0.28;0.90;376.10;142.16;6.00;1.06;-89.23;-71.91;-1.77 
8.440;-1.00;0.06;-0.33;-0.14;0.28;-0.42;378.08;140.25;9.00;1.05;-89.28;-71.94;-1.72 
8.470;-1.02;0.02;-0.34;0.21;0.07;0.21;381.06;141.20;5.00;1.08;-89.29;-71.98;-1.71 
8.500;-1.02;0.04;-0.34;-0.42;0.70;0.21;381.06;138.34;4.00;1.08;-89.32;-72.00;-1.70 
8.530;-0.92;0.03;-0.34;-0.28;-0.14;0.14;380.07;140.25;8.00;0.98;-89.34;-72.03;-1.68 
8.560;-0.98;0.02;-0.33;-0.14;0.56;-0.07;377.09;142.16;4.00;1.03;-89.37;-72.08;-1.66 
8.590;-1.00;0.00;-0.35;-0.21;0.56;0.14;377.09;140.25;10.00;1.06;-89.38;-72.09;-1.65 
8.620;-0.98;0.03;-0.36;-0.07;0.56;0.14;381.06;141.20;6.00;1.04;-89.39;-72.11;-1.65 
8.649;-1.02;0.02;-0.34;-0.49;1.25;0.28;378.08;144.07;7.00;1.08;-89.40;-72.14;-1.65 
8.679;-1.00;0.00;-0.34;-0.14;0.21;0.56;377.09;142.16;6.00;1.06;-89.41;-72.14;-1.64 
8.710;-1.02;0.06;-0.31;-0.42;1.11;0.56;382.05;141.20;8.00;1.07;-89.47;-72.17;-1.59 
8.739;-1.01;0.02;-0.38;-0.28;1.46;0.00;380.07;141.20;6.00;1.08;-89.49;-72.14;-1.58 
8.769;-1.01;0.03;-0.37;-0.28;0.35;0.21;383.05;139.30;5.00;1.08;-89.54;-72.14;-1.53 
8.800;-1.02;0.04;-0.31;-0.49;0.90;0.00;380.07;144.07;6.00;1.07;-89.54;-72.16;-1.53 
8.830;-1.00;0.02;-0.34;0.14;0.49;-0.07;381.06;142.16;6.00;1.06;-89.55;-72.18;-1.53 
8.859;-1.02;0.02;-0.33;-0.77;0.83;0.21;380.07;140.25;6.00;1.07;-89.57;-72.20;-1.51 
8.889;-1.00;0.06;-0.33;-0.35;0.70;0.28;378.08;140.25;8.00;1.05;-89.60;-72.19;-1.49 
8.919;-0.98;0.08;-0.31;-0.21;0.63;0.00;380.07;141.20;9.00;1.03;-89.63;-72.18;-1.47 
8.949;-1.02;0.03;-0.34;-0.35;0.42;0.00;380.07;140.25;6.00;1.08;-89.64;-72.20;-1.46 
8.978;-1.04;0.03;-0.35;0.14;-0.14;0.00;380.07;142.16;7.00;1.10;-89.66;-72.21;-1.45 
9.009;-1.00;0.03;-0.34;0.21;0.00;-0.35;382.05;144.07;6.00;1.06;-89.67;-72.25;-1.44 
9.039;-1.01;0.03;-0.34;0.14;0.35;0.00;382.05;141.20;6.00;1.07;-89.66;-72.28;-1.45 
9.069;-1.01;0.01;-0.34;-0.28;-0.42;0.14;384.04;143.11;7.00;1.07;-89.70;-72.31;-1.42 
9.098;-0.98;0.05;-0.34;-0.14;0.07;-0.21;383.05;141.20;6.00;1.04;-89.70;-72.34;-1.41 
9.128;-1.02;0.02;-0.35;0.00;-0.07;0.56;378.08;138.34;8.00;1.08;-89.71;-72.39;-1.40 
9.158;-0.99;0.02;-0.36;-0.42;0.56;0.21;379.08;142.16;8.00;1.05;-89.74;-72.43;-1.39 
9.188;-1.03;0.05;-0.33;0.07;-0.77;-0.21;384.04;140.25;10.00;1.08;-89.75;-72.44;-1.37 
9.217;-1.02;0.02;-0.35;-0.14;0.77;0.21;382.05;140.25;11.00;1.08;-89.76;-72.51;-1.36 
9.247;-0.99;0.02;-0.34;-0.14;1.04;-0.21;378.08;141.20;9.00;1.05;-89.79;-72.50;-1.33 
9.277;-1.02;0.03;-0.34;0.07;0.77;0.00;379.08;140.25;6.00;1.08;-89.81;-72.53;-1.32 
9.308;-1.02;0.03;-0.34;-0.21;1.39;-0.14;379.08;139.30;6.00;1.08;-89.82;-72.52;-1.31 
9.338;-0.99;0.03;-0.31;0.07;0.49;0.14;381.06;138.34;5.00;1.04;-89.84;-72.52;-1.29 
9.368;-1.00;0.03;-0.33;-0.42;0.56;-0.14;380.07;138.34;7.00;1.05;-89.88;-72.55;-1.25 
9.398;-1.00;0.03;-0.35;-0.14;0.49;0.63;382.05;141.20;8.00;1.06;-89.90;-72.55;-1.24 
9.428;-1.00;0.02;-0.34;-0.28;0.35;0.35;381.06;142.16;6.00;1.06;-89.91;-72.57;-1.22 
9.458;-1.01;0.03;-0.38;-0.14;1.11;0.21;382.05;137.39;8.00;1.08;-89.94;-72.59;-1.20 
9.488;-0.99;0.03;-0.34;-0.35;0.90;0.35;381.06;140.25;6.00;1.05;-89.96;-72.59;-1.18 
9.517;-1.01;0.05;-0.36;-0.63;1.74;0.00;383.05;139.30;9.00;1.07;-89.99;-72.60;-1.15 
9.547;-1.02;0.05;-0.37;-0.21;0.97;0.28;382.05;141.20;8.00;1.09;-90.00;-72.59;-1.14 
9.577;-1.02;0.02;-0.37;-0.21;0.77;0.00;380.07;140.25;5.00;1.09;-90.00;-72.60;-1.14 
9.608;-1.00;0.02;-0.33;-0.42;0.90;0.07;380.07;140.25;9.00;1.05;-90.01;-72.62;-1.13 
9.637;-1.01;0.02;-0.38;0.00;0.77;-0.07;377.09;139.30;6.00;1.08;-90.01;-72.59;-1.13 
9.667;-1.02;0.03;-0.30;0.00;0.35;-0.14;378.08;140.25;6.00;1.06;-90.03;-72.59;-1.11 
9.697;-1.02;0.01;-0.34;-0.21;0.70;-0.70;378.08;142.16;5.00;1.08;-90.03;-72.60;-1.11 
9.727;-0.98;0.03;-0.34;-0.07;0.35;0.28;381.06;141.20;10.00;1.04;-90.03;-72.62;-1.11 
9.757;-1.00;0.03;-0.34;-0.28;0.77;0.70;383.05;141.20;9.00;1.06;-90.07;-72.63;-1.07 
9.786;-0.99;0.04;-0.36;-0.35;-0.14;0.07;379.08;140.25;8.00;1.05;-90.11;-72.65;-1.03 
9.816;-1.00;0.02;-0.33;-0.14;0.35;0.21;383.05;140.25;10.00;1.05;-90.13;-72.67;-1.01 
9.846;-1.02;0.03;-0.34;-0.28;1.18;0.00;382.05;139.30;11.00;1.08;-90.15;-72.67;-0.99 
9.876;-1.02;0.03;-0.35;-0.07;1.04;0.21;381.06;140.25;12.00;1.08;-90.17;-72.66;-0.96 
9.907;-1.01;0.04;-0.37;-0.28;0.63;0.56;380.07;139.30;7.00;1.08;-90.21;-72.66;-0.93 
9.937;-1.02;0.05;-0.35;0.07;0.28;0.07;380.07;141.20;13.00;1.08;-90.21;-72.67;-0.93 
9.967;-1.02;0.04;-0.37;0.00;0.63;0.28;375.11;139.30;6.00;1.09;-90.22;-72.67;-0.92 
9.997;-1.02;0.06;-0.35;0.42;-0.56;-0.14;383.05;138.34;8.00;1.08;-90.22;-72.69;-0.92 
10.027;-1.03;0.05;-0.36;0.28;-1.25;-0.83;380.07;142.16;8.00;1.09;-90.22;-72.72;-0.92 
10.057;-1.06;0.05;-0.36;0.21;-2.23;-1.04;383.05;142.16;9.00;1.12;-90.22;-72.80;-0.92 
10.087;-1.06;0.07;-0.34;1.25;-3.97;-2.78;382.05;141.20;12.00;1.12;-90.19;-72.89;-0.94 
10.118;-1.02;0.02;-0.37;0.90;-8.63;-2.43;381.06;140.25;10.00;1.09;-90.11;-73.07;-1.02 
10.147;-1.02;0.05;-0.37;0.49;-6.33;-0.70;377.09;140.25;4.00;1.09;-90.08;-73.33;-1.04 
10.177;-1.02;0.05;-0.41;-0.90;-13.36;-2.50;380.07;143.11;9.00;1.10;-90.05;-73.55;-1.05 
