Time(s) acc_x(g) acc_y(g) acc_z(g) gyr_x(°/s) gyr_y(°/s) gyr_z(°/s) mag_x(G) mag_y(G) mag_z(G) SVM(g) yaw(°) pitch(°) roll(°)
0.000;-0.03;-0.04;0.91;-4.52;-2.85;-1.25;313.41;-211.33;-374.00;0.91;-138.62;-0.29;6.39 
0.029;-0.05;-0.05;0.91;-3.97;0.77;-1.74;319.38;-209.41;-371.00;0.91;-138.48;-0.22;6.33 
0.059;-0.08;-0.02;0.96;-5.43;10.02;1.81;314.40;-208.46;-370.00;0.96;-138.39;-0.31;6.24 
0.089;-0.01;-0.04;0.92;-5.08;19.90;6.61;311.42;-203.68;-373.00;0.92;-138.43;-0.72;6.15 
0.120;-0.05;-0.07;0.82;-2.71;16.97;13.22;311.42;-200.81;-373.00;0.82;-138.65;-1.26;6.07 
0.150;-0.02;-0.10;0.75;3.20;9.04;21.63;313.41;-199.85;-373.00;0.76;-139.12;-1.54;6.11 
0.180;-0.02;-0.05;0.77;9.74;3.06;28.03;318.38;-201.76;-370.00;0.77;-139.78;-1.57;6.35 
0.211;-0.05;0.00;0.86;14.68;1.53;29.77;324.35;-202.72;-368.00;0.86;-140.59;-1.50;6.84 
0.240;-0.11;0.05;0.90;17.88;0.28;30.82;328.33;-209.41;-372.00;0.91;-141.45;-1.42;7.51 
0.269;-0.15;0.22;1.00;9.11;-6.40;27.06;335.30;-209.41;-368.00;1.03;-142.27;-1.28;8.20 
0.298;-0.06;0.07;1.02;2.85;1.95;13.63;335.30;-212.28;-366.00;1.02;-142.78;-1.07;8.58 
0.327;-0.04;0.02;0.77;5.98;10.30;11.34;339.28;-214.20;-366.00;0.77;-143.05;-1.20;8.87 
0.357;-0.05;-0.01;0.71;6.54;-0.14;15.44;340.27;-215.15;-367.00;0.71;-143.37;-1.29;9.26 
0.387;-0.13;0.04;0.79;6.82;-13.91;15.03;343.26;-216.11;-363.00;0.80;-143.70;-1.02;9.58 
0.418;-0.15;0.13;1.02;5.01;-11.20;14.05;347.24;-218.98;-366.00;1.04;-144.05;-0.58;9.94 
0.448;-0.18;0.17;1.14;3.41;4.80;5.57;345.25;-221.85;-363.00;1.17;-144.26;-0.46;10.28 
0.478;-0.16;0.11;1.08;1.11;21.43;-0.28;348.23;-223.76;-366.00;1.10;-144.25;-0.89;10.53 
0.509;-0.12;0.00;0.82;0.07;19.76;4.52;351.22;-217.06;-366.00;0.83;-144.21;-1.64;10.63 
0.539;-0.10;0.01;0.76;-0.77;4.17;11.97;344.25;-215.15;-363.00;0.77;-144.38;-1.94;10.83 
0.569;-0.13;0.06;0.77;-1.25;-4.38;13.08;348.23;-215.15;-364.00;0.78;-144.64;-1.89;10.94 
0.599;-0.14;0.16;0.81;0.28;-4.59;9.81;350.22;-218.02;-362.00;0.84;-144.88;-1.76;11.09 
0.629;-0.14;0.14;0.85;2.57;-4.45;2.16;349.23;-220.89;-359.00;0.87;-144.95;-1.67;11.35 
0.659;-0.17;0.13;0.86;2.23;-3.62;-2.78;351.22;-222.80;-364.00;0.89;-144.84;-1.64;11.62 
0.689;-0.16;0.09;0.88;0.97;-0.90;-6.47;349.23;-219.93;-361.00;0.90;-144.58;-1.69;11.83 
0.720;-0.14;0.08;0.83;0.07;0.21;-9.67;352.21;-220.89;-363.00;0.85;-144.22;-1.83;11.97 
0.750;-0.13;0.10;0.86;-0.21;-3.34;-11.20;348.23;-222.80;-359.00;0.88;-143.79;-1.91;12.06 
0.780;-0.06;0.08;0.86;-0.63;-5.84;-12.10;348.23;-219.93;-365.00;0.87;-143.33;-1.89;12.15 
0.810;-0.06;0.09;0.90;0.70;-5.63;-12.38;349.23;-217.06;-366.00;0.91;-142.85;-1.77;12.22 
0.840;-0.01;0.09;0.92;0.35;-3.13;-12.73;348.23;-218.98;-364.00;0.92;-142.36;-1.63;12.31 
0.870;-0.06;0.07;0.87;0.07;-1.32;-11.20;347.24;-217.06;-363.00;0.87;-141.91;-1.61;12.40 
0.900;-0.10;0.09;0.90;-1.18;3.20;-11.34;346.24;-218.02;-364.00;0.91;-141.49;-1.68;12.44 
0.931;-0.08;0.06;0.90;-1.46;8.00;-11.69;345.25;-216.11;-365.00;0.91;-141.04;-1.92;12.45 
0.961;-0.09;0.04;0.87;-2.85;8.63;-10.23;341.27;-215.15;-360.00;0.88;-140.62;-2.23;12.45 
0.991;-0.04;0.02;0.91;-3.97;8.49;-7.93;343.26;-209.41;-364.00;0.91;-140.27;-2.49;12.37 
1.022;-0.06;0.06;0.90;-4.31;10.43;-5.43;339.28;-207.50;-361.00;0.90;-140.00;-2.75;12.25 
1.052;-0.08;0.06;0.87;-4.38;11.62;-3.83;341.27;-206.55;-360.00;0.88;-139.79;-3.07;12.16 
1.082;-0.11;0.03;0.86;-4.59;12.52;-3.55;337.29;-198.90;-361.00;0.87;-139.61;-3.40;12.07 
1.112;-0.08;0.06;0.90;-4.94;14.96;-2.85;337.29;-200.81;-359.00;0.91;-139.44;-3.76;11.97 
1.143;-0.08;0.03;0.90;-5.15;16.97;-1.67;336.29;-196.98;-359.00;0.90;-139.31;-4.19;11.85 
1.173;-0.06;0.04;0.87;-5.57;17.81;-0.83;335.30;-195.07;-361.00;0.87;-139.22;-4.65;11.74 
1.203;-0.10;0.04;0.92;-5.84;16.77;-0.90;336.29;-189.33;-360.00;0.93;-139.13;-5.08;11.62 
1.234;-0.06;0.05;0.86;-5.57;18.23;-0.97;330.32;-186.46;-358.00;0.86;-139.03;-5.52;11.48 
1.263;-0.06;0.05;0.90;-5.84;20.87;-0.49;330.32;-185.51;-355.00;0.90;-138.95;-6.02;11.36 
1.292;-0.06;0.02;0.85;-6.26;21.98;0.28;330.32;-179.77;-359.00;0.85;-138.87;-6.54;11.21 
1.321;-0.07;0.01;0.92;-6.05;23.65;1.74;327.34;-176.90;-354.00;0.92;-138.83;-7.07;11.08 
1.351;-0.10;0.04;0.90;-5.98;27.69;3.13;333.31;-173.08;-351.00;0.91;-138.83;-7.72;10.95 
1.381;-0.11;0.06;0.86;-6.12;29.43;3.34;329.33;-166.38;-352.00;0.87;-138.85;-8.45;10.84 
1.410;-0.13;0.06;0.89;-6.12;27.13;1.95;328.33;-164.47;-348.00;0.90;-138.86;-9.13;10.75 
1.439;-0.14;0.06;0.90;-6.61;28.38;-1.53;328.33;-159.69;-347.00;0.91;-138.78;-9.87;10.64 
1.469;-0.17;0.02;0.88;-7.30;30.54;-3.62;326.34;-153.00;-343.00;0.90;-138.62;-10.65;10.52 
1.499;-0.18;0.01;0.83;-8.56;29.50;-3.06;323.36;-148.22;-341.00;0.85;-138.41;-11.50;10.33 
1.530;-0.19;0.03;0.82;-10.37;28.17;-2.78;322.36;-143.43;-337.00;0.84;-138.20;-12.35;10.09 
1.560;-0.21;0.05;0.80;-12.31;26.78;-4.87;321.37;-138.65;-337.00;0.83;-137.95;-13.18;9.79 
1.590;-0.22;0.06;0.79;-14.05;29.50;-9.39;317.39;-131.96;-337.00;0.82;-137.63;-13.98;9.43 
1.620;-0.22;0.06;0.73;-14.96;33.81;-15.65;310.42;-125.27;-330.00;0.76;-137.14;-14.94;9.01 
1.650;-0.22;0.04;0.70;-16.00;37.84;-21.15;306.44;-118.57;-330.00;0.73;-136.43;-16.07;8.50 
1.680;-0.18;0.08;0.62;-19.55;47.93;-25.95;304.45;-113.79;-324.00;0.65;-135.59;-17.34;7.91 
1.710;-0.15;0.14;0.40;-21.22;55.51;-33.67;295.50;-99.45;-319.00;0.45;-134.56;-18.97;7.23 
1.740;-0.10;0.09;0.23;-16.97;56.14;-41.39;288.54;-89.89;-309.00;0.27;-133.26;-20.69;6.58 
1.769;-0.04;0.06;0.05;-14.61;52.03;-43.48;278.59;-77.45;-305.00;0.09;-131.87;-22.35;6.14 
1.798;0.06;0.02;-0.07;-12.03;28.24;-39.72;272.62;-68.85;-299.00;0.09;-130.48;-23.68;5.55 
1.829;0.18;-0.02;0.00;-7.79;-25.04;-26.50;272.62;-65.98;-297.00;0.18;-129.39;-23.84;5.03 
1.858;0.00;-0.10;0.30;-3.48;-107.27;-5.84;263.66;-75.54;-305.00;0.32;-129.18;-21.43;4.55 
1.888;-0.38;0.17;1.23;-12.87;-161.18;2.16;262.67;-95.62;-321.00;1.30;-129.61;-17.10;4.29 
1.917;-0.16;0.24;2.03;-5.84;-43.62;-25.88;262.67;-116.66;-335.00;2.05;-129.78;-13.45;4.09 
1.947;0.11;-0.07;1.50;-6.26;66.78;-35.90;257.69;-112.84;-332.00;1.51;-128.68;-13.79;3.96 
1.977;-0.20;-0.18;0.82;-36.52;95.10;-25.67;254.71;-100.40;-324.00;0.86;-127.50;-16.06;3.00 
2.006;0.02;-0.03;0.62;-43.55;76.52;-18.43;243.76;-81.28;-309.00;0.62;-126.58;-18.56;1.59 
2.035;-0.25;-0.23;0.97;-36.45;61.01;-3.62;235.80;-69.80;-303.00;1.03;-126.02;-20.22;0.34 
2.064;-3.70;-1.30;3.26;80.83;22.68;185.95;236.80;-60.24;-298.00;5.10;-126.37;-21.42;-0.23 
2.094;-0.10;-1.19;4.18;286.68;393.11;65.95;286.55;-51.64;-264.00;4.35;-126.34;-28.73;6.31 
2.125;0.83;0.84;1.82;-263.30;503.17;-9.11;310.42;-20.08;-200.00;2.17;-124.70;-40.66;6.58 
2.155;1.28;0.94;0.72;-305.18;456.21;-89.32;271.62;28.69;-107.00;1.74;-119.57;-54.59;-0.65 
2.185;1.27;0.71;0.07;-49.53;550.05;-2.99;257.69;43.03;-32.00;1.46;-109.25;-68.49;-3.96 
2.205;-0.86;-0.06;0.00;-81.53;-237.01;0.35;295.50;49.72;19.00;0.86;-84.02;-67.75;-17.05 
2.235;-1.22;-0.14;0.00;-90.71;-325.01;6.33;294.51;47.81;-31.00;1.23;-79.04;-71.98;-16.27 
2.264;-0.79;-0.56;0.20;-39.72;-282.57;57.25;296.49;42.07;-97.00;0.99;-74.01;-74.45;-15.50 
2.294;-0.86;0.13;0.25;10.30;-142.40;37.50;311.42;13.39;-164.00;0.90;-72.57;-74.28;-13.26 
2.324;-0.82;0.06;0.12;40.07;-70.12;10.43;317.39;5.74;-182.00;0.83;-72.42;-73.28;-11.55 
2.355;-0.63;-0.04;0.51;97.32;-12.03;-21.57;317.39;1.91;-185.00;0.81;-72.05;-72.45;-10.59 
2.385;-1.08;-0.27;0.86;52.31;47.37;-37.29;325.35;2.87;-176.00;1.41;-71.55;-72.54;-10.35 
2.415;-0.88;-0.08;0.47;49.11;83.62;-25.25;320.37;16.26;-155.00;1.00;-71.73;-73.45;-10.53 
2.445;-1.01;-0.18;0.20;2.43;61.15;-11.48;318.38;21.04;-144.00;1.05;-72.68;-74.80;-10.62 
2.475;-0.86;-0.28;0.04;-2.23;26.16;0.21;316.39;21.04;-131.00;0.91;-73.77;-75.87;-10.51 
2.504;-1.06;-0.11;0.06;0.77;-3.97;4.38;315.40;26.77;-133.00;1.07;-74.65;-76.56;-10.11 
2.533;-1.02;-0.18;0.30;6.96;0.90;9.53;320.37;22.95;-132.00;1.08;-75.07;-76.78;-9.69 
2.563;-0.94;-0.12;0.20;9.32;0.00;12.10;320.37;20.08;-131.00;0.97;-75.69;-77.16;-9.09 
2.593;-0.99;0.00;0.18;-1.46;-13.84;-0.63;322.36;21.99;-131.00;1.01;-76.27;-77.46;-8.56 
2.622;-0.90;-0.07;0.44;-5.08;-20.52;-21.91;321.37;23.91;-133.00;1.00;-76.30;-77.15;-8.31 
2.652;-1.10;-0.21;0.22;-5.22;15.93;-18.78;315.40;21.99;-135.00;1.14;-76.04;-76.90;-8.69 
2.681;-0.72;-0.20;0.03;0.56;8.42;-15.03;312.41;26.77;-138.00;0.75;-75.95;-76.87;-9.08 
2.710;-0.92;-0.08;0.21;-1.81;-7.86;7.65;309.43;24.86;-135.00;0.95;-76.21;-76.94;-8.90 
2.741;-0.92;-0.17;0.31;-0.42;1.46;-6.96;310.42;27.73;-137.00;0.99;-76.51;-76.98;-8.61 
2.771;-0.96;-0.15;0.20;-0.77;1.74;-1.53;310.42;24.86;-135.00;0.99;-76.89;-77.18;-8.39 
2.801;-0.95;-0.15;0.23;-0.83;-0.63;-1.74;309.43;26.77;-135.00;0.99;-77.26;-77.34;-8.13 
2.831;-0.97;-0.19;0.26;-0.49;-0.07;-0.77;308.43;27.73;-135.00;1.02;-77.62;-77.49;-7.88 
2.861;-0.96;-0.14;0.24;-0.21;-0.35;-1.18;306.44;25.82;-133.00;1.00;-78.04;-77.68;-7.57 
2.891;-0.93;-0.17;0.23;-0.28;-0.63;0.28;309.43;24.86;-135.00;0.97;-78.40;-77.82;-7.30 
2.920;-0.94;-0.16;0.26;-0.35;0.90;-0.14;310.42;26.77;-137.00;0.99;-78.78;-77.96;-7.00 
2.951;-0.92;-0.13;0.24;-0.63;0.63;-0.35;310.42;23.91;-133.00;0.96;-79.19;-78.13;-6.72 
2.981;-0.95;-0.14;0.21;-0.35;0.42;-1.25;311.42;26.77;-134.00;0.98;-79.60;-78.30;-6.42 
3.011;-0.94;-0.18;0.24;-0.14;-0.21;-0.63;311.42;25.82;-135.00;0.99;-79.95;-78.42;-6.16 
3.042;-0.95;-0.15;0.21;0.14;0.49;-0.77;307.44;23.91;-135.00;0.98;-80.29;-78.53;-5.92 
3.071;-0.94;-0.16;0.22;0.21;-0.07;-0.49;308.43;27.73;-137.00;0.98;-80.65;-78.63;-5.65 
3.101;-0.94;-0.13;0.23;0.07;0.21;-0.28;307.44;22.95;-135.00;0.98;-80.98;-78.71;-5.41 
3.131;-0.92;-0.18;0.26;0.07;0.70;0.35;307.44;25.82;-136.00;0.97;-81.31;-78.79;-5.16 
3.161;-0.93;-0.15;0.23;-0.35;0.21;0.14;310.42;25.82;-134.00;0.97;-81.68;-78.88;-4.89 
3.190;-0.94;-0.16;0.29;-0.07;1.04;-0.14;307.44;25.82;-136.00;1.00;-82.04;-78.99;-4.62 
3.220;-0.95;-0.16;0.22;-0.14;0.83;-0.14;306.44;23.91;-134.00;0.99;-82.40;-79.07;-4.36 
3.251;-0.95;-0.14;0.21;-0.14;0.28;-0.56;307.44;26.77;-133.00;0.98;-82.74;-79.13;-4.10 
3.281;-0.94;-0.16;0.20;-0.28;0.77;-0.07;307.44;25.82;-137.00;0.97;-83.08;-79.18;-3.86 
3.311;-0.95;-0.15;0.19;-0.14;0.35;-0.42;305.45;27.73;-132.00;0.98;-83.40;-79.24;-3.62 
3.341;-0.95;-0.17;0.20;-0.35;0.07;0.00;306.44;25.82;-139.00;0.99;-83.71;-79.28;-3.41 
3.370;-0.94;-0.16;0.25;-0.14;0.35;-0.28;309.43;26.77;-137.00;0.99;-84.01;-79.30;-3.19 
3.400;-0.94;-0.16;0.22;-0.42;0.21;0.56;306.44;26.77;-138.00;0.98;-84.32;-79.32;-2.97 
3.430;-0.94;-0.16;0.23;-0.21;-0.56;0.70;306.44;26.77;-132.00;0.98;-84.64;-79.33;-2.73 
3.460;-0.94;-0.14;0.26;-0.28;-0.49;0.83;308.43;25.82;-135.00;0.99;-84.96;-79.32;-2.50 
3.490;-0.94;-0.18;0.25;-0.42;0.00;0.56;305.45;25.82;-134.00;0.99;-85.27;-79.33;-2.27 
3.519;-0.95;-0.16;0.23;-0.28;-0.49;0.00;308.43;27.73;-136.00;0.99;-85.56;-79.32;-2.06 
3.550;-0.96;-0.17;0.23;-0.21;-0.63;-0.07;309.43;25.82;-135.00;1.00;-85.85;-79.28;-1.85 
3.580;-0.95;-0.15;0.24;-0.07;0.14;0.07;308.43;25.82;-137.00;0.99;-86.15;-79.21;-1.64 
3.610;-0.94;-0.14;0.26;-0.28;-0.49;0.14;310.42;21.99;-137.00;0.99;-86.44;-79.17;-1.42 
3.640;-0.95;-0.15;0.25;-0.28;0.07;-0.35;310.42;27.73;-135.00;0.99;-86.73;-79.14;-1.22 
3.670;-0.95;-0.16;0.26;-0.21;-0.35;-1.04;309.43;23.91;-135.00;1.00;-87.01;-79.10;-1.03 
3.699;-0.93;-0.15;0.22;-0.14;0.07;0.21;306.44;24.86;-136.00;0.97;-87.24;-79.04;-0.88 
3.729;-0.95;-0.14;0.26;-0.63;1.39;-0.28;308.43;27.73;-135.00;0.99;-87.51;-78.99;-0.69 
3.759;-0.94;-0.16;0.22;-0.42;0.14;-0.07;310.42;23.91;-137.00;0.98;-87.78;-78.94;-0.51 
3.789;-0.94;-0.18;0.23;-0.35;0.77;-0.70;306.44;24.86;-137.00;0.98;-88.02;-78.90;-0.35 
3.819;-0.94;-0.14;0.23;-0.49;1.11;-1.04;307.44;25.82;-137.00;0.98;-88.26;-78.87;-0.21 
3.850;-0.94;-0.16;0.19;-0.56;1.11;-1.11;305.45;25.82;-140.00;0.97;-88.46;-78.81;-0.09 
3.879;-0.95;-0.15;0.23;-0.14;0.97;-1.04;308.43;24.86;-138.00;0.99;-88.72;-78.77;0.07 
3.908;-0.96;-0.14;0.21;-0.70;0.42;-1.18;308.43;25.82;-137.00;0.99;-88.94;-78.73;0.20 
3.938;-0.94;-0.17;0.25;-1.18;-0.21;-0.97;307.44;23.91;-136.00;0.99;-89.13;-78.65;0.31 
3.968;-0.94;-0.14;0.22;-1.04;-0.70;-2.02;306.44;29.64;-135.00;0.98;-89.33;-78.61;0.41 
3.998;-0.91;-0.18;0.26;-1.39;-1.11;-1.74;305.45;26.77;-136.00;0.96;-89.49;-78.51;0.49 
4.028;-0.94;-0.18;0.24;-1.04;0.42;-2.09;305.45;26.77;-135.00;0.99;-89.66;-78.42;0.57 
4.059;-0.95;-0.16;0.21;-0.90;0.14;-1.11;306.44;27.73;-135.00;0.99;-89.85;-78.37;0.67 
4.088;-0.94;-0.16;0.22;-1.04;0.70;-1.04;304.45;25.82;-136.00;0.98;-90.04;-78.29;0.76 
4.118;-0.94;-0.19;0.21;-1.04;0.49;-1.18;304.45;28.69;-141.00;0.98;-90.22;-78.23;0.85 
4.149;-0.94;-0.19;0.26;-0.63;0.70;-0.56;303.46;26.77;-137.00;0.99;-90.41;-78.17;0.95 
4.179;-0.92;-0.18;0.26;-0.63;2.02;0.21;305.45;26.77;-139.00;0.97;-90.63;-78.12;1.07 
4.209;-0.95;-0.18;0.23;-0.14;1.81;0.63;306.44;27.73;-135.00;0.99;-90.86;-78.10;1.21 
4.239;-0.95;-0.19;0.23;0.49;1.39;0.90;307.44;28.69;-136.00;1.00;-91.09;-78.07;1.36 
4.269;-0.97;-0.18;0.22;0.90;2.16;1.60;304.45;25.82;-135.00;1.01;-91.33;-78.03;1.51 
4.298;-0.96;-0.17;0.18;0.97;1.18;1.88;306.44;28.69;-136.00;0.99;-91.56;-78.01;1.66 
4.328;-0.94;-0.17;0.22;1.25;0.70;1.60;307.44;26.77;-136.00;0.98;-91.81;-77.97;1.83 
4.359;-0.95;-0.22;0.19;1.25;0.63;1.39;306.44;26.77;-135.00;0.99;-92.06;-77.88;1.99 
4.389;-0.94;-0.14;0.23;0.83;1.25;2.23;308.43;25.82;-134.00;0.98;-92.31;-77.82;2.17 
4.419;-0.94;-0.14;0.24;0.42;1.25;1.53;307.44;25.82;-133.00;0.98;-92.58;-77.77;2.36 
4.450;-0.95;-0.14;0.24;-0.49;1.39;1.18;309.43;27.73;-134.00;0.99;-92.82;-77.72;2.51 
4.479;-0.96;-0.14;0.22;-0.63;1.25;0.49;309.43;24.86;-139.00;0.99;-93.05;-77.66;2.66 
4.509;-0.93;-0.15;0.24;-0.83;1.32;-0.14;312.41;26.77;-134.00;0.97;-93.27;-77.62;2.79 
4.539;-0.94;-0.14;0.24;-1.04;2.02;-0.28;307.44;25.82;-137.00;0.98;-93.46;-77.56;2.89 
4.569;-0.95;-0.17;0.24;-0.70;1.60;-0.97;311.42;24.86;-137.00;0.99;-93.60;-77.54;2.94 
4.599;-0.95;-0.16;0.27;-0.28;1.11;0.14;309.43;28.69;-133.00;1.00;-93.78;-77.49;3.04 
4.629;-0.94;-0.19;0.24;0.14;1.32;0.00;308.43;26.77;-135.00;0.99;-93.93;-77.47;3.11 
4.660;-0.94;-0.16;0.24;0.21;0.97;0.56;308.43;27.73;-133.00;0.98;-94.09;-77.43;3.19 
4.690;-0.94;-0.20;0.22;0.35;1.46;1.74;305.45;26.77;-134.00;0.99;-94.26;-77.37;3.28 
4.720;-0.94;-0.16;0.26;0.56;1.46;4.73;307.44;24.86;-132.00;0.99;-94.47;-77.31;3.41 
4.750;-0.95;-0.11;0.24;-0.90;0.83;2.02;307.44;24.86;-136.00;0.99;-94.76;-77.23;3.62 
4.780;-0.98;-0.12;0.22;-1.46;0.00;0.07;309.43;26.77;-133.00;1.01;-95.01;-77.15;3.78 
4.810;-0.97;-0.11;0.22;-0.77;1.32;-0.07;310.42;29.64;-133.00;1.00;-95.20;-77.07;3.88 
4.840;-0.98;-0.15;0.22;-0.35;0.97;-0.70;305.45;22.95;-132.00;1.02;-95.33;-77.04;3.93 
4.871;-0.94;-0.14;0.22;-0.21;0.70;-0.56;310.42;27.73;-131.00;0.98;-95.48;-76.98;4.00 
4.901;-0.94;-0.15;0.20;-0.42;1.60;-1.11;311.42;28.69;-132.00;0.97;-95.61;-76.95;4.05 
4.930;-0.96;-0.18;0.20;-0.35;1.25;-0.28;309.43;27.73;-133.00;1.00;-95.73;-76.93;4.10 
4.961;-0.94;-0.18;0.21;-0.21;0.56;1.04;307.44;26.77;-130.00;0.98;-95.86;-76.93;4.15 
4.991;-0.96;-0.15;0.22;-0.07;0.35;1.11;308.43;26.77;-129.00;1.00;-96.02;-76.87;4.23 
5.021;-0.96;-0.14;0.22;0.35;-0.07;0.97;307.44;26.77;-132.00;0.99;-96.19;-76.81;4.33 
5.051;-0.96;-0.17;0.23;0.63;0.77;0.90;310.42;25.82;-131.00;1.00;-96.34;-76.76;4.41 
5.080;-0.93;-0.18;0.23;0.56;0.97;1.11;310.42;26.77;-133.00;0.97;-96.50;-76.74;4.49 
5.110;-0.93;-0.16;0.21;0.14;0.83;1.32;309.43;25.82;-131.00;0.97;-96.66;-76.68;4.59 
5.140;-0.95;-0.11;0.22;0.42;0.56;1.53;309.43;24.86;-132.00;0.98;-96.83;-76.62;4.69 
5.171;-0.94;-0.15;0.18;0.56;0.35;0.77;311.42;23.91;-131.00;0.97;-97.02;-76.56;4.80 
5.201;-0.94;-0.15;0.23;0.42;0.70;0.70;311.42;26.77;-133.00;0.98;-97.18;-76.49;4.88 
5.231;-0.95;-0.13;0.19;0.42;0.42;0.42;309.43;26.77;-132.00;0.98;-97.32;-76.44;4.96 
5.261;-0.93;-0.16;0.25;-0.21;0.35;0.07;309.43;26.77;-129.00;0.98;-97.44;-76.39;5.01 
5.291;-0.94;-0.16;0.23;-0.07;0.42;-0.14;314.40;26.77;-130.00;0.98;-97.56;-76.35;5.05 
5.321;-0.95;-0.16;0.23;-0.14;0.00;-0.49;313.41;26.77;-132.00;0.99;-97.66;-76.31;5.07 
5.351;-0.98;-0.14;0.22;-0.07;1.32;0.49;309.43;27.73;-129.00;1.01;-97.77;-76.27;5.12 
5.382;-0.94;-0.14;0.21;0.07;1.18;1.11;311.42;26.77;-131.00;0.97;-97.89;-76.25;5.16 
5.412;-0.94;-0.14;0.20;-0.07;0.90;1.11;313.41;24.86;-132.00;0.97;-98.04;-76.21;5.25 
5.442;-0.95;-0.14;0.23;0.14;0.42;0.77;311.42;25.82;-130.00;0.99;-98.17;-76.18;5.30 
5.473;-0.95;-0.14;0.23;0.07;0.63;1.32;311.42;25.82;-132.00;0.99;-98.29;-76.16;5.36 
5.503;-0.95;-0.14;0.21;0.00;0.42;0.97;315.40;27.73;-129.00;0.98;-98.42;-76.12;5.43 
5.533;-0.97;-0.14;0.24;-0.56;-0.14;0.63;311.42;27.73;-130.00;1.01;-98.57;-76.07;5.51 
5.562;-0.96;-0.15;0.21;-0.21;-0.49;0.07;313.41;25.82;-131.00;0.99;-98.69;-76.03;5.56 
5.592;-0.96;-0.14;0.20;-0.21;-0.63;-0.35;314.40;24.86;-131.00;0.99;-98.80;-75.97;5.60 
5.622;-0.97;-0.14;0.23;-0.07;-0.14;-0.42;312.41;26.77;-128.00;1.01;-98.91;-75.92;5.63 
5.652;-0.96;-0.14;0.25;-0.70;-0.70;-1.04;311.42;26.77;-128.00;1.00;-98.98;-75.89;5.63 
5.683;-0.98;-0.13;0.21;-0.28;-0.49;-2.02;314.40;28.69;-131.00;1.01;-99.04;-75.86;5.62 
5.713;-0.99;-0.12;0.18;-0.14;-1.74;-3.20;312.41;24.86;-133.00;1.01;-99.07;-75.85;5.58 
5.742;-0.97;-0.17;0.22;0.70;-3.13;-5.98;313.41;25.82;-129.00;1.01;-99.06;-75.82;5.50 
5.773;-1.00;-0.16;0.18;1.32;-3.27;-3.83;309.43;26.77;-135.00;1.03;-98.98;-75.80;5.35 
5.803;-1.02;-0.14;0.17;1.18;-7.10;-5.08;313.41;25.82;-131.00;1.04;-98.95;-75.76;5.25 
5.833;-1.02;-0.14;0.15;0.42;-14.26;-8.35;307.44;23.91;-133.00;1.04;-98.93;-75.55;5.11 
5.863;-1.00;-0.15;0.23;0.83;-16.28;-12.31;304.45;28.69;-138.00;1.04;-98.81;-75.24;4.84 
5.894;-1.03;-0.10;0.18;1.53;-20.52;-14.26;301.47;24.86;-138.00;1.05;-98.66;-74.87;4.51 
5.924;-1.05;-0.14;0.24;4.10;-26.85;-18.23;300.47;28.69;-148.00;1.09;-98.46;-74.34;4.09 
5.954;-1.04;-0.22;0.27;8.42;-29.29;-16.63;295.50;24.86;-150.00;1.10;-98.24;-73.67;3.64 
