Time(s) acc_x(g) acc_y(g) acc_z(g) gyr_x(°/s) gyr_y(°/s) gyr_z(°/s) mag_x(G) mag_y(G) mag_z(G) SVM(g) yaw(°) pitch(°) roll(°)
0.000;-0.37;0.05;0.65;-29.01;-13.70;62.19;284.13;80.23;-325.00;0.75;-80.36;-22.84;-4.54 
0.030;-0.45;0.00;0.70;-31.65;1.81;59.76;292.05;75.45;-328.00;0.83;-82.40;-22.65;-4.56 
0.060;-0.38;-0.13;0.76;-25.04;-8.77;65.95;296.01;72.59;-332.00;0.86;-84.39;-22.67;-4.64 
0.090;-0.35;0.00;0.88;-10.43;-29.63;85.36;304.93;59.21;-340.00;0.95;-86.93;-22.01;-4.30 
0.120;-0.18;0.23;0.89;-8.42;-14.05;68.17;311.86;49.66;-343.00;0.94;-89.53;-21.14;-3.53 
0.149;-0.13;0.25;0.76;-12.38;-16.42;52.73;315.82;46.80;-344.00;0.81;-91.61;-20.52;-2.88 
0.180;-0.21;0.16;0.80;-16.21;-31.51;41.04;320.77;36.29;-348.00;0.84;-93.29;-19.52;-2.53 
0.210;-0.25;0.05;0.93;-15.86;-22.96;35.90;324.73;27.70;-358.00;0.96;-94.74;-18.39;-2.47 
0.240;-0.22;-0.06;0.95;-20.73;-5.77;35.27;324.73;19.10;-362.00;0.98;-95.97;-17.72;-2.62 
0.270;-0.14;0.04;0.94;-22.61;-8.77;31.86;323.74;13.37;-359.00;0.95;-97.14;-17.37;-2.94 
0.300;-0.18;0.05;0.90;-18.64;-10.99;24.97;325.72;10.51;-366.00;0.92;-98.21;-16.79;-3.19 
0.330;-0.17;-0.09;1.00;-16.83;0.21;22.61;322.75;5.73;-365.00;1.02;-99.08;-16.34;-3.44 
0.360;-0.10;-0.16;0.91;-18.16;12.87;31.58;322.75;6.69;-369.00;0.93;-99.93;-16.25;-3.78 
0.391;-0.11;-0.13;0.81;-20.52;9.04;41.18;321.76;4.78;-373.00;0.83;-101.12;-16.38;-4.11 
0.421;-0.16;0.00;0.86;-20.24;-3.69;41.60;324.73;-0.96;-372.00;0.87;-102.54;-16.29;-4.35 
0.451;-0.15;0.03;0.98;-17.25;-2.23;38.33;323.74;-3.82;-374.00;0.99;-103.90;-16.01;-4.47 
0.482;-0.18;0.01;0.98;-14.26;14.75;32.56;327.70;-11.46;-377.00;1.00;-105.13;-15.98;-4.54 
0.512;-0.18;0.00;0.86;-12.31;29.43;29.77;324.73;-8.60;-376.00;0.88;-106.09;-16.58;-4.65 
0.542;-0.26;0.00;0.80;-9.25;24.77;28.45;326.71;-6.69;-378.00;0.84;-106.93;-17.32;-4.70 
0.572;-0.26;0.01;0.79;-7.58;13.84;28.45;330.67;-3.82;-374.00;0.83;-107.77;-17.85;-4.65 
0.602;-0.26;0.10;0.83;-8.56;2.92;24.35;329.68;-5.73;-376.00;0.88;-108.68;-18.03;-4.50 
0.632;-0.26;0.14;0.90;-8.21;1.53;12.94;329.68;-5.73;-377.00;0.95;-109.39;-17.96;-4.35 
0.662;-0.24;0.10;0.93;-5.22;11.76;0.97;332.65;-8.60;-375.00;0.97;-109.71;-17.97;-4.27 
0.693;-0.23;0.02;0.90;-0.77;22.19;-6.96;330.67;-3.82;-374.00;0.93;-109.65;-18.29;-4.24 
0.723;-0.27;-0.04;0.80;4.52;23.93;-8.83;329.68;0.00;-371.00;0.85;-109.35;-18.84;-4.18 
0.753;-0.26;-0.06;0.77;4.17;13.29;-7.37;332.65;3.82;-367.00;0.81;-109.06;-19.30;-4.10 
0.783;-0.31;-0.03;0.75;3.69;-2.64;-5.84;327.70;3.82;-368.00;0.81;-108.88;-19.35;-4.03 
0.812;-0.30;0.00;0.86;4.59;-7.23;-5.91;330.67;7.64;-368.00;0.91;-108.82;-19.03;-3.91 
0.841;-0.36;-0.02;0.84;4.31;-1.11;-6.54;333.64;4.78;-367.00;0.91;-108.72;-18.77;-3.80 
0.871;-0.46;-0.04;0.81;0.83;-0.42;-4.87;329.68;8.60;-369.00;0.93;-108.60;-18.74;-3.72 
0.901;-0.49;-0.06;0.77;-2.85;-4.94;-0.42;329.68;5.73;-367.00;0.91;-108.56;-18.72;-3.75 
0.931;-0.51;-0.10;0.78;-6.33;-9.88;7.23;328.69;3.82;-368.00;0.94;-108.71;-18.57;-3.86 
0.961;-0.46;-0.10;0.82;-8.49;-12.17;14.96;331.66;3.82;-370.00;0.95;-109.12;-18.34;-3.98 
0.992;-0.43;-0.06;0.92;-6.96;-7.58;20.94;329.68;-0.96;-375.00;1.02;-109.79;-18.04;-4.08 
1.021;-0.38;-0.02;0.92;-3.69;7.30;23.17;330.67;-6.69;-375.00;1.00;-110.53;-18.05;-3.97 
1.050;-0.38;0.07;0.87;-3.90;16.21;22.68;334.63;-7.64;-375.00;0.95;-111.22;-18.37;-3.74 
1.080;-0.34;0.14;0.85;-5.29;18.50;19.41;333.64;-1.91;-373.00;0.93;-111.84;-18.87;-3.49 
1.110;-0.34;0.18;0.82;-5.50;14.75;14.75;337.60;-2.87;-370.00;0.91;-112.39;-19.38;-3.25 
1.140;-0.32;0.17;0.84;-3.48;12.31;7.03;339.58;-2.87;-372.00;0.91;-112.77;-19.73;-3.03 
1.170;-0.32;0.15;0.86;-2.23;16.97;0.21;333.64;-1.91;-367.00;0.93;-112.91;-20.04;-2.85 
1.201;-0.40;0.10;0.86;-1.25;20.03;-3.55;335.62;0.96;-368.00;0.95;-112.88;-20.52;-2.76 
1.231;-0.35;-0.04;0.86;-1.95;22.68;0.70;335.62;4.78;-369.00;0.93;-112.76;-21.05;-2.75 
1.261;-0.34;0.00;0.77;-6.47;26.64;1.67;337.60;10.51;-364.00;0.84;-112.72;-21.73;-2.78 
1.292;-0.37;0.08;0.72;-7.03;15.03;0.28;335.62;12.42;-361.00;0.81;-112.70;-22.36;-2.83 
1.322;-0.41;0.09;0.86;-2.57;9.53;-3.13;335.62;16.24;-360.00;0.96;-112.69;-22.68;-2.81 
1.352;-0.42;0.01;0.93;0.00;17.81;-1.81;335.62;18.15;-359.00;1.02;-112.61;-22.93;-2.74 
1.381;-0.40;0.02;0.83;-3.27;32.83;-3.06;334.63;20.06;-355.00;0.92;-112.47;-23.61;-2.69 
1.411;-0.43;-0.04;0.77;-5.57;28.24;-2.71;330.67;27.70;-357.00;0.88;-112.23;-24.47;-2.80 
1.441;-0.48;-0.02;0.78;-6.61;23.51;2.64;332.65;28.65;-349.00;0.92;-112.11;-25.17;-2.91 
1.471;-0.46;-0.02;0.86;-7.23;28.94;3.48;334.63;34.38;-349.00;0.98;-112.09;-25.90;-2.98 
1.502;-0.48;-0.04;0.82;-9.53;38.12;5.84;331.66;43.93;-348.00;0.95;-112.06;-26.84;-3.10 
1.532;-0.50;0.00;0.79;-9.60;45.57;5.70;330.67;45.84;-341.00;0.93;-111.99;-28.07;-3.22 
1.562;-0.51;-0.06;0.78;-8.14;43.34;6.89;330.67;49.66;-337.00;0.93;-111.91;-29.40;-3.29 
1.592;-0.51;-0.05;0.85;-10.16;46.89;6.47;329.68;55.39;-331.00;0.99;-111.83;-30.66;-3.36 
1.622;-0.47;0.00;0.83;-12.10;57.95;6.19;326.71;63.99;-323.00;0.95;-111.68;-32.15;-3.47 
1.652;-0.49;0.01;0.77;-12.45;66.43;5.01;326.71;71.63;-315.00;0.91;-111.43;-33.92;-3.57 
1.682;-0.55;0.00;0.74;-9.81;67.41;3.55;328.69;78.32;-308.00;0.92;-111.04;-35.81;-3.68 
1.713;-0.54;-0.02;0.74;-7.93;74.02;2.78;323.74;88.82;-301.00;0.92;-110.50;-37.85;-3.77 
1.742;-0.58;-0.04;0.68;-10.23;82.16;4.10;325.72;100.28;-293.00;0.89;-109.86;-40.14;-3.82 
1.772;-0.63;-0.05;0.58;-14.54;80.63;3.83;324.73;110.79;-277.00;0.86;-109.21;-42.49;-3.89 
1.803;-0.65;-0.10;0.63;-17.95;76.66;5.91;322.75;116.52;-266.00;0.91;-108.49;-44.91;-4.07 
1.833;-0.62;-0.14;0.66;-15.51;79.72;12.38;320.77;126.07;-508.00;0.92;-107.85;-47.26;-4.20 
1.863;-0.62;-0.19;0.66;-10.16;90.71;19.62;324.73;133.71;-239.00;0.93;-107.27;-49.68;-4.10 
1.893;-0.57;-0.19;0.62;-11.06;102.40;29.36;330.67;140.40;-224.00;0.86;-106.72;-52.45;-3.76 
1.923;-0.58;-0.20;0.49;-16.35;103.10;38.33;332.65;147.08;-214.00;0.79;-106.24;-55.56;-3.22 
1.952;-0.51;-0.23;0.53;-19.20;87.10;47.65;338.59;149.95;-194.00;0.77;-106.02;-58.31;-2.61 
1.982;-0.50;-0.08;0.64;-11.55;71.51;48.35;349.48;149.95;-179.00;0.82;-106.29;-60.41;-1.71 
2.013;-0.37;0.03;0.74;7.03;86.54;47.44;359.38;150.90;-164.00;0.83;-106.74;-62.38;-0.33 
2.043;-0.25;-0.07;0.78;16.49;112.00;45.77;371.26;145.17;-151.00;0.82;-106.81;-64.61;1.18 
2.073;-0.29;-0.09;0.61;21.70;152.35;46.61;379.18;147.08;-129.00;0.68;-106.22;-67.75;2.66 
2.104;-0.30;0.02;0.40;7.23;156.31;52.59;392.05;145.17;-89.00;0.50;-105.25;-71.71;4.32 
2.134;-0.35;0.11;0.23;-14.54;113.18;48.14;403.93;140.40;-70.00;0.43;-104.63;-74.89;5.88 
2.163;-0.28;0.14;0.31;-22.33;83.76;37.57;406.90;131.80;-58.00;0.44;-104.66;-76.40;7.21 
2.193;-0.28;0.19;0.34;-10.57;69.77;42.78;417.79;127.02;-47.00;0.48;-105.09;-76.95;8.62 
2.223;-0.32;0.39;0.47;11.55;73.39;41.25;424.72;113.65;-33.00;0.69;-105.78;-76.79;10.31 
2.253;-0.37;0.87;0.47;10.43;165.63;51.13;434.62;102.19;-16.00;1.06;-106.16;-76.35;12.38 
2.283;-0.84;1.33;-1.04;5.01;364.31;-40.63;438.58;90.73;14.00;1.89;-103.28;-75.85;14.06 
2.313;-0.47;1.55;-2.44;196.59;323.83;-121.60;420.76;85.00;76.00;2.93;-92.95;-72.09;11.10 
2.343;0.51;0.78;-2.58;238.68;121.95;-270.54;358.39;89.78;169.00;2.74;-84.80;-67.03;4.85 
2.373;0.07;-0.94;-2.55;108.66;-260.94;-186.64;297.01;118.43;185.00;2.72;-77.03;-66.88;-4.91 
2.402;-0.34;-1.27;-1.68;106.37;-553.46;-104.35;267.30;158.54;132.00;2.13;-76.39;-74.60;-9.91 
2.432;-0.86;-2.06;-0.06;77.22;-523.06;-16.56;245.52;194.84;37.00;2.23;-78.72;-75.97;-13.05 
2.462;-0.79;-2.22;1.82;110.96;-185.88;113.60;255.42;197.70;-44.00;2.98;-84.02;-69.42;-10.93 
2.491;-0.96;-0.18;1.28;-17.39;107.48;127.58;292.05;184.33;-67.00;1.61;-88.26;-68.93;-7.25 
2.521;-1.40;0.10;-0.34;-23.23;200.70;49.81;309.88;179.55;-42.00;1.44;-89.61;-74.25;-4.84 
2.551;-1.38;0.26;-1.24;-4.24;73.18;60.03;316.81;173.82;-8.00;1.87;-89.76;-79.76;-3.23 
2.581;-1.30;0.10;-0.64;-10.23;-119.51;62.33;331.66;168.09;-13.00;1.45;-91.64;-80.11;-1.40 
2.612;-1.77;-0.16;0.95;-12.87;-60.45;45.22;344.53;160.45;-40.00;2.02;-94.52;-76.71;0.42 
2.642;-1.46;-0.03;0.77;-5.70;151.51;10.09;353.44;158.54;-36.00;1.65;-95.29;-77.26;1.32 
2.672;-1.46;-0.06;-0.71;10.43;219.34;-20.80;347.50;156.63;-6.00;1.62;-93.30;-83.24;1.13 
2.702;-1.24;-0.16;-1.23;-10.64;100.03;-9.04;347.50;153.77;33.00;1.75;-91.03;-89.00;0.60 
2.731;-1.09;-0.38;-0.89;-40.21;-25.74;20.31;346.51;153.77;40.00;1.46;-90.54;-88.75;0.65 
2.761;-1.26;-0.24;-0.17;-35.62;-56.63;50.02;350.47;149.95;26.00;1.29;-91.65;-88.53;1.46 
2.791;-1.10;0.30;0.19;-23.72;-5.36;43.34;369.28;145.17;17.00;1.16;-93.63;-86.74;3.08 
2.821;-0.95;0.35;-0.10;-2.85;44.52;13.29;373.24;140.40;18.00;1.02;-94.65;-85.68;4.29 
2.851;-0.98;0.17;-0.42;3.90;30.89;3.34;370.27;138.49;24.00;1.08;-94.66;-85.15;4.76 
2.881;-1.05;0.02;-0.49;-1.81;-5.70;3.34;372.25;138.49;28.00;1.16;-94.56;-84.78;4.91 
2.912;-1.09;-0.02;-0.25;-2.57;-25.46;10.23;370.27;139.44;27.00;1.12;-94.86;-84.65;5.12 
2.942;-1.09;0.00;-0.08;0.63;-9.53;13.50;375.22;140.40;19.00;1.09;-95.39;-84.42;5.49 
2.971;-1.03;0.10;-0.12;3.34;-0.70;11.27;376.21;136.58;22.00;1.04;-95.80;-84.05;5.88 
3.000;-0.98;0.10;-0.13;3.55;-4.45;6.68;383.14;135.62;15.00;0.99;-96.11;-83.73;6.19 
3.029;-1.01;0.08;-0.14;0.97;-4.66;5.29;382.15;136.58;19.00;1.02;-96.36;-83.51;6.42 
3.059;-0.99;0.10;-0.14;2.30;-3.34;2.78;382.15;133.71;18.00;1.00;-96.53;-83.33;6.60 
3.089;-0.99;0.07;-0.15;3.13;-2.78;4.24;383.14;134.67;18.00;1.00;-96.68;-83.17;6.75 
3.119;-1.02;0.08;-0.18;0.35;-1.46;4.73;381.16;130.85;16.00;1.04;-96.82;-83.02;6.90 
3.149;-1.01;0.10;-0.07;-0.56;-0.77;3.76;381.16;131.80;17.00;1.02;-96.96;-82.86;7.05 
3.179;-1.03;0.14;-0.10;0.90;4.45;1.67;387.10;129.89;21.00;1.04;-97.11;-82.68;7.21 
3.210;-1.02;0.11;-0.14;3.34;9.53;0.21;385.12;130.85;19.00;1.04;-97.15;-82.53;7.31 
3.240;-1.03;0.01;-0.17;0.90;8.21;-0.77;386.11;129.89;16.00;1.04;-97.05;-82.45;7.30 
3.270;-1.05;0.06;-0.18;-1.95;4.66;2.50;384.13;132.76;21.00;1.07;-97.00;-82.34;7.32 
3.300;-1.05;0.09;-0.15;-2.09;4.59;2.92;387.10;129.89;22.00;1.06;-97.05;-82.19;7.41 
3.329;-1.03;0.10;-0.19;0.00;8.77;1.60;386.11;132.76;23.00;1.05;-97.08;-82.02;7.48 
3.359;-1.02;0.09;-0.26;0.07;8.14;2.50;386.11;130.85;26.00;1.06;-97.07;-81.82;7.55 
3.389;-1.02;0.10;-0.24;-1.04;0.49;1.74;389.08;128.94;24.00;1.05;-97.11;-81.63;7.63 
3.420;-1.04;0.12;-0.19;-2.09;-0.83;0.90;385.12;129.89;25.00;1.06;-97.18;-81.52;7.71 
3.450;-1.02;0.10;-0.18;-1.04;2.30;0.90;388.09;127.98;25.00;1.04;-97.24;-81.42;7.77 
3.480;-1.03;0.09;-0.19;0.07;2.09;0.97;390.07;127.98;24.00;1.05;-97.27;-81.31;7.81 
3.511;-1.03;0.08;-0.16;-0.07;1.46;0.97;386.11;131.80;23.00;1.05;-97.32;-81.18;7.87 
3.541;-1.02;0.12;-0.17;-0.14;0.83;-0.07;390.07;127.98;24.00;1.04;-97.36;-81.08;7.92 
3.571;-1.03;0.12;-0.20;-0.07;1.81;-1.39;388.09;130.85;24.00;1.06;-97.38;-81.01;7.94 
3.601;-1.02;0.10;-0.19;0.56;1.39;-2.23;388.09;128.94;27.00;1.04;-97.32;-80.99;7.89 
3.630;-1.03;0.09;-0.18;-0.21;2.09;-0.49;387.10;127.98;25.00;1.05;-97.27;-80.97;7.84 
3.659;-1.03;0.08;-0.20;-0.70;1.53;0.07;386.11;128.94;24.00;1.05;-97.26;-80.91;7.83 
3.689;-1.02;0.07;-0.18;-0.35;1.39;-0.28;386.11;130.85;21.00;1.04;-97.28;-80.83;7.85 
3.720;-1.03;0.08;-0.18;-0.42;2.37;-0.56;387.10;130.85;22.00;1.05;-97.28;-80.76;7.85 
3.750;-1.03;0.07;-0.17;-0.42;2.02;-0.97;386.11;129.89;25.00;1.05;-97.24;-80.72;7.81 
3.780;-1.02;0.06;-0.22;-0.21;1.46;0.49;386.11;129.89;27.00;1.05;-97.22;-80.67;7.79 
3.811;-1.02;0.09;-0.21;-0.42;1.74;0.42;388.09;128.94;23.00;1.05;-97.23;-80.62;7.79 
3.841;-1.02;0.10;-0.22;-0.70;1.39;-0.63;387.10;127.98;27.00;1.05;-97.24;-80.53;7.80 
3.871;-1.02;0.10;-0.21;-0.35;0.14;-0.28;388.09;128.94;26.00;1.05;-97.23;-80.48;7.79 
3.901;-1.02;0.07;-0.18;-0.49;0.00;-0.56;387.10;128.94;22.00;1.04;-97.24;-80.44;7.78 
3.930;-1.02;0.10;-0.19;-0.14;0.07;-2.23;389.08;127.98;26.00;1.04;-97.23;-80.43;7.76 
3.959;-1.04;0.05;-0.20;0.90;2.16;-2.99;384.13;131.80;26.00;1.06;-97.18;-80.45;7.69 
3.988;-1.02;0.06;-0.18;0.70;3.55;-1.04;384.13;130.85;24.00;1.04;-97.13;-80.43;7.63 
4.019;-1.02;0.06;-0.16;0.00;3.48;-0.83;385.12;132.76;27.00;1.03;-97.10;-80.35;7.60 
4.049;-1.02;0.08;-0.22;-0.49;1.11;-0.77;387.10;130.85;26.00;1.05;-97.07;-80.30;7.56 
4.079;-1.02;0.05;-0.17;-0.70;1.32;-0.90;384.13;130.85;25.00;1.04;-97.04;-80.29;7.52 
4.110;-1.02;0.08;-0.17;-0.56;1.88;-0.21;384.13;130.85;26.00;1.04;-97.04;-80.23;7.50 
4.140;-1.05;0.06;-0.21;-0.97;0.83;-0.28;388.09;130.85;26.00;1.07;-97.04;-80.18;7.50 
4.170;-1.01;0.10;-0.21;-0.28;0.56;-0.63;387.10;129.89;23.00;1.04;-97.05;-80.15;7.49 
4.200;-1.00;0.10;-0.19;0.00;0.07;-1.60;385.12;129.89;27.00;1.02;-97.05;-80.14;7.47 
4.229;-1.03;0.09;-0.18;-0.28;1.18;-2.30;384.13;129.89;25.00;1.05;-96.99;-80.15;7.40 
4.258;-1.02;0.08;-0.14;0.28;1.74;-3.13;386.11;128.94;27.00;1.03;-96.93;-80.18;7.32 
4.287;-1.02;0.05;-0.17;1.60;1.60;-2.99;381.16;129.89;27.00;1.04;-96.88;-80.19;7.24 
4.318;-1.03;0.03;-0.20;0.90;2.78;-2.02;385.12;132.76;28.00;1.05;-96.79;-80.21;7.14 
4.348;-1.02;0.03;-0.23;-0.77;1.81;-0.07;379.18;132.76;27.00;1.05;-96.75;-80.16;7.08 
4.378;-1.02;0.07;-0.22;-0.97;-1.18;1.53;381.16;133.71;28.00;1.05;-96.76;-80.12;7.08 
4.408;-1.03;0.08;-0.18;-1.67;-0.28;2.23;383.14;132.76;22.00;1.05;-96.84;-80.09;7.13 
4.438;-1.01;0.06;-0.13;-1.18;0.97;2.02;382.15;133.71;27.00;1.02;-96.90;-80.06;7.18 
4.468;-1.04;0.07;-0.17;-0.42;1.39;1.25;383.14;133.71;26.00;1.06;-96.95;-80.01;7.21 
4.498;-1.02;0.07;-0.16;-0.07;2.02;1.18;388.09;129.89;27.00;1.03;-96.99;-79.96;7.22 
4.529;-1.02;0.08;-0.20;-0.28;0.42;1.46;384.13;128.94;25.00;1.04;-97.03;-79.89;7.25 
4.559;-1.03;0.06;-0.17;-1.25;0.35;1.60;384.13;132.76;25.00;1.05;-97.10;-79.83;7.30 
4.589;-1.02;0.07;-0.18;-0.90;-0.07;2.30;384.13;131.80;25.00;1.04;-97.16;-79.79;7.33 
4.620;-1.03;0.10;-0.18;-0.49;-0.14;3.13;385.12;130.85;26.00;1.05;-97.25;-79.73;7.41 
4.649;-1.07;0.18;-0.20;0.63;-0.14;3.90;388.09;128.94;26.00;1.10;-97.38;-79.63;7.51 
4.679;-1.06;0.07;-0.22;0.70;-0.90;5.70;385.12;132.76;26.00;1.08;-97.51;-79.54;7.62 
4.709;-1.02;0.10;-0.19;-0.63;-3.13;5.91;386.11;129.89;23.00;1.04;-97.68;-79.46;7.76 
4.739;-1.01;0.12;-0.18;-1.39;-3.48;3.48;392.05;127.98;22.00;1.03;-97.84;-79.41;7.90 
4.769;-1.01;0.12;-0.14;-1.32;-2.57;0.07;389.08;127.98;22.00;1.03;-97.93;-79.42;7.97 
4.799;-1.02;0.10;-0.16;-0.90;-2.37;-0.70;393.04;132.76;22.00;1.04;-97.94;-79.48;7.96 
4.830;-1.03;0.10;-0.16;-0.28;-0.21;0.77;389.08;127.02;22.00;1.05;-97.95;-79.55;7.95 
4.860;-1.02;0.10;-0.17;-0.77;3.69;1.46;389.08;127.98;20.00;1.04;-98.00;-79.49;7.99 
4.890;-1.01;0.14;-0.17;-0.56;1.04;1.53;391.06;128.94;24.00;1.03;-98.06;-79.39;8.03 
4.920;-1.02;0.14;-0.14;0.14;-0.49;0.00;390.07;127.98;21.00;1.04;-98.11;-79.37;8.07 
4.950;-1.02;0.09;-0.14;0.49;3.69;-1.25;389.08;130.85;21.00;1.03;-98.10;-79.38;8.03 
4.980;-1.02;0.06;-0.17;0.21;4.38;-1.60;389.08;128.94;23.00;1.04;-98.04;-79.35;7.96 
5.010;-1.02;0.07;-0.21;-0.77;3.76;0.35;385.12;128.94;24.00;1.04;-97.97;-79.34;7.88 
5.039;-1.02;0.06;-0.18;-1.39;1.95;1.60;387.10;126.07;25.00;1.04;-98.00;-79.26;7.88 
5.069;-1.01;0.10;-0.21;-1.32;0.28;1.32;391.06;127.02;23.00;1.04;-98.03;-79.21;7.91 
5.099;-1.02;0.09;-0.15;-1.11;0.90;0.42;390.07;127.98;25.00;1.03;-98.08;-79.20;7.94 
5.130;-1.02;0.11;-0.18;-0.56;2.23;-0.21;387.10;127.98;22.00;1.04;-98.12;-79.13;7.97 
5.160;-1.02;0.11;-0.18;-0.21;1.18;-0.56;388.09;126.07;23.00;1.04;-98.12;-79.10;7.95 
5.190;-1.00;0.08;-0.17;0.07;0.42;-0.63;388.09;127.02;26.00;1.02;-98.14;-79.08;7.95 
5.220;-1.04;0.10;-0.17;0.00;1.60;-1.11;391.06;126.07;25.00;1.06;-98.13;-79.09;7.92 
5.250;-1.03;0.10;-0.18;-0.49;2.02;-1.46;391.06;127.98;23.00;1.05;-98.11;-79.09;7.88 
5.280;-1.02;0.10;-0.15;0.56;2.99;-1.67;388.09;127.02;24.00;1.04;-98.07;-79.10;7.83 
5.310;-1.02;0.06;-0.18;0.00;2.02;-1.53;391.06;130.85;23.00;1.04;-98.01;-79.10;7.75 
5.340;-1.03;0.10;-0.21;-0.14;2.09;-0.28;389.08;127.98;29.00;1.06;-97.98;-79.10;7.71 
5.370;-1.02;0.08;-0.21;-0.28;2.09;-0.28;387.10;128.94;25.00;1.04;-97.96;-79.09;7.67 
5.400;-1.02;0.11;-0.19;-1.46;-0.14;0.07;388.09;131.80;21.00;1.04;-97.97;-79.06;7.66 
5.431;-1.02;0.10;-0.14;-0.90;-0.70;-0.42;386.11;127.02;25.00;1.03;-97.99;-79.07;7.67 
5.461;-1.02;0.08;-0.14;0.63;2.37;-0.70;386.11;127.02;25.00;1.03;-98.00;-79.09;7.66 
5.491;-1.02;0.06;-0.17;0.49;2.99;-0.63;388.09;128.94;27.00;1.04;-97.98;-79.07;7.62 
5.521;-1.03;0.09;-0.20;-0.14;1.60;-0.97;386.11;127.98;23.00;1.05;-97.98;-79.05;7.60 
5.551;-1.03;0.09;-0.18;-1.11;0.63;-0.56;388.09;127.02;26.00;1.05;-97.95;-79.07;7.55 
5.580;-1.02;0.10;-0.18;-0.97;-0.14;-0.07;388.09;127.98;25.00;1.04;-97.95;-79.07;7.54 
5.609;-1.02;0.10;-0.19;-0.35;1.11;-0.42;387.10;128.94;24.00;1.04;-97.93;-79.11;7.51 
5.640;-1.02;0.11;-0.14;0.14;2.64;-0.63;389.08;128.94;29.00;1.04;-97.93;-79.09;7.50 
5.670;-1.01;0.06;-0.18;0.35;1.74;-0.77;387.10;127.02;27.00;1.03;-97.92;-79.08;7.47 
5.700;-1.03;0.09;-0.16;-0.35;1.67;-0.28;387.10;129.89;26.00;1.05;-97.89;-79.09;7.42 
5.731;-1.02;0.09;-0.18;-0.63;1.11;-0.07;388.09;127.02;25.00;1.04;-97.87;-79.11;7.38 
5.761;-1.02;0.08;-0.19;-0.42;0.56;-0.42;389.08;130.85;23.00;1.04;-97.87;-79.12;7.37 
5.791;-1.02;0.09;-0.15;-0.70;1.60;-0.97;384.13;130.85;27.00;1.03;-97.86;-79.15;7.35 
5.821;-1.02;0.09;-0.19;-0.14;3.69;-1.25;388.09;130.85;24.00;1.04;-97.84;-79.15;7.31 
5.852;-1.02;0.08;-0.18;0.70;3.55;-0.70;387.10;130.85;22.00;1.04;-97.80;-79.14;7.26 
5.882;-1.02;0.11;-0.22;-0.21;2.23;-0.35;389.08;128.94;28.00;1.05;-97.78;-79.10;7.22 
5.911;-1.04;0.08;-0.22;0.07;0.28;-0.63;387.10;129.89;30.00;1.07;-97.76;-79.09;7.18 
5.942;-1.02;0.09;-0.20;-0.42;0.14;-0.56;387.10;128.94;26.00;1.04;-97.74;-79.13;7.14 
5.972;-1.02;0.06;-0.19;-0.63;1.53;-0.63;385.12;129.89;24.00;1.04;-97.71;-79.16;7.10 
6.002;-1.06;0.10;-0.15;-0.42;1.67;0.70;386.11;127.98;26.00;1.08;-97.71;-79.16;7.08 
6.032;-1.03;0.07;-0.19;-0.56;1.11;1.39;386.11;130.85;25.00;1.05;-97.73;-79.13;7.09 
6.062;-1.02;0.04;-0.18;-0.56;0.56;2.02;390.07;128.94;27.00;1.04;-97.76;-79.13;7.11 
6.092;-1.01;0.06;-0.20;-0.21;1.74;2.78;386.11;129.89;24.00;1.03;-97.82;-79.10;7.16 
6.122;-1.01;0.10;-0.14;0.21;1.46;2.23;388.09;129.89;30.00;1.02;-97.90;-79.05;7.22 
6.153;-1.02;0.07;-0.22;-0.42;0.63;1.74;389.08;128.94;27.00;1.05;-97.96;-78.99;7.26 
6.182;-1.06;0.13;-0.22;-0.35;0.35;1.88;390.07;127.98;26.00;1.09;-98.01;-78.97;7.30 
6.212;-1.02;0.09;-0.18;-1.25;-0.07;2.23;390.07;126.07;25.00;1.04;-98.07;-78.96;7.35 
6.243;-1.02;0.14;-0.18;-1.67;-1.39;2.37;387.10;127.02;25.00;1.05;-98.15;-78.93;7.42 
6.273;-1.02;0.12;-0.17;-0.56;0.14;1.04;390.07;127.98;24.00;1.04;-98.23;-78.94;7.50 
6.303;-1.01;0.10;-0.17;-0.97;1.25;0.35;388.09;130.85;22.00;1.03;-98.26;-78.94;7.53 
6.333;-1.02;0.14;-0.18;-0.83;1.46;-1.18;390.07;127.02;30.00;1.05;-98.29;-78.93;7.55 
6.364;-1.02;0.08;-0.18;0.56;2.50;-1.67;392.05;127.98;24.00;1.04;-98.26;-78.95;7.51 
6.394;-1.06;0.06;-0.21;0.63;2.16;-0.77;389.08;126.07;26.00;1.08;-98.22;-78.96;7.44 
6.424;-1.02;0.06;-0.19;0.35;1.46;-0.70;388.09;127.02;28.00;1.04;-98.18;-78.97;7.39 
6.454;-1.02;0.05;-0.19;-1.04;1.88;-0.14;389.08;126.07;27.00;1.04;-98.14;-78.97;7.33 
6.484;-1.02;0.07;-0.21;-1.81;-0.28;1.60;389.08;127.98;25.00;1.04;-98.14;-78.97;7.32 
6.514;-1.02;0.11;-0.18;-1.81;-1.32;1.67;390.07;128.94;23.00;1.04;-98.18;-78.99;7.36 
6.544;-1.02;0.10;-0.18;-0.63;0.77;1.18;390.07;127.98;23.00;1.04;-98.22;-79.00;7.40 
6.574;-1.02;0.11;-0.18;-0.56;1.81;1.25;389.08;124.16;26.00;1.04;-98.24;-79.00;7.41 
6.604;-1.02;0.08;-0.16;-0.49;1.46;1.11;389.08;127.02;25.00;1.04;-98.29;-78.96;7.45 
6.634;-1.02;0.08;-0.20;0.56;1.11;1.04;392.05;127.98;23.00;1.04;-98.32;-78.95;7.47 
6.665;-1.02;0.11;-0.22;0.07;0.00;0.35;389.08;127.98;23.00;1.05;-98.34;-78.95;7.48 
6.695;-1.02;0.10;-0.16;-0.28;0.56;-0.07;394.03;127.98;23.00;1.04;-98.35;-78.98;7.48 
6.725;-1.02;0.12;-0.16;-0.56;1.95;-0.42;393.04;127.02;24.00;1.04;-98.34;-78.98;7.46 
6.754;-1.01;0.10;-0.18;-0.35;2.37;-0.77;389.08;126.07;22.00;1.03;-98.32;-78.97;7.43 
6.783;-1.02;0.11;-0.22;-0.63;2.37;-0.97;389.08;127.02;23.00;1.05;-98.29;-78.97;7.39 
6.813;-1.03;0.10;-0.21;-0.07;2.30;-0.83;387.10;129.89;23.00;1.06;-98.26;-78.96;7.34 
6.843;-1.02;0.10;-0.18;-0.63;2.23;-0.14;391.06;127.02;22.00;1.04;-98.23;-78.96;7.30 
6.873;-1.02;0.10;-0.20;-1.53;1.67;-0.35;389.08;127.98;26.00;1.04;-98.22;-78.96;7.29 
6.903;-1.03;0.10;-0.17;-1.04;2.30;-0.97;389.08;124.16;25.00;1.05;-98.20;-78.95;7.26 
6.933;-1.02;0.10;-0.17;0.21;3.62;-0.21;392.05;127.98;28.00;1.04;-98.18;-78.95;7.22 
6.964;-1.03;0.10;-0.19;-0.21;2.23;-0.77;390.07;126.07;23.00;1.05;-98.17;-78.92;7.20 
6.994;-1.02;0.06;-0.20;-0.35;2.43;-0.83;389.08;127.98;28.00;1.04;-98.15;-78.93;7.16 
7.024;-1.02;0.10;-0.21;-1.11;1.18;0.07;390.07;126.07;26.00;1.05;-98.13;-78.91;7.14 
7.054;-1.03;0.10;-0.18;-0.77;0.21;-0.14;390.07;127.98;26.00;1.05;-98.12;-78.93;7.12 
7.084;-1.02;0.09;-0.17;-0.49;2.09;0.07;388.09;127.02;29.00;1.04;-98.12;-78.95;7.12 
7.113;-1.02;0.11;-0.20;-0.21;1.74;-0.49;390.07;129.89;27.00;1.05;-98.13;-78.93;7.11 
7.143;-1.02;0.09;-0.18;0.35;0.90;-0.70;388.09;127.02;25.00;1.04;-98.11;-78.95;7.09 
7.173;-1.02;0.10;-0.18;-0.07;1.95;-0.49;390.07;128.94;25.00;1.04;-98.09;-78.97;7.06 
7.203;-1.04;0.10;-0.18;0.21;1.18;-0.42;391.06;126.07;26.00;1.06;-98.06;-78.99;7.02 
7.233;-1.02;0.09;-0.18;0.00;0.90;-0.14;389.08;127.98;27.00;1.04;-98.05;-79.01;7.00 
7.264;-1.02;0.08;-0.17;-0.21;1.04;0.21;390.07;126.07;26.00;1.04;-98.04;-79.03;6.98 
7.293;-1.02;0.10;-0.18;0.07;1.53;0.00;390.07;124.16;27.00;1.04;-98.02;-79.06;6.95 
7.323;-1.02;0.11;-0.17;-0.28;1.11;0.00;387.10;127.98;27.00;1.04;-98.00;-79.05;6.93 
7.353;-1.02;0.08;-0.18;-0.63;1.39;-0.07;392.05;126.07;28.00;1.04;-98.00;-79.06;6.92 
7.383;-1.03;0.10;-0.20;-0.90;1.88;0.21;385.12;127.98;29.00;1.05;-98.00;-79.07;6.91 
7.413;-1.02;0.09;-0.19;-0.70;1.95;0.56;391.06;126.07;30.00;1.04;-98.02;-79.04;6.92 
7.443;-1.02;0.12;-0.20;-0.42;1.04;-0.07;391.06;126.07;28.00;1.05;-98.06;-79.02;6.96 
7.474;-1.02;0.08;-0.15;0.07;2.71;-1.39;388.09;127.02;29.00;1.03;-98.04;-79.04;6.94 
7.504;-1.02;0.12;-0.18;-0.21;3.83;-1.18;389.08;127.02;29.00;1.04;-98.01;-79.05;6.90 
7.533;-1.02;0.14;-0.22;-0.63;2.71;-0.63;392.05;124.16;27.00;1.05;-97.98;-79.02;6.86 
7.563;-1.01;0.08;-0.23;-0.97;2.30;-0.90;386.11;127.98;29.00;1.04;-97.96;-79.00;6.83 
7.593;-1.02;0.08;-0.17;-0.63;1.81;-0.14;390.07;127.98;29.00;1.04;-97.95;-78.98;6.81 
7.623;-1.02;0.09;-0.19;-0.97;1.53;-0.42;388.09;126.07;32.00;1.04;-97.95;-78.99;6.80 
7.653;-1.02;0.10;-0.21;-1.11;2.43;-1.81;390.07;126.07;30.00;1.05;-97.91;-79.02;6.76 
7.683;-1.02;0.08;-0.16;-0.56;3.34;-2.09;389.08;127.98;31.00;1.04;-97.85;-79.05;6.70 
7.713;-1.03;0.07;-0.18;0.00;3.48;-1.32;389.08;128.94;30.00;1.05;-97.79;-79.06;6.63 
7.743;-1.02;0.07;-0.20;-0.49;2.78;-0.90;390.07;127.98;33.00;1.04;-97.76;-79.04;6.58 
7.774;-1.03;0.09;-0.19;-0.70;1.11;-1.32;390.07;127.02;30.00;1.05;-97.73;-79.05;6.54 
7.804;-1.04;0.08;-0.19;-0.28;1.88;-1.74;384.13;127.02;28.00;1.06;-97.67;-79.09;6.48 
7.833;-1.04;0.10;-0.21;-0.90;2.50;-0.83;389.08;128.94;32.00;1.07;-97.63;-79.09;6.43 
7.864;-1.03;0.09;-0.20;-0.77;1.18;0.00;387.10;128.94;31.00;1.05;-97.61;-79.10;6.41 
7.894;-1.03;0.10;-0.21;0.07;1.53;-0.35;387.10;127.02;31.00;1.06;-97.59;-79.12;6.39 
7.924;-1.02;0.10;-0.19;-0.07;2.78;-0.07;386.11;127.98;32.00;1.04;-97.57;-79.12;6.36 
7.954;-1.02;0.10;-0.19;-0.28;1.60;0.14;390.07;130.85;30.00;1.04;-97.57;-79.11;6.35 
7.985;-1.03;0.10;-0.18;-1.18;0.97;-0.07;385.12;127.02;31.00;1.05;-97.57;-79.12;6.34 
8.015;-1.03;0.10;-0.20;-1.46;0.63;0.42;389.08;126.07;35.00;1.05;-97.57;-79.13;6.34 
8.045;-1.02;0.10;-0.17;-0.35;2.23;0.35;386.11;128.94;31.00;1.04;-97.56;-79.14;6.34 
8.076;-1.03;0.08;-0.20;0.21;2.78;-0.07;386.11;127.98;30.00;1.05;-97.56;-79.14;6.32 
8.105;-1.02;0.10;-0.22;-0.42;1.95;0.35;389.08;127.98;32.00;1.05;-97.55;-79.10;6.30 
8.135;-1.03;0.07;-0.22;-0.70;0.35;0.77;388.09;126.07;31.00;1.06;-97.58;-79.08;6.32 
8.165;-1.02;0.10;-0.23;-1.46;-0.35;1.11;385.12;127.02;33.00;1.05;-97.60;-79.09;6.35 
8.195;-1.02;0.12;-0.22;-1.81;-2.30;1.46;386.11;124.16;30.00;1.05;-97.65;-79.12;6.40 
8.225;-1.03;0.10;-0.15;-1.18;-0.90;1.04;387.10;127.02;30.00;1.05;-97.67;-79.18;6.44 
8.255;-1.02;0.09;-0.18;-0.49;1.88;-0.07;386.11;127.02;29.00;1.04;-97.67;-79.23;6.45 
8.286;-1.02;0.08;-0.21;-0.49;1.04;0.35;390.07;127.02;33.00;1.04;-97.67;-79.21;6.43 
8.316;-1.02;0.09;-0.20;-0.70;0.28;0.49;391.06;127.02;31.00;1.04;-97.68;-79.21;6.44 
8.346;-1.01;0.08;-0.20;-0.90;1.25;-0.07;387.10;125.11;31.00;1.03;-97.67;-79.23;6.43 
8.375;-1.02;0.09;-0.21;-0.77;1.53;-0.35;392.05;127.02;29.00;1.05;-97.65;-79.26;6.41 
8.405;-1.02;0.07;-0.18;-0.35;2.02;0.35;389.08;125.11;29.00;1.04;-97.62;-79.25;6.37 
8.435;-1.02;0.10;-0.22;-0.83;1.60;0.21;388.09;128.94;31.00;1.05;-97.62;-79.24;6.37 
8.465;-1.02;0.08;-0.22;-1.04;1.39;-0.28;393.04;130.85;31.00;1.05;-97.62;-79.24;6.37 
8.495;-1.02;0.08;-0.18;-0.70;1.25;-0.42;389.08;127.98;30.00;1.04;-97.62;-79.25;6.37 
8.525;-1.03;0.09;-0.20;-0.49;1.95;-0.90;386.11;127.02;30.00;1.05;-97.58;-79.27;6.32 
8.555;-1.02;0.09;-0.20;-0.21;2.23;-1.39;388.09;127.98;29.00;1.04;-97.54;-79.28;6.27 
8.586;-1.02;0.10;-0.17;-0.49;3.06;-1.18;387.10;125.11;31.00;1.04;-97.50;-79.29;6.23 
8.616;-1.02;0.07;-0.18;-0.14;3.90;-1.74;390.07;126.07;33.00;1.04;-97.47;-79.27;6.20 
8.645;-0.99;0.13;-0.17;-0.07;4.87;-1.32;388.09;125.11;34.00;1.01;-97.42;-79.25;6.14 
8.674;-1.02;0.06;-0.25;0.70;4.31;-1.53;384.13;127.98;35.00;1.05;-97.39;-79.19;6.09 
8.704;-1.02;0.09;-0.23;0.35;4.52;-1.95;389.08;124.16;36.00;1.05;-97.34;-79.14;6.01 
8.734;-1.02;0.09;-0.25;-0.70;2.02;-0.70;388.09;126.07;35.00;1.05;-97.31;-79.08;5.96 
8.764;-1.03;0.08;-0.20;-1.11;0.90;-0.07;386.11;127.02;35.00;1.05;-97.30;-79.07;5.95 
8.794;-1.01;0.10;-0.22;-0.83;2.78;-0.21;385.12;130.85;34.00;1.04;-97.27;-79.09;5.92 
8.824;-1.02;0.08;-0.22;-0.56;3.90;-0.35;387.10;127.02;36.00;1.05;-97.25;-79.05;5.89 
8.854;-1.06;0.10;-0.21;-0.77;1.67;0.07;386.11;127.98;32.00;1.09;-97.24;-79.02;5.87 
8.885;-1.02;0.08;-0.20;-0.35;1.39;0.14;388.09;130.85;33.00;1.04;-97.25;-79.00;5.88 
8.914;-1.02;0.03;-0.21;-0.35;3.20;0.21;388.09;129.89;35.00;1.04;-97.25;-78.99;5.88 
8.944;-1.05;0.07;-0.22;-0.42;4.59;0.49;389.08;127.02;37.00;1.08;-97.26;-78.93;5.88 
8.974;-1.02;0.08;-0.25;-0.56;4.10;0.97;388.09;127.98;34.00;1.05;-97.29;-78.84;5.89 
9.004;-1.02;0.06;-0.24;-0.56;2.16;2.50;385.12;125.11;33.00;1.05;-97.36;-78.73;5.94 
9.034;-1.02;0.14;-0.18;0.00;1.88;1.32;387.10;125.11;38.00;1.05;-97.42;-78.69;6.00 
9.064;-1.02;0.10;-0.20;0.49;2.57;-0.70;389.08;128.94;35.00;1.04;-97.45;-78.66;6.02 
9.095;-1.03;0.09;-0.21;0.21;3.27;-0.90;386.11;126.07;41.00;1.06;-97.44;-78.61;6.00 
9.124;-1.02;0.06;-0.23;-0.28;2.64;0.35;389.08;125.11;41.00;1.05;-97.41;-78.60;5.95 
9.154;-1.01;0.10;-0.25;-0.97;2.23;1.60;390.07;127.98;36.00;1.05;-97.41;-78.56;5.94 
9.185;-1.02;0.12;-0.19;-0.97;2.43;0.56;388.09;127.02;37.00;1.04;-97.43;-78.53;5.97 
9.215;-1.03;0.12;-0.20;-0.70;2.92;-0.42;390.07;125.11;40.00;1.06;-97.47;-78.50;6.00 
9.245;-1.03;0.11;-0.23;0.07;4.17;-1.32;389.08;127.02;37.00;1.06;-97.47;-78.45;5.99 
9.275;-1.03;0.10;-0.22;0.70;3.90;-1.18;387.10;124.16;38.00;1.06;-97.43;-78.40;5.94 
9.305;-1.03;0.08;-0.26;0.14;2.85;-0.07;388.09;125.11;42.00;1.07;-97.39;-78.35;5.88 
9.335;-1.03;0.10;-0.26;-1.11;0.35;1.04;386.11;126.07;42.00;1.07;-97.40;-78.32;5.87 
9.364;-1.02;0.09;-0.23;-0.77;-0.97;0.77;390.07;123.20;40.00;1.05;-97.39;-78.36;5.87 
9.395;-1.02;0.10;-0.18;-0.28;1.39;0.07;386.11;126.07;40.00;1.04;-97.41;-78.39;5.89 
9.425;-1.02;0.09;-0.22;-0.07;2.50;-0.07;387.10;124.16;37.00;1.05;-97.40;-78.38;5.88 
9.455;-1.02;0.09;-0.23;-0.63;1.81;-1.04;384.13;125.11;41.00;1.05;-97.37;-78.38;5.85 
9.486;-1.02;0.06;-0.22;-0.70;0.77;-1.67;387.10;126.07;37.00;1.05;-97.31;-78.41;5.78 
9.516;-1.02;0.09;-0.22;-1.39;1.88;-1.25;386.11;126.07;37.00;1.05;-97.28;-78.41;5.75 
9.546;-1.03;0.07;-0.24;-1.18;0.90;-0.14;389.08;124.16;41.00;1.06;-97.25;-78.42;5.72 
9.576;-1.02;0.08;-0.25;-1.32;0.70;0.97;387.10;125.11;38.00;1.05;-97.24;-78.42;5.72 
9.607;-1.01;0.09;-0.26;-0.42;1.60;1.04;388.09;126.07;38.00;1.05;-97.26;-78.42;5.75 
9.636;-1.02;0.09;-0.23;0.00;1.81;0.97;388.09;125.11;41.00;1.05;-97.30;-78.36;5.77 
9.666;-1.02;0.09;-0.24;-0.70;0.28;1.25;392.05;124.16;40.00;1.05;-97.33;-78.34;5.79 
9.697;-1.02;0.08;-0.23;-0.83;0.42;1.25;389.08;125.11;39.00;1.05;-97.35;-78.38;5.83 
9.727;-1.02;0.09;-0.22;-0.28;0.77;0.70;388.09;126.07;38.00;1.05;-97.37;-78.39;5.84 
9.757;-1.02;0.10;-0.19;-0.35;1.81;0.83;388.09;123.20;41.00;1.04;-97.36;-78.39;5.83 
9.787;-1.03;0.11;-0.21;-0.70;1.18;0.83;389.08;127.98;40.00;1.06;-97.37;-78.39;5.84 
9.817;-1.03;0.09;-0.22;-1.25;1.25;1.39;387.10;124.16;38.00;1.06;-97.38;-78.38;5.85 
9.847;-1.02;0.10;-0.22;-0.90;1.46;2.09;390.07;125.11;38.00;1.05;-97.43;-78.37;5.90 
9.876;-1.01;0.10;-0.22;-1.04;4.31;1.88;387.10;125.11;39.00;1.04;-97.49;-78.32;5.96 
9.907;-1.02;0.06;-0.26;-0.97;4.10;2.37;389.08;121.29;42.00;1.05;-97.56;-78.20;6.02 
9.937;-1.02;0.09;-0.26;-1.60;0.77;2.78;388.09;124.16;42.00;1.06;-97.64;-78.10;6.10 
9.967;-1.02;0.12;-0.24;-1.67;-0.90;2.02;389.08;124.16;39.00;1.05;-97.71;-78.09;6.18 
9.998;-1.02;0.12;-0.22;-1.18;0.77;0.77;391.06;123.20;39.00;1.05;-97.76;-78.11;6.23 
10.028;-1.02;0.09;-0.25;-1.39;1.60;0.90;389.08;123.20;40.00;1.05;-97.77;-78.12;6.26 
10.058;-1.02;0.10;-0.26;-1.25;0.77;1.11;391.06;124.16;41.00;1.06;-97.81;-78.09;6.29 
10.088;-1.02;0.12;-0.25;-0.90;-0.83;0.90;391.06;120.34;39.00;1.06;-97.84;-78.08;6.33 
10.117;-1.03;0.11;-0.24;-0.42;-0.70;-0.28;391.06;124.16;36.00;1.06;-97.84;-78.15;6.35 
10.146;-1.02;0.11;-0.20;-0.21;1.18;-0.28;392.05;121.29;38.00;1.05;-97.83;-78.19;6.34 
10.176;-1.02;0.10;-0.22;-0.35;0.83;-0.14;391.06;125.11;37.00;1.05;-97.80;-78.21;6.31 
10.207;-1.02;0.10;-0.24;-0.77;1.04;0.63;391.06;122.25;38.00;1.05;-97.80;-78.22;6.31 
10.237;-1.00;0.10;-0.23;-0.77;1.18;0.42;393.04;124.16;37.00;1.03;-97.79;-78.22;6.30 
10.267;-1.02;0.13;-0.22;-0.56;0.70;0.14;392.05;123.20;37.00;1.05;-97.80;-78.24;6.31 
10.297;-1.02;0.10;-0.25;-0.21;1.46;-0.42;389.08;124.16;40.00;1.05;-97.81;-78.24;6.33 
10.327;-1.01;0.07;-0.22;-0.35;1.81;-0.49;393.04;122.25;39.00;1.04;-97.80;-78.23;6.32 
10.357;-1.03;0.14;-0.21;-0.90;1.46;-0.63;393.04;121.29;39.00;1.06;-97.78;-78.23;6.29 
10.387;-1.02;0.10;-0.17;-0.70;1.95;-0.56;389.08;124.16;40.00;1.04;-97.76;-78.22;6.28 
10.417;-1.02;0.05;-0.20;-0.07;3.62;-0.56;390.07;124.16;37.00;1.04;-97.74;-78.18;6.25 
10.447;-1.02;0.08;-0.22;-0.14;3.06;-0.49;390.07;122.25;40.00;1.05;-97.72;-78.15;6.22 
10.477;-1.01;0.11;-0.25;-0.21;2.57;-0.28;390.07;120.34;36.00;1.05;-97.70;-78.11;6.19 
10.508;-1.02;0.12;-0.26;-0.77;1.74;-0.21;387.10;119.38;38.00;1.06;-97.68;-78.07;6.16 
10.538;-1.02;0.10;-0.25;-1.25;-0.63;0.21;393.04;124.16;41.00;1.05;-97.68;-78.06;6.16 
10.568;-1.02;0.13;-0.21;-1.11;-0.21;-0.49;391.06;121.29;40.00;1.05;-97.67;-78.10;6.16 
10.598;-1.05;0.10;-0.21;-0.63;1.60;-0.90;391.06;124.16;42.00;1.08;-97.66;-78.13;6.16 
10.628;-1.01;0.11;-0.24;0.07;1.18;-1.39;390.07;121.29;41.00;1.04;-97.63;-78.12;6.13 
10.658;-1.02;0.11;-0.22;0.00;1.39;-1.81;390.07;123.20;36.00;1.05;-97.57;-78.15;6.07 
10.687;-1.01;0.06;-0.20;-0.07;1.95;-1.39;389.08;121.29;37.00;1.03;-97.51;-78.16;6.01 
10.718;-1.02;0.06;-0.25;-0.07;2.09;-0.56;391.06;122.25;38.00;1.05;-97.47;-78.17;5.96 
10.748;-1.02;0.09;-0.22;-0.21;1.18;-0.56;393.04;124.16;37.00;1.05;-97.42;-78.19;5.91 
10.778;-1.02;0.10;-0.23;-0.70;1.67;-0.63;388.09;124.16;40.00;1.05;-97.40;-78.20;5.90 
10.808;-1.02;0.08;-0.24;-0.14;2.16;-0.21;390.07;123.20;42.00;1.05;-97.38;-78.19;5.87 
10.838;-1.02;0.09;-0.24;-0.07;2.43;0.00;389.08;124.16;38.00;1.05;-97.37;-78.16;5.86 
10.868;-1.02;0.08;-0.22;-0.42;2.30;-0.07;388.09;126.07;40.00;1.05;-97.35;-78.16;5.83 
10.898;-1.00;0.10;-0.26;-0.70;1.81;0.21;390.07;124.16;41.00;1.04;-97.35;-78.12;5.83 
10.927;-1.02;0.10;-0.22;-0.14;1.95;-0.14;392.05;122.25;41.00;1.05;-97.34;-78.10;5.82 
10.957;-1.00;0.12;-0.23;-0.49;2.37;0.42;392.05;124.16;40.00;1.03;-97.34;-78.10;5.81 
10.987;-1.01;0.10;-0.25;-0.70;1.74;-0.07;388.09;122.25;39.00;1.05;-97.35;-78.07;5.82 
11.018;-1.02;0.12;-0.22;-0.28;1.46;-1.18;389.08;122.25;40.00;1.05;-97.33;-78.06;5.80 
11.048;-1.02;0.10;-0.23;-0.42;1.88;-1.53;390.07;122.25;43.00;1.05;-97.29;-78.06;5.76 
11.078;-1.02;0.11;-0.26;0.00;1.88;-1.39;391.06;123.20;39.00;1.06;-97.26;-78.05;5.72 
11.108;-1.02;0.09;-0.26;0.07;1.39;-1.25;390.07;123.20;40.00;1.06;-97.21;-78.03;5.67 
11.138;-1.02;0.09;-0.26;-0.35;-0.21;-0.77;392.05;124.16;43.00;1.06;-97.21;-78.03;5.67 
11.168;-1.02;0.07;-0.21;-0.90;-0.14;0.00;392.05;125.11;38.00;1.04;-97.20;-78.06;5.66 
11.198;-1.02;0.10;-0.21;-0.56;1.74;-0.63;391.06;124.16;38.00;1.05;-97.16;-78.09;5.63 
11.229;-1.03;0.08;-0.24;-0.14;2.37;-0.07;388.09;123.20;41.00;1.06;-97.15;-78.07;5.61 
11.259;-1.02;0.10;-0.22;-0.35;2.37;0.90;390.07;123.20;40.00;1.05;-97.15;-78.04;5.61 
11.289;-1.05;0.12;-0.24;-0.21;2.16;0.14;387.10;124.16;39.00;1.08;-97.18;-78.00;5.64 
11.320;-1.02;0.10;-0.22;-0.28;1.53;-0.42;387.10;124.16;42.00;1.05;-97.19;-78.00;5.65 
11.350;-1.02;0.10;-0.23;-0.07;1.95;-0.56;387.10;126.07;43.00;1.05;-97.16;-77.99;5.62 
11.380;-1.01;0.07;-0.26;-0.35;1.39;-0.21;390.07;121.29;43.00;1.05;-97.12;-77.99;5.58 
11.410;-1.02;0.06;-0.28;-0.97;0.70;0.97;386.11;123.20;41.00;1.06;-97.12;-77.99;5.58 
11.439;-1.02;0.09;-0.25;-0.97;-0.21;2.02;389.08;126.07;39.00;1.05;-97.17;-77.97;5.63 
11.469;-1.00;0.11;-0.23;-0.63;-0.90;1.11;390.07;125.11;42.00;1.03;-97.22;-77.97;5.68 
11.499;-1.02;0.11;-0.22;-0.83;-1.39;0.90;389.08;123.20;42.00;1.05;-97.24;-78.01;5.72 
11.530;-1.02;0.10;-0.22;-0.21;0.49;0.63;388.09;121.29;43.00;1.05;-97.26;-78.05;5.75 
11.560;-1.02;0.07;-0.22;-0.07;2.09;0.63;388.09;121.29;38.00;1.05;-97.27;-78.03;5.76 
11.590;-1.02;0.07;-0.24;-0.21;1.11;1.11;391.06;120.34;41.00;1.05;-97.29;-78.00;5.77 
11.620;-1.02;0.09;-0.22;-0.56;-0.28;1.11;393.04;124.16;38.00;1.05;-97.31;-78.00;5.80 
11.650;-1.02;0.09;-0.26;-0.49;0.21;1.11;387.10;123.20;41.00;1.06;-97.33;-78.03;5.82 
11.679;-1.02;0.09;-0.23;-0.42;0.83;1.46;390.07;125.11;40.00;1.05;-97.36;-78.02;5.86 
11.709;-1.02;0.09;-0.26;-0.28;0.77;1.04;390.07;124.16;40.00;1.06;-97.39;-78.00;5.88 
11.740;-1.02;0.10;-0.25;-0.21;-0.28;1.46;392.05;120.34;40.00;1.05;-97.41;-77.99;5.91 
11.770;-1.02;0.13;-0.26;-0.83;-0.56;1.60;391.06;121.29;39.00;1.06;-97.47;-78.00;5.97 
11.800;-1.02;0.12;-0.22;-0.56;-0.49;0.83;393.04;122.25;41.00;1.05;-97.49;-78.03;6.01 
11.831;-1.02;0.09;-0.22;0.07;0.63;0.49;390.07;122.25;39.00;1.05;-97.51;-78.06;6.03 
11.861;-1.02;0.09;-0.26;-0.07;1.18;0.97;394.03;124.16;35.00;1.06;-97.52;-78.06;6.05 
11.891;-1.02;0.10;-0.24;-0.49;-0.28;1.18;388.09;123.20;40.00;1.05;-97.54;-78.06;6.07 
11.920;-1.01;0.12;-0.23;-1.11;-0.28;1.39;395.02;121.29;40.00;1.04;-97.57;-78.06;6.10 
11.950;-1.02;0.09;-0.23;-0.77;-0.07;1.11;395.02;124.16;37.00;1.05;-97.61;-78.08;6.15 
11.980;-1.00;0.09;-0.24;-0.28;0.21;1.04;393.04;118.43;38.00;1.03;-97.63;-78.08;6.18 
12.010;-1.02;0.10;-0.23;-0.42;0.83;1.18;390.07;120.34;38.00;1.05;-97.67;-78.09;6.23 
12.041;-1.02;0.10;-0.22;-0.90;0.49;0.63;394.03;120.34;35.00;1.05;-97.68;-78.11;6.25 
12.071;-1.02;0.11;-0.22;-0.83;0.00;0.49;395.02;119.38;37.00;1.05;-97.69;-78.13;6.27 
12.101;-1.02;0.10;-0.21;-0.83;0.56;0.56;394.03;121.29;35.00;1.05;-97.70;-78.16;6.29 
12.131;-1.00;0.11;-0.21;-0.21;0.90;-0.35;395.02;122.25;36.00;1.03;-97.70;-78.16;6.30 
12.160;-1.02;0.11;-0.22;-0.07;1.04;-0.35;395.02;122.25;41.00;1.05;-97.69;-78.17;6.29 
12.189;-1.02;0.10;-0.21;-0.56;1.04;0.00;393.04;118.43;39.00;1.05;-97.68;-78.16;6.28 
12.219;-1.02;0.12;-0.23;-1.11;0.49;0.14;394.03;120.34;38.00;1.05;-97.70;-78.16;6.30 
12.249;-1.03;0.10;-0.21;-0.28;0.90;0.07;397.00;121.29;36.00;1.06;-97.70;-78.16;6.31 
12.279;-1.00;0.14;-0.24;-0.07;1.25;0.07;393.04;123.20;36.00;1.04;-97.71;-78.16;6.32 
12.309;-1.02;0.10;-0.23;-0.14;1.32;-0.90;391.06;119.38;37.00;1.05;-97.71;-78.15;6.32 
12.340;-1.02;0.10;-0.26;-0.77;1.04;-0.83;398.98;120.34;37.00;1.06;-97.67;-78.13;6.28 
12.370;-1.04;0.12;-0.22;-0.77;0.77;0.49;391.06;122.25;38.00;1.07;-97.67;-78.14;6.28 
12.400;-1.03;0.13;-0.19;-0.35;1.04;-0.07;396.01;119.38;36.00;1.06;-97.69;-78.15;6.31 
12.429;-1.03;0.11;-0.23;-0.07;2.37;-0.70;396.01;120.34;37.00;1.06;-97.68;-78.14;6.31 
12.459;-1.02;0.12;-0.22;0.28;2.30;-0.70;395.02;123.20;38.00;1.05;-97.66;-78.12;6.28 
12.489;-1.02;0.10;-0.25;-0.35;1.46;-0.49;396.01;122.25;36.00;1.05;-97.64;-78.10;6.26 
12.519;-1.01;0.09;-0.23;-0.83;1.32;-0.70;390.07;120.34;36.00;1.04;-97.63;-78.09;6.25 
12.549;-1.02;0.10;-0.23;-0.35;1.74;-0.35;395.02;122.25;39.00;1.05;-97.59;-78.08;6.21 
12.579;-1.02;0.08;-0.24;-0.28;1.25;-0.42;390.07;122.25;40.00;1.05;-97.59;-78.07;6.21 
12.609;-1.00;0.12;-0.24;-0.14;1.18;-0.35;394.03;121.29;39.00;1.04;-97.59;-78.05;6.22 
12.640;-1.02;0.10;-0.24;-0.07;1.32;-0.83;393.04;123.20;38.00;1.05;-97.58;-78.04;6.21 
12.670;-1.02;0.12;-0.24;-0.49;1.60;-0.77;393.04;121.29;36.00;1.05;-97.55;-78.06;6.18 
12.699;-1.02;0.12;-0.22;-0.42;1.88;-0.63;394.03;118.43;36.00;1.05;-97.53;-78.06;6.15 
12.728;-1.02;0.10;-0.24;-0.07;1.25;-0.90;395.02;122.25;39.00;1.05;-97.50;-78.06;6.13 
12.758;-1.03;0.10;-0.24;-0.28;1.74;-0.77;390.07;119.38;36.00;1.06;-97.47;-78.05;6.10 
12.788;-1.02;0.10;-0.23;-0.70;1.46;-0.42;393.04;121.29;35.00;1.05;-97.44;-78.06;6.07 
12.818;-1.02;0.08;-0.22;-0.42;1.18;-0.42;392.05;123.20;40.00;1.05;-97.43;-78.03;6.07 
12.849;-1.01;0.11;-0.21;-0.21;2.57;-0.97;392.05;122.25;38.00;1.04;-97.41;-78.03;6.05 
12.879;-1.01;0.09;-0.20;0.14;2.78;-0.77;392.05;122.25;43.00;1.03;-97.39;-77.99;6.02 
12.909;-1.01;0.10;-0.26;0.21;2.43;-0.49;394.03;122.25;42.00;1.05;-97.35;-77.97;5.97 
12.940;-1.01;0.07;-0.26;-0.70;0.35;0.77;393.04;124.16;42.00;1.05;-97.34;-77.94;5.96 
12.970;-1.02;0.10;-0.25;-1.46;-1.04;1.60;394.03;122.25;39.00;1.05;-97.37;-77.95;6.00 
12.999;-1.02;0.14;-0.22;-1.04;0.35;0.90;394.03;121.29;43.00;1.05;-97.43;-77.95;6.07 
13.029;-1.02;0.10;-0.22;-0.14;2.30;-0.56;388.09;121.29;37.00;1.05;-97.44;-77.95;6.09 
13.059;-1.02;0.09;-0.25;0.14;2.23;-0.56;392.05;121.29;39.00;1.05;-97.43;-77.89;6.08 
13.089;-1.02;0.08;-0.28;-0.07;1.32;-0.77;392.05;121.29;42.00;1.06;-97.40;-77.89;6.05 
13.119;-1.03;0.11;-0.22;-0.28;1.67;-0.35;391.06;118.43;40.00;1.06;-97.38;-77.88;6.03 
13.150;-1.02;0.08;-0.26;-0.28;2.02;-0.42;393.04;120.34;39.00;1.06;-97.36;-77.87;6.01 
13.179;-1.02;0.10;-0.24;-0.49;1.95;-0.63;392.05;123.20;40.00;1.05;-97.34;-77.84;6.00 
13.208;-1.01;0.09;-0.24;-0.35;1.18;-0.35;395.02;123.20;40.00;1.04;-97.33;-77.82;5.98 
13.239;-1.01;0.10;-0.26;-0.77;0.90;-0.07;391.06;119.38;43.00;1.05;-97.32;-77.80;5.98 
13.269;-1.02;0.10;-0.22;-0.56;0.35;-0.14;392.05;118.43;40.00;1.05;-97.32;-77.80;5.97 
13.299;-1.02;0.11;-0.18;-0.07;0.83;-0.63;393.04;121.29;38.00;1.04;-97.30;-77.83;5.96 
13.329;-1.02;0.10;-0.23;0.49;1.67;-0.97;389.08;122.25;41.00;1.05;-97.27;-77.84;5.94 
13.359;-1.03;0.10;-0.26;-0.35;1.60;-0.21;393.04;123.20;38.00;1.07;-97.23;-77.83;5.90 
13.389;-1.02;0.10;-0.26;-1.11;0.49;0.49;390.07;124.16;42.00;1.06;-97.21;-77.82;5.88 
13.419;-1.01;0.10;-0.20;-0.90;-0.07;0.14;394.03;122.25;42.00;1.03;-97.19;-77.84;5.87 
13.449;-1.01;0.10;-0.23;0.21;2.23;-0.83;390.07;121.29;42.00;1.04;-97.18;-77.86;5.86 
13.479;-1.02;0.10;-0.22;0.21;2.78;-1.04;393.04;122.25;41.00;1.05;-97.17;-77.83;5.85 
13.509;-1.03;0.11;-0.26;0.07;2.02;-0.56;391.06;121.29;43.00;1.07;-97.15;-77.78;5.82 
13.539;-1.02;0.09;-0.26;-0.42;2.23;0.00;388.09;123.20;41.00;1.06;-97.11;-77.75;5.78 
13.569;-1.03;0.12;-0.26;-0.49;0.70;0.56;393.04;120.34;39.00;1.07;-97.10;-77.73;5.78 
13.599;-1.03;0.10;-0.24;-0.49;-0.90;0.28;391.06;121.29;42.00;1.06;-97.12;-77.74;5.80 
13.629;-1.02;0.11;-0.26;-0.35;0.63;0.07;391.06;123.20;41.00;1.06;-97.13;-77.77;5.82 
13.660;-1.02;0.10;-0.22;-0.56;1.39;0.49;389.08;121.29;39.00;1.05;-97.14;-77.76;5.83 
13.689;-1.02;0.11;-0.22;-0.77;1.88;0.35;393.04;120.34;42.00;1.05;-97.14;-77.74;5.84 
13.719;-1.00;0.10;-0.21;-0.28;1.67;-0.56;391.06;122.25;41.00;1.03;-97.15;-77.70;5.85 
13.750;-1.01;0.10;-0.26;-0.14;0.90;-0.77;390.07;123.20;42.00;1.05;-97.16;-77.68;5.86 
13.780;-1.02;0.09;-0.22;-0.28;0.83;-0.28;394.03;120.34;40.00;1.05;-97.12;-77.71;5.82 
13.810;-1.02;0.08;-0.23;-0.49;0.90;0.07;392.05;121.29;38.00;1.05;-97.12;-77.70;5.82 
13.840;-1.01;0.10;-0.23;-0.14;1.60;-0.83;391.06;121.29;42.00;1.04;-97.11;-77.70;5.82 
13.870;-1.02;0.08;-0.25;-0.21;2.16;-0.49;393.04;123.20;37.00;1.05;-97.08;-77.67;5.79 
13.900;-1.02;0.10;-0.23;-0.35;0.90;0.07;390.07;124.16;39.00;1.05;-97.09;-77.65;5.80 
13.929;-1.00;0.14;-0.21;-0.28;0.07;-0.35;389.08;122.25;43.00;1.03;-97.09;-77.65;5.80 
13.960;-1.02;0.10;-0.23;0.21;1.88;-1.18;392.05;121.29;40.00;1.05;-97.06;-77.67;5.78 
13.990;-1.02;0.10;-0.24;0.42;2.92;-0.56;389.08;123.20;39.00;1.05;-97.02;-77.64;5.73 
14.020;-1.03;0.09;-0.26;-0.42;0.90;-0.21;390.07;123.20;41.00;1.07;-96.98;-77.60;5.69 
14.051;-1.02;0.08;-0.22;-0.70;-0.21;0.14;392.05;123.20;39.00;1.05;-96.97;-77.62;5.68 
14.081;-1.03;0.09;-0.23;-0.49;1.39;0.28;391.06;121.29;39.00;1.06;-96.96;-77.65;5.69 
14.111;-1.03;0.11;-0.22;-0.21;1.60;-0.28;392.05;118.43;40.00;1.06;-96.95;-77.64;5.68 
14.140;-1.02;0.07;-0.18;0.00;1.39;-0.07;394.03;121.29;40.00;1.04;-96.95;-77.61;5.67 
14.170;-1.02;0.11;-0.29;-0.63;0.63;0.83;390.07;124.16;42.00;1.07;-96.95;-77.59;5.68 
14.200;-1.01;0.11;-0.26;-1.18;-2.09;1.39;393.04;122.25;41.00;1.05;-96.99;-77.59;5.73 
14.230;-1.02;0.12;-0.22;-0.97;-0.63;0.97;393.04;124.16;41.00;1.05;-97.01;-77.66;5.76 
14.261;-1.02;0.10;-0.22;-0.07;2.23;0.28;390.07;122.25;41.00;1.05;-97.03;-77.68;5.79 
14.291;-1.02;0.10;-0.26;-0.28;1.67;0.07;393.04;121.29;43.00;1.06;-97.03;-77.65;5.79 
14.321;-1.01;0.10;-0.26;-0.49;0.28;-0.14;391.06;123.20;38.00;1.05;-97.03;-77.66;5.79 
14.351;-1.02;0.08;-0.25;-0.49;0.42;-0.49;393.04;122.25;42.00;1.05;-97.01;-77.69;5.78 
14.380;-1.00;0.10;-0.22;-0.28;0.21;0.00;394.03;120.34;40.00;1.03;-96.98;-77.72;5.76 
14.410;-1.02;0.10;-0.23;0.00;0.42;0.35;392.05;120.34;39.00;1.05;-96.96;-77.73;5.74 
14.440;-1.02;0.08;-0.23;-0.21;0.77;0.63;393.04;123.20;39.00;1.05;-96.96;-77.74;5.75 
14.471;-1.02;0.10;-0.24;-0.90;-0.28;0.83;393.04;121.29;39.00;1.05;-96.98;-77.73;5.77 
14.501;-1.02;0.10;-0.24;-0.63;-0.21;0.42;393.04;120.34;42.00;1.05;-96.99;-77.75;5.79 
14.531;-1.03;0.09;-0.25;-0.49;0.77;0.63;394.03;122.25;42.00;1.06;-97.01;-77.76;5.81 
14.562;-1.04;0.10;-0.24;-0.77;0.49;1.11;393.04;123.20;39.00;1.07;-97.01;-77.75;5.82 
14.591;-1.00;0.10;-0.24;-0.63;0.14;1.04;393.04;123.20;39.00;1.03;-97.03;-77.75;5.84 
14.621;-1.05;0.13;-0.21;-0.90;0.90;0.56;391.06;118.43;36.00;1.08;-97.04;-77.73;5.86 
14.651;-1.02;0.10;-0.25;-0.77;0.70;0.49;393.04;124.16;35.00;1.05;-97.06;-77.71;5.88 
14.681;-1.02;0.12;-0.21;-0.42;1.18;-0.35;392.05;118.43;41.00;1.05;-97.06;-77.73;5.90 
14.711;-1.00;0.08;-0.22;0.00;1.46;-0.42;390.07;123.20;39.00;1.03;-97.06;-77.71;5.90 
14.741;-1.03;0.10;-0.26;0.21;0.90;0.35;392.05;123.20;39.00;1.07;-97.07;-77.68;5.91 
14.772;-1.02;0.10;-0.21;-0.63;0.42;0.63;392.05;124.16;39.00;1.05;-97.08;-77.65;5.92 
14.801;-1.03;0.09;-0.26;-1.25;-0.14;1.39;393.04;119.38;37.00;1.07;-97.10;-77.68;5.94 
14.830;-1.04;0.11;-0.25;-1.32;-0.56;2.09;394.03;121.29;37.00;1.08;-97.14;-77.69;5.99 
14.861;-1.06;0.13;-0.22;-1.53;0.49;2.78;392.05;121.29;40.00;1.09;-97.18;-77.70;6.05 
14.891;-1.06;0.07;-0.22;-2.09;0.28;4.45;394.03;122.25;38.00;1.08;-97.24;-77.66;6.12 
14.921;-1.06;0.06;-0.30;-2.92;-3.62;6.89;397.00;119.38;34.00;1.10;-97.36;-77.64;6.25 
14.951;-1.02;0.11;-0.30;-3.34;-9.39;7.37;397.00;119.38;39.00;1.07;-97.53;-77.69;6.45 
14.981;-1.02;0.10;-0.26;-2.64;-11.97;5.36;397.99;118.43;31.00;1.06;-97.68;-77.88;6.64 
15.011;-1.02;0.12;-0.29;-3.62;-13.57;4.52;398.98;118.43;30.00;1.07;-97.79;-78.11;6.79 
15.041;-1.06;0.13;-0.30;-4.80;-18.37;4.59;397.99;117.47;26.00;1.11;-97.88;-78.40;6.94 
15.072;-1.07;0.14;-0.27;-6.19;-23.44;5.15;402.94;121.29;23.00;1.11;-98.00;-78.78;7.13 
