Time(s) acc_x(g) acc_y(g) acc_z(g) gyr_x(°/s) gyr_y(°/s) gyr_z(°/s) mag_x(G) mag_y(G) mag_z(G) SVM(g) yaw(°) pitch(°) roll(°)
0.000;-0.37;0.45;0.83;10.09;-6.40;-20.87;392.34;-114.04;-319.00;1.01;-49.76;8.92;21.65 
0.030;-0.52;0.40;0.76;11.20;1.25;-4.45;395.34;-113.08;-325.00;1.00;-49.53;8.72;22.16 
0.060;-0.54;0.12;0.62;11.97;-14.40;-2.37;397.34;-114.04;-322.00;0.83;-49.59;8.72;22.56 
0.090;-0.46;-0.11;0.59;9.32;-17.53;-13.15;396.34;-115.00;-325.00;0.76;-49.51;8.87;22.70 
0.121;-0.35;-0.06;0.67;9.32;-14.75;-23.17;397.34;-114.04;-326.00;0.76;-49.21;8.98;22.66 
0.151;-0.40;0.14;0.74;2.71;-4.94;-30.40;393.34;-111.16;-327.00;0.85;-48.60;8.88;22.74 
0.181;-0.35;0.30;0.83;-10.50;5.36;-24.49;390.35;-113.08;-330.00;0.95;-48.05;8.54;22.70 
0.211;-0.41;0.38;0.91;-23.51;-1.39;-9.53;387.35;-105.41;-328.00;1.07;-47.83;8.16;22.31 
0.241;-0.38;0.37;0.86;-31.86;-17.74;10.99;381.36;-108.29;-337.00;1.01;-48.10;8.36;21.54 
0.271;-0.26;0.29;0.74;-36.45;-24.49;29.70;377.37;-114.04;-342.00;0.84;-48.95;9.16;20.49 
0.301;-0.16;0.12;0.67;-36.24;-17.04;40.28;375.37;-121.70;-347.00;0.70;-50.32;10.19;19.19 
0.332;-0.10;0.00;0.65;-35.27;-5.36;33.25;372.38;-129.37;-355.00;0.66;-51.88;10.99;17.64 
0.361;-0.05;-0.03;0.70;-31.23;8.77;29.98;367.39;-132.25;-360.00;0.70;-53.28;11.47;16.19 
0.390;-0.10;0.00;0.76;-25.67;14.05;29.01;366.39;-132.25;-362.00;0.77;-54.55;11.73;15.11 
0.421;-0.10;0.07;0.81;-17.95;12.10;33.53;370.38;-136.08;-364.00;0.82;-55.89;11.67;14.11 
0.451;-0.06;0.00;0.77;-6.40;-0.97;44.52;364.39;-137.04;-365.00;0.77;-57.46;11.93;13.27 
0.481;-0.13;-0.03;0.73;6.12;5.08;47.17;371.38;-142.79;-370.00;0.74;-59.20;12.37;12.70 
0.511;-0.22;0.04;0.82;15.65;19.76;51.13;381.36;-146.62;-363.00;0.85;-61.01;12.39;12.49 
0.541;-0.25;-0.06;1.08;8.77;23.65;46.33;387.35;-152.37;-364.00;1.11;-62.97;12.07;12.32 
0.571;-0.11;0.03;1.35;-13.01;10.09;23.37;394.34;-151.41;-360.00;1.35;-64.46;11.76;11.80 
0.601;0.00;0.36;1.38;-20.45;-26.43;40.90;393.34;-154.29;-366.00;1.43;-65.63;12.45;11.10 
0.632;-0.38;0.16;1.06;-23.79;-19.62;64.77;393.34;-170.58;-370.00;1.14;-67.51;13.70;10.09 
0.662;-0.43;-0.27;1.06;-23.65;3.90;47.72;395.34;-179.20;-374.00;1.18;-69.82;14.08;8.71 
0.692;-0.44;-0.34;1.11;-50.64;1.88;-5.36;390.35;-182.08;-375.00;1.24;-70.92;13.83;7.14 
0.722;-0.58;0.00;0.87;-38.89;-29.98;4.59;383.36;-181.12;-384.00;1.05;-71.17;14.00;5.55 
0.752;-0.63;0.31;0.64;-19.13;-18.50;31.17;376.37;-192.62;-392.00;0.95;-71.94;14.52;4.65 
0.782;-0.42;0.35;0.70;-6.12;-4.17;45.08;377.37;-198.37;-392.00;0.89;-73.34;14.62;4.30 
0.812;-0.36;0.04;0.82;4.03;-0.90;39.86;377.37;-202.20;-393.00;0.90;-74.90;14.55;3.98 
0.843;-0.35;-0.10;0.89;21.84;-4.80;27.97;382.36;-208.91;-393.00;0.96;-76.36;14.43;3.93 
0.873;-0.30;-0.14;0.77;31.72;-18.64;-0.21;389.35;-213.70;-390.00;0.84;-77.25;14.63;4.33 
0.903;-0.26;-0.07;0.58;36.59;-13.01;-21.98;398.33;-212.74;-386.00;0.64;-77.33;14.93;5.08 
0.934;-0.24;0.00;0.51;32.97;7.72;-41.25;403.33;-211.78;-385.00;0.56;-76.76;14.69;6.11 
0.964;-0.23;0.17;0.62;32.90;24.70;-53.08;403.33;-207.95;-377.00;0.68;-75.64;13.82;7.38 
0.994;-0.22;0.34;0.70;33.25;25.04;-42.09;410.31;-192.62;-371.00;0.81;-74.50;12.71;8.81 
1.024;-0.27;0.30;0.75;26.85;24.90;-35.41;406.32;-182.08;-363.00;0.85;-73.67;11.64;10.11 
1.054;-0.26;0.24;0.81;18.09;17.32;-30.75;411.31;-175.37;-360.00;0.88;-73.03;10.69;11.09 
1.084;-0.18;0.18;0.80;9.46;6.26;-37.57;413.31;-169.62;-356.00;0.84;-72.40;10.08;11.68 
1.114;-0.14;0.29;0.77;1.11;-1.88;-38.40;407.32;-161.95;-354.00;0.83;-71.60;9.79;12.04 
1.145;-0.10;0.37;0.80;-8.14;-7.17;-31.03;399.33;-157.16;-354.00;0.89;-70.81;9.78;12.21 
1.175;-0.10;0.26;0.78;-11.76;-3.55;-23.93;399.33;-153.33;-358.00;0.83;-70.29;9.86;12.14 
1.205;-0.18;0.14;0.81;-12.80;3.55;-24.97;395.34;-154.29;-359.00;0.84;-69.94;9.79;11.88 
1.235;-0.23;0.34;0.90;-12.17;16.00;-18.99;389.35;-151.41;-357.00;0.99;-69.58;9.43;11.67 
1.265;-0.06;0.35;1.15;7.30;29.50;-10.78;384.36;-144.70;-358.00;1.20;-69.58;8.67;11.67 
1.295;-0.10;0.02;1.37;29.01;14.12;-11.06;386.35;-138.00;-350.00;1.37;-69.76;8.04;12.11 
1.325;-0.26;0.06;1.38;27.34;-33.32;-47.86;390.35;-137.04;-350.00;1.41;-69.39;8.07;12.80 
1.356;-0.42;0.57;0.95;10.09;-53.63;-40.35;387.35;-138.95;-347.00;1.18;-67.93;9.14;13.62 
1.386;-0.66;0.72;0.68;10.30;-6.05;9.46;385.36;-139.91;-354.00;1.19;-67.32;9.88;14.16 
1.416;-0.64;0.52;0.68;32.63;34.16;57.04;390.35;-143.74;-352.00;1.07;-68.54;9.30;15.16 
1.447;-0.61;0.00;0.78;14.12;-0.90;45.84;400.33;-146.62;-350.00;0.99;-70.55;8.79;15.68 
1.477;-0.46;-0.27;0.79;-3.06;-21.50;14.75;409.32;-153.33;-350.00;0.95;-71.89;9.24;15.32 
1.507;-0.27;-0.08;0.86;-13.63;-7.58;-10.50;406.32;-156.20;-351.00;0.90;-72.31;9.54;14.67 
1.537;-0.29;0.18;0.84;-24.77;-10.02;-18.37;400.33;-159.08;-352.00;0.91;-72.24;9.60;13.96 
1.566;-0.27;0.25;0.77;-31.93;-11.76;-12.94;398.33;-154.29;-357.00;0.85;-72.06;9.68;13.18 
1.596;-0.26;0.30;0.70;-34.16;-7.58;0.35;391.35;-155.24;-362.00;0.80;-72.12;9.79;12.33 
1.626;-0.26;0.42;0.72;-34.09;-0.77;26.64;380.36;-160.04;-370.00;0.87;-72.77;9.87;11.41 
1.657;-0.26;0.21;0.77;-35.41;-2.30;49.11;378.37;-161.95;-371.00;0.84;-74.24;10.01;10.29 
1.687;-0.20;-0.03;0.70;-32.14;-5.77;55.79;378.37;-172.49;-375.00;0.73;-76.29;10.33;8.83 
1.717;-0.18;-0.10;0.65;-26.23;1.32;47.44;376.37;-177.29;-377.00;0.68;-78.25;10.53;7.37 
1.747;-0.06;-0.03;0.64;-17.04;14.61;42.23;377.37;-182.08;-384.00;0.64;-79.98;10.39;6.19 
1.777;-0.12;0.01;0.67;-5.08;15.30;47.58;376.37;-182.08;-378.00;0.68;-81.76;10.08;5.41 
1.807;-0.17;-0.08;0.74;7.17;17.60;48.70;379.37;-185.91;-382.00;0.76;-83.63;9.63;4.98 
1.837;-0.18;-0.02;0.82;10.78;21.57;40.35;384.36;-190.70;-377.00;0.84;-85.40;9.07;4.81 
1.868;-0.22;0.20;0.95;10.50;10.16;36.73;392.34;-192.62;-377.00;1.00;-86.95;8.51;4.87 
1.898;-0.26;0.00;1.02;8.21;7.03;40.63;395.34;-193.58;-374.00;1.05;-88.59;8.26;4.97 
1.927;-0.10;-0.04;1.18;-7.51;11.41;16.28;401.33;-198.37;-371.00;1.18;-89.87;7.97;4.70 
1.957;0.00;0.19;1.25;-21.15;-2.92;13.15;402.33;-201.24;-371.00;1.26;-90.61;7.96;4.13 
1.987;-0.34;0.26;1.15;-23.30;2.37;30.82;394.34;-204.12;-375.00;1.23;-91.63;8.14;3.37 
2.017;-0.41;-0.06;1.19;-27.41;8.70;21.84;391.35;-206.99;-378.00;1.26;-92.90;7.79;2.46 
2.047;-0.40;-0.25;1.17;-47.86;-19.06;-15.17;388.35;-208.91;-380.00;1.26;-93.45;7.76;1.25 
2.077;-0.45;-0.16;0.76;-37.57;-55.93;-16.97;375.37;-210.83;-386.00;0.90;-93.15;8.60;-0.36 
2.107;-0.52;0.09;0.49;-12.45;-29.08;0.49;366.39;-219.45;-394.00;0.72;-93.32;9.62;-1.31 
2.137;-0.46;0.26;0.65;-6.75;16.97;5.84;365.39;-219.45;-398.00;0.84;-93.71;9.37;-1.48 
2.168;-0.44;0.30;1.02;3.76;28.17;13.70;367.39;-217.53;-397.00;1.15;-94.33;8.19;-1.45 
2.198;-0.31;0.05;1.02;22.47;-2.30;28.17;369.38;-219.45;-396.00;1.07;-95.25;7.44;-1.09 
2.228;-0.22;-0.20;0.77;43.62;-17.67;21.63;382.36;-225.20;-390.00;0.83;-96.46;7.55;-0.35 
2.258;-0.19;-0.22;0.54;49.88;-8.21;-8.35;390.35;-227.12;-385.00;0.61;-97.20;7.87;0.70 
2.288;-0.24;-0.06;0.51;43.69;19.13;-34.16;395.34;-226.16;-380.00;0.57;-96.95;7.47;1.92 
2.318;-0.24;0.20;0.62;37.36;29.77;-47.10;401.33;-219.45;-376.00;0.69;-96.17;6.43;3.22 
2.348;-0.26;0.38;0.70;33.25;20.45;-41.25;405.32;-212.74;-369.00;0.84;-95.23;5.35;4.62 
2.379;-0.30;0.34;0.74;27.62;7.44;-30.33;412.31;-199.33;-360.00;0.87;-94.55;4.59;5.92 
2.409;-0.21;0.21;0.69;17.81;-6.40;-29.29;415.31;-197.41;-357.00;0.75;-94.03;4.32;6.81 
2.439;-0.19;0.16;0.66;8.90;-7.37;-42.30;412.31;-194.53;-353.00;0.71;-93.38;4.31;7.31 
2.469;-0.12;0.31;0.74;-4.59;-4.80;-50.85;410.31;-190.70;-357.00;0.81;-92.29;4.20;7.53 
2.498;-0.17;0.36;0.82;-10.43;-2.85;-42.99;405.32;-182.08;-358.00;0.91;-91.19;4.14;7.55 
2.527;-0.22;0.26;0.86;-18.50;-11.55;-31.51;398.33;-180.16;-357.00;0.92;-90.44;4.11;7.39 
2.557;-0.25;0.43;0.94;-8.49;6.47;-19.48;395.34;-179.20;-362.00;1.06;-89.99;4.20;7.09 
2.587;-0.02;0.43;1.25;23.03;40.21;-1.60;393.34;-175.37;-357.00;1.32;-90.16;3.37;7.49 
2.617;-0.18;-0.01;1.41;38.05;0.97;-16.14;398.33;-168.66;-348.00;1.42;-90.52;2.71;8.40 
2.647;-0.38;0.20;1.18;25.53;-35.90;-49.39;402.33;-172.49;-351.00;1.26;-89.82;3.29;9.31 
2.676;-0.56;0.74;0.90;2.30;-33.32;-23.17;401.33;-172.49;-350.00;1.29;-88.60;4.16;9.93 
2.705;-0.59;0.65;0.74;35.62;18.09;22.26;398.33;-170.58;-351.00;1.15;-88.77;4.29;10.59 
2.735;-0.62;0.09;0.70;33.88;19.20;38.89;407.32;-171.54;-346.00;0.94;-90.28;3.64;11.56 
2.766;-0.53;-0.32;0.86;14.75;2.23;1.67;416.30;-173.45;-340.00;1.06;-91.52;3.09;12.14 
2.796;-0.36;-0.24;0.97;-3.62;-9.81;-38.40;415.31;-173.45;-338.00;1.06;-91.32;2.89;11.78 
2.826;-0.38;0.04;0.95;-14.96;-15.86;-44.45;410.31;-169.62;-342.00;1.02;-90.48;2.86;11.27 
2.856;-0.40;0.26;0.80;-22.40;-27.27;-40.35;401.33;-169.62;-343.00;0.93;-89.42;3.03;10.72 
2.886;-0.30;0.26;0.64;-23.03;-28.38;-20.38;396.34;-171.54;-352.00;0.75;-88.66;3.52;10.15 
2.916;-0.26;0.28;0.54;-26.92;-16.14;-2.37;389.35;-174.41;-356.00;0.66;-88.55;3.98;9.57 
2.946;-0.19;0.23;0.56;-29.84;6.75;16.90;384.36;-174.41;-359.00;0.63;-89.06;4.07;8.89 
2.977;-0.22;0.09;0.65;-29.01;20.24;30.12;381.36;-175.37;-362.00;0.69;-90.26;3.60;7.96 
3.007;-0.22;-0.06;0.82;-22.33;20.94;31.65;378.37;-175.37;-364.00;0.85;-91.73;3.20;7.01 
3.037;-0.21;-0.02;0.88;-12.59;-3.97;26.50;381.36;-180.16;-363.00;0.90;-92.99;2.93;6.17 
3.067;-0.15;-0.02;0.73;-4.52;-25.81;24.28;379.37;-183.04;-366.00;0.75;-94.19;3.43;5.62 
3.096;0.01;0.00;0.62;7.30;-17.46;26.02;382.36;-190.70;-370.00;0.62;-95.21;4.30;5.46 
3.126;0.01;-0.09;0.62;18.71;2.57;32.90;384.36;-195.49;-371.00;0.63;-96.43;4.78;5.50 
3.155;-0.07;0.10;0.68;19.06;28.24;26.57;397.34;-199.33;-365.00;0.69;-97.78;4.52;5.83 
3.184;-0.26;0.40;0.90;11.55;62.19;22.61;399.33;-194.53;-363.00;1.02;-98.99;3.22;6.31 
3.213;-0.49;0.18;1.34;4.45;46.26;34.99;401.33;-190.70;-358.00;1.44;-100.40;1.40;6.63 
3.243;-0.21;0.12;1.58;-26.16;-19.83;18.37;404.32;-189.74;-353.00;1.60;-101.61;0.81;6.32 
3.273;-0.13;0.19;1.22;-36.10;-52.17;18.71;403.33;-196.45;-358.00;1.24;-102.40;2.13;5.18 
3.303;-0.29;0.01;0.91;-25.32;-6.12;31.79;396.34;-212.74;-368.00;0.96;-103.39;3.20;4.17 
3.333;-0.50;-0.43;1.04;-32.42;42.02;-9.53;390.35;-211.78;-369.00;1.23;-104.31;2.36;3.03 
3.364;-0.62;-0.38;0.97;-41.81;7.03;-48.42;383.36;-204.12;-368.00;1.21;-103.83;1.10;1.54 
3.394;-0.51;0.16;0.57;-11.06;-37.63;-26.37;373.38;-196.45;-370.00;0.78;-102.83;1.13;0.60 
3.424;-0.48;0.31;0.41;17.81;-23.65;14.26;375.37;-206.99;-372.00;0.70;-102.97;1.69;0.90 
3.454;-0.37;0.05;0.56;14.82;24.00;12.03;377.37;-208.91;-373.00;0.67;-103.89;1.28;1.55 
3.484;-0.33;-0.03;1.05;14.96;40.63;-9.25;383.36;-202.20;-364.00;1.10;-104.32;-0.13;1.93 
3.514;-0.51;-0.17;1.18;28.38;-3.69;-18.64;384.36;-194.53;-365.00;1.30;-104.39;-0.97;2.32 
3.544;-0.43;0.00;0.91;38.19;-40.00;-32.00;392.34;-196.45;-360.00;1.01;-103.97;-0.63;3.06 
3.575;-0.26;0.10;0.62;44.17;-45.57;-34.57;394.34;-200.28;-356.00;0.68;-103.32;0.44;4.25 
3.605;-0.22;0.21;0.49;40.14;-17.74;-39.10;404.32;-201.24;-353.00;0.58;-102.50;1.21;5.69 
3.635;-0.18;0.23;0.56;33.32;15.79;-40.35;404.32;-198.37;-350.00;0.63;-101.73;0.95;7.01 
3.666;-0.19;0.25;0.66;25.46;32.21;-36.24;408.32;-184.95;-341.00;0.73;-101.03;-0.07;8.08 
3.696;-0.24;0.24;0.78;15.51;26.57;-32.90;409.32;-176.33;-333.00;0.85;-100.55;-1.29;8.77 
3.726;-0.26;0.27;0.80;5.01;7.03;-29.29;405.32;-171.54;-331.00;0.88;-100.09;-2.10;9.13 
3.756;-0.21;0.32;0.78;-2.30;-11.34;-18.37;408.32;-169.62;-328.00;0.87;-99.76;-2.27;9.24 
3.787;-0.12;0.30;0.74;-10.16;-13.57;-6.96;406.32;-169.62;-329.00;0.81;-99.72;-1.96;9.22 
3.816;-0.12;0.26;0.84;-16.77;-9.04;2.16;402.33;-168.66;-329.00;0.89;-99.99;-1.60;8.90 
3.846;-0.16;0.15;0.95;-15.86;-12.80;7.03;401.33;-169.62;-334.00;0.97;-100.45;-1.30;8.42 
3.876;-0.19;0.03;0.98;-2.43;-10.37;12.31;401.33;-169.62;-335.00;1.00;-101.09;-0.92;8.02 
3.905;-0.16;0.02;1.05;3.13;-1.53;-4.45;405.32;-175.37;-335.00;1.06;-101.66;-0.73;7.89 
3.934;-0.17;0.01;1.20;-2.85;-13.22;-23.44;401.33;-174.41;-338.00;1.21;-101.65;-0.64;7.75 
3.965;-0.48;0.46;1.18;-10.30;-16.07;-27.83;400.33;-173.45;-338.00;1.35;-101.16;-0.48;7.63 
3.994;-0.77;0.77;0.94;-17.04;-12.59;7.65;396.34;-173.45;-339.00;1.44;-101.00;-0.20;7.36 
4.024;-0.73;0.56;0.68;19.13;14.89;54.61;395.34;-175.37;-340.00;1.14;-102.20;-0.42;7.64 
4.054;-0.58;0.00;0.65;-8.97;-0.83;54.19;407.32;-181.12;-344.00;0.87;-104.24;-0.90;7.91 
4.084;-0.46;-0.26;0.70;-24.49;16.83;33.25;408.32;-188.78;-344.00;0.88;-106.16;-1.21;7.10 
4.114;-0.38;-0.05;1.02;-35.06;36.52;-2.99;406.32;-189.74;-347.00;1.09;-106.99;-2.27;5.86 
4.144;-0.42;0.20;1.17;-32.83;-6.75;8.70;403.33;-182.08;-347.00;1.26;-107.39;-3.10;4.75 
4.175;-0.28;0.30;0.90;-32.83;-45.98;35.41;397.34;-188.78;-356.00;0.99;-108.31;-2.39;3.82 
4.205;-0.19;0.27;0.63;-40.14;-39.86;58.37;393.34;-203.16;-362.00;0.71;-110.11;-1.06;3.03 
4.235;-0.19;0.09;0.58;-52.45;3.27;65.11;387.35;-215.62;-371.00;0.62;-112.25;-0.51;1.81 
4.265;-0.30;0.03;0.71;-58.43;39.30;73.53;384.36;-225.20;-375.00;0.77;-114.63;-1.35;0.17 
4.295;-0.43;0.00;0.79;-60.87;39.58;87.23;376.37;-225.20;-378.00;0.90;-117.41;-3.01;-1.52 
4.325;-0.50;-0.20;0.83;-64.63;26.71;94.75;369.38;-230.95;-386.00;0.99;-120.41;-4.53;-3.29 
4.355;-0.51;-0.23;0.79;-74.30;16.49;80.56;361.40;-235.74;-390.00;0.97;-123.42;-5.77;-5.20 
