Time(s) acc_x(g) acc_y(g) acc_z(g) gyr_x(°/s) gyr_y(°/s) gyr_z(°/s) mag_x(G) mag_y(G) mag_z(G) SVM(g) yaw(°) pitch(°) roll(°)
0.000;-0.59;0.18;0.70;-3.20;8.14;10.09;-69.00;41.26;-322.73;0.93;140.56;-39.57;5.96 
0.030;-0.58;0.05;0.72;-3.20;7.03;9.88;-63.00;43.18;-322.73;0.93;140.13;-39.67;6.14 
0.060;-0.58;0.14;0.74;-4.17;3.27;5.29;-63.00;42.22;-321.73;0.95;139.82;-39.76;6.22 
0.090;-0.56;0.16;0.70;-4.87;0.70;6.54;-62.00;44.14;-320.73;0.91;139.58;-39.75;6.30 
0.119;-0.57;0.15;0.69;-5.29;2.30;8.00;-60.00;45.10;-317.74;0.91;139.28;-39.75;6.40 
0.150;-0.58;0.14;0.69;-4.87;5.15;8.49;-61.00;47.98;-315.74;0.91;138.91;-39.82;6.52 
0.180;-0.57;0.12;0.69;-3.69;5.29;6.68;-67.00;49.90;-316.74;0.90;138.55;-39.93;6.62 
0.210;-0.59;0.11;0.71;-3.34;4.45;6.40;-62.00;49.90;-318.74;0.93;138.25;-40.03;6.69 
0.241;-0.60;0.13;0.70;-3.13;1.60;6.26;-62.00;47.98;-319.74;0.93;138.01;-40.05;6.78 
0.271;-0.62;0.14;0.67;-2.64;-0.56;8.49;-60.00;50.86;-315.74;0.92;137.74;-40.04;6.90 
0.300;-0.60;0.16;0.66;-0.56;1.46;8.97;-63.00;49.90;-319.74;0.91;137.47;-39.98;7.09 
0.330;-0.62;0.14;0.66;0.28;4.38;6.40;-61.00;52.77;-315.74;0.92;137.17;-40.04;7.31 
0.360;-0.60;0.08;0.70;3.13;5.50;-1.67;-58.00;51.82;-314.74;0.93;137.06;-40.19;7.39 
0.390;-0.61;0.12;0.70;6.26;5.43;-7.37;-60.00;53.73;-316.74;0.94;137.20;-40.33;7.41 
0.420;-0.64;0.16;0.68;3.97;-2.09;-12.10;-60.00;54.69;-314.74;0.95;137.56;-40.43;7.41 
0.451;-0.58;0.23;0.65;1.53;-2.30;-11.48;-62.00;53.73;-314.74;0.90;138.04;-40.39;7.33 
0.480;-0.59;0.25;0.66;-0.28;2.02;-5.36;-60.00;50.86;-315.74;0.92;138.32;-40.41;7.31 
0.509;-0.59;0.22;0.63;0.07;10.43;-3.69;-61.00;52.77;-316.74;0.89;138.38;-40.60;7.32 
0.539;-0.61;0.21;0.74;-2.23;8.28;-1.46;-61.00;51.82;-316.74;0.98;138.32;-40.88;7.33 
0.569;-0.65;0.20;0.70;-6.19;0.42;3.27;-61.00;57.57;-312.74;0.98;138.17;-40.98;7.33 
0.599;-0.64;0.23;0.72;-6.89;-3.34;11.13;-63.00;53.73;-313.74;0.99;137.92;-40.89;7.40 
0.629;-0.58;0.19;0.66;-8.35;-5.36;16.70;-63.00;60.45;-312.74;0.90;137.44;-40.68;7.62 
0.660;-0.59;0.17;0.63;-9.95;-1.04;17.25;-62.00;56.61;-313.74;0.88;136.82;-40.52;7.84 
0.690;-0.60;0.16;0.66;-10.57;2.57;18.57;-61.00;56.61;-309.74;0.91;136.10;-40.46;8.00 
0.720;-0.59;0.19;0.72;-10.50;2.43;22.89;-62.00;58.53;-311.74;0.95;135.30;-40.41;8.21 
0.751;-0.64;0.13;0.68;-13.91;-0.49;22.47;-60.00;60.45;-310.74;0.94;134.37;-40.31;8.44 
0.781;-0.58;0.14;0.69;-13.08;-1.25;19.76;-57.00;65.25;-307.75;0.91;133.56;-40.19;8.57 
0.811;-0.59;0.11;0.67;-12.45;-2.02;19.97;-58.00;63.33;-308.74;0.90;132.83;-40.04;8.68 
0.841;-0.62;0.14;0.66;-11.48;-0.77;18.64;-56.00;61.41;-306.75;0.92;132.14;-39.91;8.81 
0.871;-0.59;0.18;0.70;-11.90;-1.11;18.43;-58.00;68.13;-306.75;0.93;131.42;-39.80;8.94 
0.901;-0.61;0.18;0.66;-12.10;-2.23;18.71;-53.00;68.13;-306.75;0.92;130.77;-39.64;9.04 
0.931;-0.61;0.15;0.68;-11.62;0.28;18.16;-58.00;68.13;-305.75;0.93;130.09;-39.51;9.17 
0.962;-0.60;0.16;0.69;-11.69;-0.14;18.99;-58.00;72.92;-302.75;0.93;129.36;-39.41;9.30 
0.991;-0.61;0.18;0.67;-10.37;-2.43;21.36;-56.00;71.97;-301.75;0.92;128.63;-39.25;9.48 
1.020;-0.60;0.20;0.69;-10.43;-2.16;20.24;-56.00;74.84;-299.75;0.94;127.96;-39.03;9.71 
1.049;-0.60;0.19;0.71;-9.81;-6.82;20.03;-54.00;76.76;-301.75;0.95;127.37;-38.78;9.90 
1.079;-0.59;0.16;0.69;-10.78;-4.24;22.96;-52.00;75.80;-303.75;0.92;126.72;-38.43;10.15 
1.109;-0.57;0.13;0.64;-8.83;0.07;23.37;-50.00;76.76;-299.75;0.87;126.00;-38.20;10.40 
1.139;-0.62;0.15;0.61;-9.32;3.90;21.29;-50.00;78.68;-301.75;0.88;125.23;-38.13;10.61 
1.169;-0.64;0.14;0.62;-9.25;8.77;14.12;-48.00;81.56;-299.75;0.90;124.45;-38.26;10.75 
1.199;-0.59;0.14;0.62;-8.00;10.09;9.53;-45.00;81.56;-297.75;0.87;123.90;-38.50;10.76 
1.229;-0.58;0.26;0.63;-12.45;12.38;18.71;-48.00;85.40;-295.76;0.89;123.23;-38.76;10.85 
1.260;-0.58;0.23;0.59;-19.97;13.15;22.33;-47.00;89.24;-289.76;0.86;122.19;-39.00;11.05 
1.290;-0.55;0.23;0.57;-24.63;12.45;26.23;-45.00;94.99;-285.76;0.82;121.04;-39.23;11.09 
1.320;-0.57;0.24;0.53;-25.32;12.94;35.76;-47.00;100.75;-283.77;0.81;119.67;-39.40;11.20 
1.350;-0.51;0.15;0.51;-34.99;19.48;43.76;-43.00;103.63;-276.77;0.74;117.95;-39.59;11.41 
1.380;-0.54;0.09;0.55;-39.23;19.97;41.81;-43.00;111.31;-274.77;0.78;115.94;-39.89;11.42 
1.409;-0.62;0.00;0.49;-29.63;23.10;39.23;-43.00;118.98;-263.78;0.79;114.18;-40.31;11.31 
1.439;-0.61;-0.06;0.47;-18.57;30.89;41.46;-39.00;128.58;-255.79;0.77;112.52;-40.86;11.44 
1.469;-0.60;0.02;0.47;-23.44;33.32;30.12;-36.00;130.50;-250.79;0.76;110.79;-41.66;11.54 
1.498;-0.61;0.13;0.47;-28.03;41.25;19.20;-34.00;137.21;-240.80;0.78;109.31;-42.60;11.41 
1.528;-0.54;0.18;0.50;-20.66;44.73;27.69;-34.00;146.81;-230.81;0.76;107.91;-43.72;11.34 
1.559;-0.61;0.22;0.58;-28.45;41.67;45.29;-29.00;160.24;-218.82;0.87;105.85;-44.70;11.71 
1.589;-0.76;0.31;0.65;-35.62;31.58;42.16;-31.00;162.16;-211.82;1.05;103.70;-45.56;12.02 
1.619;-0.70;0.25;0.68;-46.75;7.51;58.78;-19.00;173.68;-199.83;1.01;101.70;-45.73;12.37 
1.649;-0.77;0.14;0.60;-59.27;-13.36;56.42;-15.00;181.35;-188.84;0.99;99.83;-45.20;12.57 
1.679;-0.77;0.18;0.47;-64.70;-24.28;36.52;-13.00;189.03;-180.85;0.92;98.52;-44.43;12.21 
1.709;-0.54;0.28;0.48;-66.23;-20.80;52.45;-13.00;198.62;-175.85;0.77;97.35;-43.64;11.80 
1.739;-0.45;0.24;0.43;-73.60;-14.61;61.36;-10.00;206.30;-171.86;0.67;95.53;-42.76;11.70 
1.770;-0.55;0.12;0.29;-65.18;-5.50;71.03;-10.00;214.94;-169.86;0.63;93.52;-42.17;11.56 
1.800;-0.62;0.03;0.30;-55.23;34.92;58.64;8.00;222.61;-160.87;0.69;91.14;-42.43;11.71 
1.830;-0.57;-0.02;0.51;-64.56;32.63;19.83;8.00;232.21;-146.88;0.77;89.63;-43.49;11.11 
1.861;-0.48;0.26;0.47;-72.77;-2.23;15.86;4.00;234.13;-139.88;0.72;88.92;-44.11;10.00 
1.891;-0.43;0.36;0.35;-70.40;-24.49;47.37;4.00;237.01;-139.88;0.66;87.70;-43.77;9.49 
1.921;-0.52;-0.07;0.26;-78.75;-29.36;54.47;10.00;238.92;-137.89;0.59;85.96;-43.07;9.31 
1.951;-0.56;-0.26;0.26;-92.38;-12.52;-1.74;8.00;239.88;-134.89;0.67;85.15;-42.69;8.00 
1.980;-0.41;0.10;0.43;-80.00;-0.83;-28.03;-3.00;236.05;-130.89;0.60;85.87;-43.00;5.56 
2.010;-0.56;0.13;0.53;-84.52;-21.70;-2.37;-9.00;237.01;-125.90;0.78;85.96;-42.94;4.02 
2.040;-0.66;-0.23;0.51;-108.52;-54.68;-18.16;-25.00;234.13;-125.90;0.87;86.09;-42.18;1.96 
2.071;-0.54;-0.30;0.46;-134.89;-69.63;-64.35;-44.00;228.37;-123.90;0.77;87.28;-40.62;-1.74 
2.101;-0.57;-0.36;0.36;-146.16;-72.56;-77.22;-66.00;216.86;-123.90;0.76;89.19;-38.63;-6.63 
2.131;-0.42;-0.47;0.51;-127.23;-99.13;-100.94;-94.00;206.30;-117.90;0.81;91.63;-36.18;-11.78 
2.161;-0.54;-1.54;1.26;-43.69;-35.55;-78.75;-124.00;179.43;-114.91;2.06;94.05;-32.61;-16.52 
2.191;-6.09;-8.02;8.62;393.11;-44.24;23.51;-104.00;175.60;-111.91;13.26;96.88;-36.28;-14.97 
2.221;-0.78;1.98;1.82;-327.51;-714.99;-324.17;-106.00;118.98;-187.84;2.80;96.42;-23.60;-14.54 
2.251;2.05;2.88;-0.56;-454.26;-328.70;-142.89;-219.00;10.55;-180.85;3.58;101.96;-4.47;-29.96 
2.282;0.26;1.01;-0.86;-89.81;-5.01;245.70;-280.00;-11.51;-109.91;1.35;100.38;-0.46;-38.62 
2.312;0.00;0.01;-0.20;-86.82;-59.41;221.63;-259.00;26.87;-96.92;0.20;90.71;-4.78;-40.35 
2.342;0.33;-0.87;0.21;-131.90;67.41;42.85;-258.00;47.02;-89.93;0.95;86.54;-7.26;-43.28 
2.373;0.34;-1.66;1.04;-137.95;6.61;22.89;-264.00;55.65;-56.95;1.99;87.12;-8.81;-47.84 
2.403;0.22;-1.18;1.23;-138.16;-63.65;-67.97;-275.00;46.06;-20.98;1.72;86.76;-8.11;-51.58 
2.433;0.22;-0.65;0.52;-116.87;-164.52;-93.70;-294.00;28.79;-6.99;0.86;83.88;-3.39;-55.92 
2.463;0.69;-1.06;-0.22;-67.97;-102.54;50.30;-295.00;20.15;-7.99;1.28;77.57;-0.20;-58.67 
2.493;0.25;-1.01;-0.19;-61.15;-61.08;51.34;-293.00;29.75;-6.99;1.06;70.77;-0.21;-61.06 
2.523;-0.10;-1.09;0.14;-51.97;-51.55;49.46;-288.00;36.46;-6.00;1.10;65.53;-0.78;-63.02 
2.553;0.10;-1.03;-0.02;-70.75;-101.77;6.05;-284.00;37.42;-15.99;1.04;58.79;-0.60;-64.95 
2.584;-0.06;-0.90;-0.33;-82.71;-46.61;31.72;-285.00;27.83;-8.99;0.96;51.39;0.12;-67.86 
2.614;0.00;-1.17;-0.50;-63.58;5.70;37.50;-282.00;32.62;3.00;1.27;46.62;-0.84;-70.05 
2.644;-0.18;-1.11;-0.37;-33.04;10.92;34.71;-279.00;41.26;18.98;1.18;42.67;-2.00;-72.09 
2.674;-0.04;-1.21;-0.19;-14.12;5.22;45.01;-278.00;40.30;15.99;1.23;40.18;-3.17;-72.98 
2.704;-0.08;-1.08;0.01;-33.60;13.77;40.07;-273.00;45.10;20.98;1.08;37.86;-4.65;-73.37 
2.734;-0.03;-1.06;0.00;-50.92;-0.90;16.70;-271.00;47.98;31.97;1.06;34.72;-5.38;-74.53 
2.764;-0.06;-1.20;-0.18;-33.39;-8.21;23.58;-273.00;50.86;44.96;1.21;30.70;-5.87;-75.73 
2.795;-0.18;-1.21;-0.18;-16.42;1.04;4.73;-269.00;50.86;44.96;1.24;27.54;-6.37;-76.49 
2.825;-0.04;-1.09;-0.04;-15.23;0.21;-20.87;-269.00;50.86;49.96;1.09;26.31;-6.10;-77.26 
2.854;0.14;-0.96;-0.08;-11.90;-9.32;-22.19;-272.00;47.98;48.96;0.97;25.48;-5.27;-78.20 
2.884;0.14;-0.99;-0.22;1.60;-11.27;-6.61;-274.00;45.10;47.96;1.02;24.58;-4.49;-78.98 
2.914;0.02;-1.17;-0.16;16.00;3.76;-0.35;-276.00;42.22;47.96;1.18;24.59;-4.23;-79.13 
2.944;0.02;-1.02;0.00;14.19;5.84;-10.99;-277.00;41.26;45.96;1.02;26.03;-4.05;-78.84 
2.974;0.13;-0.99;0.02;14.19;-5.22;-5.29;-275.00;38.38;43.96;1.00;27.41;-3.69;-78.61 
3.004;0.08;-1.04;-0.06;17.95;-5.84;6.12;-277.00;38.38;45.96;1.04;28.07;-3.53;-78.36 
3.034;0.05;-0.99;0.00;15.37;-0.42;3.13;-278.00;40.30;36.97;0.99;28.96;-3.61;-77.91 
3.063;0.07;-1.00;0.08;13.22;-3.97;6.40;-275.00;40.30;33.97;1.01;29.59;-3.62;-77.63 
3.094;0.08;-1.00;0.06;10.23;-10.02;8.49;-275.00;42.22;29.98;1.00;29.77;-3.65;-77.40 
3.124;0.06;-1.04;0.00;6.82;-9.81;9.18;-270.00;44.14;26.98;1.04;29.47;-3.69;-77.29 
3.154;0.02;-0.98;0.02;4.73;-8.00;7.65;-273.00;47.02;20.98;0.98;29.21;-3.87;-77.10 
3.185;0.05;-1.07;0.07;5.22;-4.31;6.96;-270.00;43.18;25.98;1.07;29.04;-4.00;-76.97 
3.214;0.02;-1.04;0.02;5.15;-1.18;8.70;-271.00;43.18;20.98;1.04;28.88;-4.14;-76.90 
3.244;0.01;-1.04;0.08;2.23;-1.32;5.01;-271.00;48.94;21.98;1.04;28.65;-4.25;-76.89 
3.274;0.03;-1.03;0.02;-0.35;0.49;4.31;-266.00;51.82;14.99;1.03;28.37;-4.30;-76.99 
3.304;0.02;-1.03;0.02;0.00;0.14;2.78;-267.00;47.98;17.99;1.03;27.96;-4.31;-77.16 
3.334;0.03;-1.07;0.02;-0.14;-0.49;0.70;-269.00;48.94;18.98;1.07;27.86;-4.35;-77.19 
3.364;0.01;-1.02;0.02;-1.60;1.67;-0.21;-268.00;48.94;16.99;1.02;27.72;-4.36;-77.27 
3.395;0.02;-1.01;0.06;-1.04;2.16;1.11;-270.00;52.77;18.98;1.01;27.46;-4.30;-77.47 
3.425;0.02;-1.02;0.06;-2.85;1.25;0.56;-269.00;48.94;18.98;1.02;27.12;-4.27;-77.70 
3.455;0.02;-1.02;0.02;-4.66;0.56;0.00;-268.00;48.94;18.98;1.02;26.86;-4.25;-77.85 
3.485;0.06;-1.02;0.00;-2.92;2.09;1.25;-271.00;52.77;19.98;1.02;26.61;-4.27;-77.98 
3.515;0.03;-1.02;0.02;-1.46;1.46;4.38;-271.00;52.77;24.98;1.02;26.40;-4.34;-78.07 
3.545;0.03;-1.00;0.00;-1.81;0.42;6.12;-272.00;54.69;23.98;1.00;26.20;-4.49;-78.06 
3.575;0.01;-1.02;0.00;-2.23;2.02;6.82;-267.00;55.65;23.98;1.02;25.64;-4.61;-78.22 
3.605;0.00;-1.02;0.01;-2.23;0.35;6.82;-268.00;54.69;25.98;1.02;25.05;-4.73;-78.39 
3.635;0.02;-1.03;0.00;-0.21;0.70;7.10;-268.00;56.61;26.98;1.03;24.75;-4.94;-78.35 
3.665;0.00;-1.05;0.02;0.97;1.67;7.23;-268.00;57.57;23.98;1.05;24.60;-5.17;-78.25 
3.696;0.00;-1.04;0.02;-0.83;1.60;3.90;-265.00;58.53;22.98;1.04;24.47;-5.38;-78.18 
3.726;0.00;-1.08;0.01;0.00;-2.23;0.28;-265.00;58.53;24.98;1.08;24.32;-5.45;-78.18 
3.756;-0.03;-1.05;0.00;2.71;-2.09;-2.23;-259.00;59.49;20.98;1.05;24.35;-5.43;-78.16 
3.786;0.00;-1.04;0.00;5.91;-0.07;-2.23;-264.00;59.49;22.98;1.04;24.36;-5.33;-78.24 
3.816;0.00;-1.02;0.02;4.52;-0.77;-5.15;-267.00;61.41;19.98;1.02;24.89;-5.25;-78.14 
3.845;0.02;-1.02;-0.03;3.69;-4.80;-5.08;-264.00;56.61;15.99;1.02;25.01;-5.05;-78.23 
3.875;0.00;-1.03;-0.04;7.30;-4.31;-4.45;-265.00;57.57;15.99;1.03;25.05;-4.82;-78.33 
3.906;0.01;-1.02;0.00;9.25;1.11;-2.43;-263.00;56.61;15.99;1.02;25.64;-4.73;-78.17 
3.936;0.02;-1.02;0.04;7.79;1.32;-3.69;-263.00;52.77;7.99;1.02;26.41;-4.66;-77.98 
3.966;0.03;-1.02;0.04;6.54;-1.95;-3.97;-261.00;52.77;14.99;1.02;26.88;-4.48;-77.95 
3.996;0.03;-1.02;0.02;6.89;-1.95;-0.21;-266.00;52.77;8.99;1.02;27.15;-4.29;-77.96 
4.025;0.06;-1.02;0.07;6.89;1.04;1.81;-266.00;51.82;9.99;1.02;27.32;-4.24;-77.94 
4.055;-0.02;-1.02;0.09;4.80;1.95;1.32;-266.00;54.69;3.00;1.02;27.58;-4.25;-77.89 
4.085;0.00;-1.00;0.09;1.32;0.56;-1.25;-264.00;52.77;6.00;1.00;27.74;-4.21;-77.89 
4.116;0.01;-1.02;0.04;0.77;-1.46;-1.67;-264.00;52.77;8.99;1.02;27.66;-4.11;-78.00 
4.146;0.02;-1.01;0.03;2.57;1.39;0.63;-265.00;49.90;6.99;1.01;27.73;-4.08;-78.00 
4.176;0.00;-1.02;0.07;1.32;0.70;0.14;-264.00;49.90;2.00;1.02;27.62;-4.06;-78.09 
4.207;0.02;-1.02;0.08;0.70;-0.83;-1.67;-264.00;52.77;5.00;1.02;27.65;-4.03;-78.12 
4.237;0.03;-1.02;0.03;1.60;-0.83;-0.90;-265.00;53.73;5.00;1.02;27.48;-3.91;-78.27 
4.267;0.02;-1.02;0.05;1.88;0.35;0.97;-264.00;52.77;5.00;1.02;27.37;-3.84;-78.37 
4.297;0.03;-1.02;0.05;0.83;0.97;2.37;-266.00;53.73;6.00;1.02;27.25;-3.82;-78.45 
4.326;0.00;-1.00;0.06;0.14;0.56;3.27;-265.00;52.77;6.00;1.00;26.99;-3.85;-78.56 
4.356;0.02;-1.04;0.05;0.35;1.25;3.90;-267.00;54.69;3.00;1.04;26.74;-3.90;-78.63 
4.386;0.02;-1.01;0.02;0.56;1.46;4.24;-268.00;50.86;6.00;1.01;26.62;-4.03;-78.62 
4.417;0.01;-1.01;0.07;-0.28;1.46;3.76;-265.00;54.69;5.00;1.01;26.42;-4.12;-78.68 
4.447;0.00;-1.01;0.06;-1.11;1.11;3.41;-264.00;55.65;6.99;1.01;26.27;-4.27;-78.66 
4.477;0.00;-1.02;0.06;-0.97;0.49;2.43;-267.00;55.65;3.00;1.02;25.92;-4.32;-78.77 
4.508;0.00;-1.04;0.05;-0.42;0.97;1.25;-263.00;56.61;1.00;1.04;25.66;-4.37;-78.86 
4.537;0.01;-1.04;0.06;-0.63;1.18;1.60;-264.00;56.61;6.99;1.04;25.39;-4.35;-79.01 
4.566;0.00;-1.01;0.06;-0.35;0.49;1.25;-263.00;56.61;5.00;1.01;25.17;-4.36;-79.10 
4.596;0.00;-1.02;0.06;0.42;0.42;0.70;-265.00;56.61;3.00;1.02;24.97;-4.38;-79.18 
4.625;0.00;-1.03;0.07;0.49;0.28;-0.14;-264.00;55.65;2.00;1.03;24.94;-4.41;-79.18 
4.655;0.00;-1.02;0.08;-0.49;1.18;-0.63;-265.00;57.57;2.00;1.02;24.83;-4.37;-79.28 
4.685;0.00;-1.01;0.03;-0.77;1.46;0.28;-262.00;59.49;2.00;1.01;24.72;-4.34;-79.37 
4.716;0.00;-1.02;0.07;-0.35;0.90;-0.49;-259.00;56.61;4.00;1.02;24.51;-4.32;-79.49 
4.746;0.01;-1.04;0.06;-0.49;0.56;-0.63;-263.00;55.65;1.00;1.04;24.38;-4.30;-79.58 
4.776;0.00;-1.01;0.05;-0.35;0.35;-0.70;-262.00;55.65;4.00;1.01;24.31;-4.30;-79.62 
4.807;0.01;-1.02;0.05;0.35;0.14;-0.83;-263.00;57.57;3.00;1.02;24.31;-4.33;-79.62 
4.836;0.00;-1.02;0.08;0.56;0.42;-0.21;-259.00;54.69;4.00;1.02;24.15;-4.28;-79.72 
4.866;0.00;-1.02;0.02;0.21;0.07;0.28;-264.00;57.57;3.00;1.02;24.12;-4.30;-79.73 
4.895;0.00;-1.02;0.06;0.28;0.35;-0.14;-263.00;59.49;2.00;1.02;24.07;-4.34;-79.73 
4.925;0.01;-1.02;0.05;0.07;0.49;-0.28;-261.00;57.57;2.00;1.02;24.05;-4.36;-79.74 
4.955;0.01;-1.02;0.06;-0.28;0.97;-0.14;-263.00;54.69;3.00;1.02;24.01;-4.39;-79.76 
4.984;0.00;-1.03;0.06;-0.77;1.04;-0.14;-263.00;54.69;4.00;1.03;23.82;-4.34;-79.89 
5.014;0.00;-1.01;0.08;-0.49;0.63;-1.18;-262.00;59.49;0.00;1.01;23.59;-4.31;-80.00 
5.044;0.02;-1.02;0.05;0.00;0.63;-0.90;-264.00;55.65;1.00;1.02;23.56;-4.33;-80.01 
5.074;0.00;-1.02;0.05;-0.42;0.63;-0.49;-262.00;53.73;4.00;1.02;23.58;-4.35;-80.01 
5.104;0.02;-1.03;0.08;-0.49;0.77;0.14;-262.00;56.61;1.00;1.03;23.38;-4.33;-80.12 
5.134;0.00;-1.01;0.02;-0.42;0.56;0.00;-262.00;55.65;6.00;1.01;23.29;-4.33;-80.15 
5.164;0.00;-0.99;0.04;0.21;0.63;-0.14;-264.00;59.49;3.00;0.99;23.28;-4.38;-80.14 
5.194;0.00;-1.02;0.03;0.35;0.42;0.00;-264.00;55.65;2.00;1.02;23.28;-4.44;-80.12 
5.224;0.01;-1.03;0.10;0.00;0.49;0.83;-262.00;55.65;6.00;1.03;23.09;-4.42;-80.20 
5.254;0.00;-1.01;0.06;-0.07;0.21;0.14;-260.00;57.57;2.00;1.01;23.04;-4.42;-80.23 
5.283;0.00;-1.01;0.07;0.00;0.56;-0.07;-260.00;55.65;5.00;1.01;23.03;-4.47;-80.21 
5.314;0.00;-1.02;0.05;0.21;0.70;0.00;-268.00;54.69;3.00;1.02;22.89;-4.43;-80.30 
5.344;0.02;-1.05;0.06;-0.21;0.70;-0.90;-263.00;56.61;1.00;1.05;22.79;-4.39;-80.38 
5.374;0.00;-1.02;0.04;-0.77;0.70;-0.63;-266.00;54.69;3.00;1.02;22.78;-4.39;-80.39 
5.405;0.00;-1.02;0.06;-0.63;0.70;0.21;-263.00;54.69;0.00;1.02;22.69;-4.42;-80.42 
5.435;0.02;-1.02;0.05;-0.35;0.35;0.07;-264.00;56.61;-1.00;1.02;22.61;-4.44;-80.44 
5.465;0.00;-1.02;0.03;-0.21;0.63;0.21;-264.00;55.65;5.00;1.02;22.55;-4.44;-80.47 
5.495;0.02;-1.02;0.06;0.00;0.56;0.56;-264.00;56.61;2.00;1.02;22.48;-4.48;-80.48 
5.526;0.02;-1.04;0.06;-0.07;0.49;0.42;-263.00;54.69;4.00;1.04;22.44;-4.53;-80.47 
5.556;0.00;-1.02;0.05;-0.49;0.77;0.35;-263.00;55.65;3.00;1.02;22.21;-4.48;-80.60 
5.586;0.00;-1.03;0.02;-0.35;0.83;0.28;-261.00;56.61;4.00;1.03;22.17;-4.53;-80.59 
5.617;0.00;-1.02;0.06;0.00;0.35;-0.35;-264.00;59.49;3.00;1.02;21.94;-4.45;-80.75 
5.647;0.01;-1.02;0.06;-0.14;0.77;-0.35;-261.00;57.57;2.00;1.02;21.92;-4.50;-80.73 
5.676;0.01;-1.00;0.09;-0.35;0.83;0.14;-262.00;57.57;0.00;1.00;21.93;-4.55;-80.71 
5.706;0.00;-1.03;0.05;-0.42;0.77;-0.21;-261.00;54.69;5.00;1.03;21.71;-4.53;-80.81 
5.735;0.00;-1.02;0.05;-0.14;0.77;-0.49;-264.00;57.57;3.00;1.02;21.66;-4.55;-80.83 
5.765;0.01;-1.02;0.06;0.07;0.42;0.42;-263.00;56.61;5.00;1.02;21.50;-4.53;-80.90 
5.795;0.00;-1.02;0.05;-0.42;0.56;0.77;-258.00;55.65;4.00;1.02;21.43;-4.58;-80.90 
5.825;0.00;-1.02;0.04;-0.21;0.63;0.28;-260.00;55.65;1.00;1.02;21.40;-4.64;-80.88 
5.854;0.00;-0.99;0.05;-0.21;0.42;-0.21;-262.00;58.53;1.00;0.99;21.38;-4.69;-80.87 
5.884;0.01;-1.02;0.08;-0.35;0.49;0.56;-262.00;57.57;2.00;1.02;21.34;-4.74;-80.85 
5.915;0.01;-1.04;0.03;-0.42;0.63;0.00;-261.00;58.53;2.00;1.04;21.31;-4.81;-80.82 
5.945;0.00;-1.02;0.03;-0.28;0.42;-0.28;-265.00;56.61;5.00;1.02;21.11;-4.80;-80.91 
5.974;0.00;-1.02;0.08;-0.35;0.56;-0.21;-260.00;57.57;1.00;1.02;21.04;-4.82;-80.92 
6.004;0.02;-1.03;0.06;-0.28;0.70;0.56;-263.00;56.61;4.00;1.03;20.96;-4.87;-80.92 
6.034;0.02;-1.02;0.06;-0.28;0.49;0.00;-261.00;58.53;1.00;1.02;20.89;-4.91;-80.93 
6.064;0.01;-1.04;0.05;-0.35;0.90;0.83;-264.00;56.61;5.00;1.04;20.73;-4.90;-80.99 
6.094;0.00;-0.99;0.01;-0.35;0.56;0.49;-267.00;58.53;4.00;0.99;20.64;-4.94;-80.99 
6.125;0.00;-1.01;0.07;0.00;0.56;0.07;-263.00;61.41;6.00;1.01;20.60;-5.01;-80.96 
6.155;0.02;-1.02;0.06;-0.14;0.56;0.21;-265.00;57.57;4.00;1.02;20.44;-5.00;-81.03 
6.185;0.02;-1.03;0.06;-0.49;0.70;0.70;-264.00;59.49;6.00;1.03;20.39;-5.07;-81.00 
6.214;0.00;-1.02;0.02;-0.35;0.63;0.14;-262.00;59.49;2.00;1.02;20.19;-5.06;-81.07 
6.244;0.00;-1.02;0.05;-0.28;0.49;-0.07;-265.00;59.49;3.00;1.02;20.12;-5.09;-81.08 
6.274;0.01;-1.02;0.07;-0.07;0.63;-0.28;-263.00;55.65;6.00;1.02;20.09;-5.15;-81.05 
6.304;0.00;-1.02;0.04;-0.35;0.97;0.28;-264.00;57.57;4.00;1.02;19.99;-5.13;-81.11 
6.333;0.00;-1.02;0.04;-0.63;0.49;0.07;-267.00;59.49;3.00;1.02;19.90;-5.13;-81.15 
6.363;0.02;-1.02;0.08;-0.14;0.77;-0.28;-263.00;55.65;5.00;1.02;19.83;-5.18;-81.14 
6.393;0.00;-1.02;0.05;-0.07;0.70;0.28;-261.00;57.57;2.00;1.02;19.72;-5.16;-81.20 
6.423;0.01;-1.04;0.08;-0.28;0.56;0.00;-265.00;55.65;0.00;1.04;19.68;-5.22;-81.18 
6.453;-0.02;-1.02;0.07;-0.21;0.35;-0.21;-263.00;54.69;5.00;1.02;19.63;-5.24;-81.18 
6.483;0.00;-0.99;0.04;-0.21;0.63;-0.49;-262.00;57.57;2.00;0.99;19.54;-5.22;-81.23 
6.513;0.02;-1.03;0.06;-0.14;0.35;0.21;-263.00;55.65;2.00;1.03;19.35;-5.20;-81.31 
6.543;0.00;-1.02;0.03;-0.56;0.42;-0.83;-262.00;58.53;1.00;1.02;19.28;-5.23;-81.32 
6.573;0.01;-1.02;0.04;-0.49;0.56;-0.42;-263.00;56.61;3.00;1.02;19.24;-5.24;-81.33 
6.603;0.00;-0.98;0.06;-0.07;0.83;0.07;-262.00;56.61;4.00;0.98;19.20;-5.27;-81.33 
6.634;0.00;-1.00;0.06;-0.14;0.70;-0.07;-260.00;56.61;3.00;1.00;19.17;-5.32;-81.32 
6.664;0.00;-1.01;0.04;-0.35;0.49;-0.14;-262.00;56.61;2.00;1.01;19.16;-5.29;-81.35 
6.694;0.00;-1.02;0.06;-0.28;0.70;0.28;-262.00;56.61;-3.00;1.02;19.15;-5.35;-81.32 
6.725;0.02;-1.04;0.05;-0.28;0.49;0.42;-260.00;55.65;4.00;1.04;18.98;-5.34;-81.38 
6.755;0.00;-1.04;0.06;-0.14;0.14;-0.07;-264.00;57.57;4.00;1.04;18.92;-5.41;-81.35 
6.785;0.01;-1.01;0.04;0.00;0.56;-0.07;-260.00;57.57;4.00;1.01;18.87;-5.44;-81.34 
6.815;0.00;-1.02;0.04;-0.14;0.90;0.42;-262.00;59.49;4.00;1.02;18.83;-5.50;-81.31 
6.844;0.00;-1.03;0.04;-0.42;0.21;0.49;-262.00;58.53;3.00;1.03;18.77;-5.56;-81.29 
6.874;-0.03;-1.01;0.06;-0.35;0.49;0.07;-258.00;56.61;6.99;1.01;18.70;-5.59;-81.29 
6.904;0.00;-1.02;0.04;-0.14;0.56;-0.07;-261.00;55.65;3.00;1.02;18.65;-5.63;-81.28 
6.934;0.01;-1.01;0.06;-0.63;0.42;-0.14;-261.00;55.65;5.00;1.01;18.58;-5.66;-81.28 
6.963;0.00;-1.04;0.04;-0.07;0.56;0.14;-262.00;57.57;1.00;1.04;18.56;-5.71;-81.26 
6.993;0.00;-1.02;0.05;-0.14;0.83;-0.21;-264.00;59.49;4.00;1.02;18.52;-5.77;-81.23 
7.024;0.00;-1.02;0.06;-0.21;0.35;-0.42;-263.00;58.53;5.00;1.02;18.47;-5.80;-81.22 
7.054;0.01;-1.02;0.02;0.21;0.56;-0.35;-264.00;61.41;2.00;1.02;18.33;-5.74;-81.32 
7.084;0.02;-1.02;0.06;-0.14;0.42;-0.21;-263.00;56.61;3.00;1.02;18.31;-5.80;-81.29 
7.114;0.00;-1.02;0.10;0.07;0.14;-0.97;-261.00;55.65;1.00;1.02;18.29;-5.78;-81.31 
7.144;0.01;-1.02;0.04;0.00;0.70;0.21;-263.00;54.69;4.00;1.02;18.25;-5.75;-81.35 
7.174;0.00;-1.02;0.10;-0.21;0.49;-0.42;-263.00;56.61;2.00;1.02;18.25;-5.76;-81.36 
7.204;0.00;-1.03;0.05;-0.07;0.14;-0.63;-261.00;57.57;1.00;1.03;18.23;-5.78;-81.35 
7.235;0.00;-1.05;0.06;-0.14;0.70;-0.83;-261.00;54.69;4.00;1.05;18.13;-5.74;-81.42 
7.265;0.02;-1.04;0.08;-0.07;0.83;-0.21;-262.00;58.53;-1.00;1.04;18.04;-5.68;-81.50 
7.295;0.00;-1.00;0.06;-0.56;0.21;-0.07;-262.00;57.57;2.00;1.00;17.99;-5.74;-81.47 
7.325;0.00;-0.99;0.05;-0.28;0.42;-0.35;-262.00;57.57;4.00;0.99;17.84;-5.70;-81.54 
7.354;0.02;-1.02;0.03;0.00;0.56;-0.07;-263.00;55.65;0.00;1.02;17.73;-5.68;-81.60 
7.384;0.00;-1.03;0.02;-0.28;0.14;0.49;-263.00;55.65;1.00;1.03;17.68;-5.74;-81.57 
7.414;0.01;-1.04;0.06;-0.21;0.35;0.14;-266.00;55.65;4.00;1.04;17.60;-5.78;-81.56 
7.445;0.01;-1.02;0.03;-0.07;0.35;-0.07;-263.00;57.57;2.00;1.02;17.65;-5.74;-81.59 
7.475;0.00;-1.01;0.06;-0.14;0.70;0.14;-262.00;56.61;3.00;1.01;17.62;-5.80;-81.56 
7.504;0.02;-1.05;0.05;-0.21;0.70;0.00;-260.00;57.57;0.00;1.05;17.49;-5.77;-81.62 
7.535;0.00;-1.02;0.06;-0.49;0.21;-0.35;-264.00;58.53;2.00;1.02;17.42;-5.80;-81.61 
7.565;0.00;-1.02;0.05;-0.21;0.35;-0.35;-265.00;56.61;1.00;1.02;17.35;-5.87;-81.58 
7.594;0.01;-1.03;0.05;-0.07;0.83;-0.49;-265.00;56.61;3.00;1.03;17.31;-5.92;-81.56 
7.624;0.02;-1.04;0.03;-0.14;0.28;-0.07;-262.00;55.65;2.00;1.04;17.25;-5.88;-81.61 
7.653;0.02;-1.03;0.06;-0.14;0.42;-0.07;-263.00;59.49;2.00;1.03;17.16;-5.92;-81.61 
7.683;0.01;-1.01;0.05;-0.07;0.97;-0.07;-264.00;57.57;0.00;1.01;16.99;-5.83;-81.73 
7.713;0.00;-1.02;0.06;-0.28;0.70;-0.14;-262.00;60.45;1.00;1.02;16.86;-5.79;-81.80 
7.744;0.01;-1.03;0.04;-0.63;0.49;-0.14;-264.00;55.65;2.00;1.03;16.82;-5.80;-81.80 
7.773;0.00;-1.05;0.07;-0.35;0.49;0.07;-264.00;56.61;0.00;1.05;16.65;-5.71;-81.94 
7.803;0.01;-0.98;0.03;0.00;0.70;-0.07;-261.00;56.61;3.00;0.98;16.60;-5.72;-81.94 
7.834;0.00;-1.02;0.06;0.00;0.49;0.28;-260.00;55.65;1.00;1.02;16.52;-5.70;-81.99 
7.863;0.02;-1.02;0.07;-0.21;0.35;0.14;-263.00;55.65;-1.00;1.02;16.49;-5.75;-81.96 
7.893;0.02;-1.04;0.07;-0.21;0.35;-0.07;-260.00;56.61;3.00;1.04;16.45;-5.72;-82.00 
7.923;0.00;-1.02;0.06;-0.21;0.35;-0.77;-263.00;56.61;0.00;1.02;16.33;-5.69;-82.06 
7.953;0.00;-1.01;0.06;-0.28;0.90;-0.63;-261.00;53.73;5.00;1.01;16.38;-5.64;-82.10 
7.983;0.01;-1.02;0.07;-0.35;0.77;-0.07;-265.00;53.73;1.00;1.02;16.34;-5.70;-82.07 
8.013;0.00;-1.02;0.08;-0.35;0.21;0.00;-261.00;57.57;-4.00;1.02;16.27;-5.67;-82.12 
8.044;0.01;-1.04;0.08;-0.49;0.49;-0.35;-263.00;53.73;2.00;1.04;16.21;-5.63;-82.17 
8.074;0.00;-1.02;0.05;0.14;0.63;0.07;-263.00;55.65;1.00;1.02;16.17;-5.65;-82.16 
8.104;0.00;-1.02;0.05;-0.07;0.56;-0.42;-263.00;56.61;2.00;1.02;16.25;-5.62;-82.18 
8.134;0.00;-1.04;0.03;-0.49;0.07;-0.07;-264.00;55.65;3.00;1.04;16.24;-5.63;-82.18 
8.164;0.00;-1.02;0.06;-0.21;0.49;0.00;-264.00;55.65;-1.00;1.02;16.20;-5.66;-82.17 
8.194;0.00;-1.02;0.07;-0.35;0.35;-0.07;-263.00;56.61;3.00;1.02;16.15;-5.73;-82.13 
8.224;0.01;-1.03;0.04;-0.07;0.56;-0.35;-263.00;54.69;3.00;1.03;16.10;-5.77;-82.11 
8.255;0.01;-1.02;0.04;-0.28;0.70;-0.28;-265.00;54.69;-1.00;1.02;16.02;-5.71;-82.18 
8.284;0.01;-1.02;0.08;-0.07;0.63;0.21;-261.00;56.61;0.00;1.02;15.95;-5.65;-82.26 
8.314;0.01;-1.03;0.04;-0.49;0.28;0.21;-263.00;56.61;2.00;1.03;15.91;-5.61;-82.32 
8.345;0.00;-1.03;0.02;-0.14;0.35;0.21;-264.00;55.65;2.00;1.03;15.83;-5.65;-82.30 
8.375;0.00;-1.04;0.06;-0.14;0.42;0.28;-263.00;53.73;3.00;1.04;15.83;-5.62;-82.33 
8.405;0.00;-1.01;0.06;-0.21;0.70;-0.28;-263.00;55.65;1.00;1.01;15.80;-5.66;-82.31 
8.435;0.02;-1.03;0.09;-0.63;0.77;0.42;-264.00;58.53;2.00;1.03;15.74;-5.71;-82.28 
8.465;0.02;-1.06;0.04;-0.07;0.97;0.14;-262.00;52.77;4.00;1.06;15.63;-5.70;-82.33 
8.495;0.01;-1.02;0.08;-0.35;0.63;-0.42;-263.00;53.73;0.00;1.02;15.63;-5.67;-82.36 
8.525;0.02;-1.02;0.04;0.07;0.28;0.07;-267.00;54.69;-1.00;1.02;15.60;-5.60;-82.44 
8.556;0.02;-1.02;0.08;-0.28;0.56;-0.07;-266.00;56.61;6.00;1.02;15.50;-5.57;-82.49 
8.586;0.00;-0.98;0.07;0.00;0.77;0.14;-263.00;55.65;-2.00;0.98;15.47;-5.63;-82.45 
8.616;0.01;-1.03;0.06;-0.28;0.56;-0.21;-262.00;57.57;2.00;1.03;15.44;-5.68;-82.42 
8.647;0.02;-1.04;0.02;-0.63;0.28;-0.21;-266.00;57.57;4.00;1.04;15.32;-5.65;-82.47 
8.676;0.01;-1.02;0.06;-0.42;0.63;-0.49;-265.00;57.57;6.00;1.02;15.22;-5.58;-82.56 
8.706;0.02;-1.02;0.02;0.00;0.70;-0.49;-264.00;57.57;5.00;1.02;15.22;-5.55;-82.59 
8.736;0.02;-1.03;0.06;-0.35;0.28;-0.21;-264.00;57.57;3.00;1.03;15.18;-5.53;-82.62 
8.767;0.01;-1.03;0.03;-0.07;0.56;0.07;-263.00;58.53;6.99;1.03;15.14;-5.60;-82.57 
8.797;0.00;-1.03;0.06;-0.14;0.42;0.21;-263.00;53.73;2.00;1.03;15.11;-5.68;-82.51 
8.827;0.00;-1.00;0.06;-0.28;0.49;-0.07;-263.00;57.57;6.99;1.00;14.97;-5.63;-82.58 
8.858;0.00;-1.02;0.06;-0.35;0.77;0.07;-267.00;56.61;5.00;1.02;14.98;-5.61;-82.61 
8.888;0.02;-1.02;0.04;-0.42;0.56;0.42;-267.00;57.57;3.00;1.02;14.95;-5.63;-82.61 
8.918;0.00;-1.03;0.08;-0.56;0.70;0.14;-263.00;55.65;3.00;1.03;14.90;-5.60;-82.65 
8.948;0.01;-1.04;0.02;-0.35;0.56;0.14;-265.00;57.57;4.00;1.04;14.85;-5.57;-82.69 
8.978;-0.05;-1.02;0.02;-0.14;0.63;-0.21;-264.00;54.69;1.00;1.02;14.82;-5.63;-82.64 
9.008;0.01;-1.02;0.06;-0.28;0.63;-0.28;-264.00;56.61;0.00;1.02;14.81;-5.61;-82.67 
9.037;0.03;-1.02;0.06;-0.56;0.56;-0.21;-263.00;54.69;2.00;1.02;14.85;-5.59;-82.69 
9.068;-0.02;-1.01;0.05;-0.14;0.56;-0.56;-262.00;56.61;1.00;1.01;14.82;-5.65;-82.64 
9.098;0.02;-1.02;0.05;0.00;0.42;-0.97;-261.00;56.61;2.00;1.02;14.80;-5.56;-82.73 
9.128;0.00;-1.02;0.06;-0.14;0.63;-0.63;-264.00;57.57;1.00;1.02;14.82;-5.53;-82.76 
9.159;0.00;-1.02;0.08;-0.07;0.56;-0.63;-259.00;57.57;1.00;1.02;14.89;-5.52;-82.77 
9.189;0.02;-1.03;0.07;-0.56;1.04;-0.63;-264.00;53.73;1.00;1.03;14.89;-5.57;-82.73 
9.219;0.02;-0.98;0.06;-0.14;0.56;-0.21;-263.00;53.73;0.00;0.98;14.88;-5.60;-82.72 
9.249;0.00;-1.02;0.05;-0.14;0.21;-0.21;-263.00;57.57;-2.00;1.02;14.82;-5.58;-82.75 
9.280;0.00;-0.98;0.02;-0.28;0.56;-0.49;-261.00;53.73;2.00;0.98;14.86;-5.55;-82.78 
9.310;0.01;-1.02;0.03;-0.07;0.56;0.14;-264.00;55.65;0.00;1.02;14.88;-5.53;-82.80 
9.340;0.01;-1.02;0.03;-0.14;0.42;-0.14;-261.00;55.65;0.00;1.02;14.80;-5.50;-82.84 
9.371;0.01;-1.03;0.06;-0.21;0.56;-0.07;-265.00;54.69;0.00;1.03;14.92;-5.47;-82.86 
9.401;0.00;-1.03;0.05;-0.42;0.49;-0.63;-264.00;50.86;0.00;1.03;14.89;-5.40;-82.93 
9.431;0.00;-1.02;0.06;-0.49;0.42;-0.21;-263.00;53.73;0.00;1.02;14.67;-5.37;-83.00 
9.461;0.01;-1.02;0.05;-0.21;0.90;0.00;-266.00;54.69;-1.00;1.02;14.64;-5.44;-82.95 
9.492;0.04;-1.05;0.05;-0.21;0.56;-0.07;-264.00;53.73;0.00;1.05;14.74;-5.41;-82.97 
9.522;0.00;-1.00;0.04;0.07;0.49;-0.42;-267.00;54.69;1.00;1.00;14.77;-5.38;-83.00 
9.552;0.01;-1.02;0.06;-0.49;0.63;0.21;-261.00;54.69;3.00;1.02;14.75;-5.42;-82.98 
9.582;0.00;-1.01;0.04;-0.42;0.35;0.21;-265.00;55.65;3.00;1.01;14.73;-5.47;-82.94 
9.612;0.02;-1.02;0.05;-0.35;0.35;-0.70;-266.00;53.73;2.00;1.02;14.71;-5.52;-82.90 
9.642;0.01;-1.01;0.05;-0.56;1.32;-0.21;-261.00;54.69;0.00;1.01;14.63;-5.55;-82.89 
9.672;0.00;-1.02;0.06;0.00;1.88;-0.77;-267.00;56.61;2.00;1.02;14.68;-5.58;-82.87 
9.702;0.00;-1.02;0.05;0.49;1.25;-1.67;-263.00;53.73;2.00;1.02;14.77;-5.54;-82.90 
9.732;0.00;-1.02;0.06;0.07;2.85;-3.41;-262.00;52.77;1.00;1.02;14.89;-5.52;-82.91 
9.762;0.01;-1.05;0.06;0.90;6.12;-7.65;-265.00;55.65;4.00;1.05;15.18;-5.44;-82.99 
9.793;0.02;-1.03;0.09;3.55;2.99;-7.58;-266.00;52.77;0.00;1.03;16.08;-5.14;-83.17 
9.822;0.05;-1.01;0.13;0.56;3.48;-10.64;-261.00;48.94;0.00;1.02;16.91;-4.76;-83.41 
