Time(s) acc_x(g) acc_y(g) acc_z(g) gyr_x(°/s) gyr_y(°/s) gyr_z(°/s) mag_x(G) mag_y(G) mag_z(G) SVM(g) yaw(°) pitch(°) roll(°)
0.000;-0.22;0.17;0.85;1.11;-2.57;10.64;-69.59;-265.51;-350.00;0.89;161.15;-11.36;8.03 
0.030;-0.25;0.19;0.81;-0.63;0.77;14.05;-67.60;-263.59;-353.00;0.87;160.81;-11.28;8.18 
0.060;-0.27;0.18;0.86;-0.42;5.22;13.43;-66.61;-260.71;-353.00;0.92;160.44;-11.36;8.28 
0.090;-0.26;0.16;0.86;1.74;2.92;16.28;-68.60;-259.76;-350.00;0.91;160.01;-11.45;8.42 
0.120;-0.21;0.15;0.82;2.16;4.31;17.11;-63.63;-254.96;-352.00;0.86;159.54;-11.50;8.61 
0.150;-0.26;0.16;0.79;2.30;6.68;15.72;-63.63;-256.88;-352.00;0.85;159.10;-11.58;8.80 
0.180;-0.27;0.20;0.78;2.85;9.53;18.02;-63.63;-252.09;-355.00;0.85;158.64;-11.78;9.03 
0.211;-0.28;0.18;0.88;2.85;9.39;21.50;-62.63;-247.29;-349.00;0.94;158.09;-12.01;9.30 
0.241;-0.25;0.20;0.87;1.74;7.86;23.58;-59.65;-247.29;-352.00;0.93;157.44;-12.17;9.59 
0.271;-0.26;0.21;0.82;-1.18;8.07;24.07;-57.66;-240.59;-354.00;0.89;156.76;-12.30;9.81 
0.302;-0.27;0.20;0.78;-0.28;9.04;26.71;-55.67;-237.71;-351.00;0.85;156.03;-12.45;10.03 
0.332;-0.27;0.17;0.74;2.02;13.01;30.47;-52.69;-232.92;-348.00;0.81;155.20;-12.61;10.32 
0.362;-0.26;0.22;0.78;1.18;23.17;35.69;-50.70;-228.12;-349.00;0.85;154.26;-12.96;10.68 
0.392;-0.30;0.27;0.82;-3.41;23.37;39.23;-49.71;-220.46;-349.00;0.91;153.15;-13.44;11.04 
0.422;-0.30;0.18;0.83;-4.80;17.81;47.65;-47.72;-215.66;-350.00;0.90;151.79;-13.88;11.37 
0.452;-0.27;0.25;0.77;-8.77;16.42;51.83;-43.74;-208.00;-343.00;0.85;150.29;-14.13;11.65 
0.482;-0.23;0.26;0.77;-7.03;19.76;62.82;-43.74;-201.29;-344.00;0.84;148.54;-14.28;11.96 
0.513;-0.41;0.29;0.70;-10.78;22.96;61.84;-38.77;-192.66;-336.00;0.86;146.58;-14.56;12.26 
0.543;-0.40;0.26;0.70;-8.00;31.65;64.56;-32.81;-180.20;-343.00;0.85;144.47;-14.96;12.67 
0.573;-0.30;0.33;0.75;-2.37;39.44;62.05;-28.83;-167.74;-336.00;0.87;142.45;-15.65;13.09 
0.603;-0.38;0.20;0.78;-4.66;33.88;73.67;-16.90;-159.11;-329.00;0.89;140.32;-16.14;13.86 
0.633;-0.34;0.19;0.70;-8.77;27.83;68.59;-15.91;-147.61;-328.00;0.80;138.07;-16.52;14.43 
0.662;-0.30;0.10;0.66;-3.06;21.77;68.94;-6.96;-138.98;-323.00;0.73;136.07;-16.56;15.01 
0.692;-0.30;0.13;0.51;-17.88;21.77;59.76;-2.98;-129.40;-324.00;0.61;134.04;-16.68;15.31 
0.723;-0.17;0.18;0.51;-14.96;21.08;40.21;0.00;-121.73;-316.00;0.57;132.38;-16.85;15.31 
0.753;-0.32;0.30;0.34;-25.46;41.18;60.17;7.95;-116.94;-312.00;0.55;130.39;-17.42;15.40 
0.783;-0.34;0.24;0.38;-14.33;77.63;56.56;5.97;-100.64;-308.00;0.56;128.05;-18.72;15.78 
0.814;-0.38;0.36;0.64;-6.12;66.64;63.58;12.92;-87.22;-294.00;0.83;125.52;-20.52;16.43 
0.844;-0.42;0.34;0.51;-9.39;2.99;94.12;20.88;-78.60;-286.00;0.74;122.96;-20.08;17.49 
0.874;-0.45;0.26;0.41;-24.70;5.15;74.23;33.80;-69.97;-287.00;0.66;120.47;-19.41;18.20 
0.904;-0.26;0.26;0.54;-24.63;-29.08;71.37;36.79;-69.01;-288.00;0.65;118.52;-18.80;18.56 
0.934;-0.02;0.32;0.52;-26.16;-27.62;86.54;48.72;-66.14;-288.00;0.61;116.43;-16.72;19.16 
0.964;-0.40;0.51;0.54;-47.86;-53.08;50.92;57.66;-70.93;-293.00;0.84;114.57;-14.90;19.41 
0.994;-0.13;0.20;0.51;-61.77;-89.88;24.56;53.69;-72.85;-297.00;0.56;114.21;-12.25;18.63 
1.025;-0.12;0.38;0.45;-83.20;-95.93;39.65;41.76;-88.18;-308.00;0.60;114.06;-8.89;17.27 
1.055;0.05;0.45;0.69;-95.44;-60.24;51.20;30.82;-106.39;-313.00;0.83;113.37;-5.54;15.27 
1.085;0.00;0.14;0.72;-105.11;-65.67;67.48;15.91;-110.23;-314.00;0.73;111.91;-3.11;12.86 
1.115;0.03;-0.13;0.67;-130.78;-72.00;72.07;14.91;-116.94;-318.00;0.68;110.07;-0.39;9.75 
1.145;0.04;-0.05;0.78;-140.66;-41.11;66.16;-13.92;-126.52;-314.00;0.78;108.03;1.62;5.44 
1.175;-0.06;-0.12;0.84;-139.27;-51.83;54.61;-33.80;-125.56;-312.00;0.85;106.27;3.15;1.15 
1.205;-0.14;-0.26;0.90;-137.25;-112.28;39.93;-61.64;-134.19;-303.00;0.95;104.81;5.33;-3.18 
1.235;-0.22;-0.28;1.95;-56.83;-217.74;11.48;-79.54;-157.20;-311.00;1.98;103.65;9.75;-6.64 
1.264;1.76;-0.36;2.98;69.77;-398.40;15.79;-78.54;-205.12;-339.00;3.48;101.25;20.85;-3.44 
1.294;-0.35;-2.86;3.42;-40.00;-55.58;-4.94;-77.55;-248.25;-358.00;4.47;102.42;24.33;-2.60 
1.325;1.11;-0.10;1.86;-134.12;-49.25;25.32;-99.42;-256.88;-351.00;2.17;102.57;25.56;-4.80 
1.355;0.52;1.07;0.47;-213.29;-147.55;108.24;-127.26;-265.51;-333.00;1.28;100.29;28.68;-9.42 
1.384;0.58;0.62;0.58;-231.72;-98.37;70.26;-165.04;-277.97;-302.00;1.03;97.58;31.44;-15.65 
1.414;0.27;-0.26;-0.08;-171.76;-99.55;98.78;-197.84;-283.72;-280.00;0.38;93.59;33.77;-21.55 
1.443;0.55;-0.62;-0.10;-148.31;-70.47;29.08;-218.72;-287.55;-261.00;0.83;89.80;35.43;-26.88 
1.472;0.32;-0.47;0.10;-154.16;-75.48;26.78;-250.54;-293.30;-228.00;0.58;87.27;36.70;-31.02 
1.502;0.68;-0.83;-0.12;-169.88;-58.30;32.63;-272.41;-300.97;-202.00;1.08;83.94;38.09;-34.87 
1.532;0.73;-1.42;0.26;-202.57;-56.21;34.92;-294.28;-298.10;-169.00;1.62;80.10;38.31;-39.65 
1.562;0.36;-1.72;0.27;-237.70;-81.95;66.30;-311.18;-300.01;-134.00;1.78;73.23;38.15;-44.77 
1.591;0.58;-1.28;0.02;-170.23;-31.44;26.85;-326.09;-293.30;-94.00;1.41;66.24;37.90;-48.37 
1.622;0.62;-0.99;0.30;-132.38;-77.91;70.40;-334.05;-285.63;-49.00;1.21;58.51;36.79;-51.36 
1.652;0.31;-0.74;-0.10;-144.49;-166.12;81.46;-336.04;-274.13;-22.00;0.81;45.36;35.07;-54.50 
1.682;0.14;-0.86;-0.44;-104.14;-143.30;73.25;-334.05;-263.59;-2.00;0.98;29.90;32.83;-57.12 
1.712;0.08;-0.94;-0.50;-45.70;-69.15;45.36;-334.05;-254.00;9.00;1.07;21.24;30.52;-58.89 
1.742;-0.04;-0.76;-0.48;-39.03;-49.11;17.60;-332.06;-246.34;16.00;0.90;16.64;29.11;-59.69 
1.772;-0.16;-0.74;-0.57;-21.01;-2.23;-7.72;-331.07;-240.59;20.00;0.95;13.94;28.48;-59.79 
1.802;0.07;-0.71;-0.50;-10.92;28.03;-19.83;-331.07;-248.25;20.00;0.87;13.43;28.80;-59.37 
1.833;0.19;-0.80;-0.64;-20.87;-9.67;-27.69;-333.05;-251.13;24.00;1.04;13.36;29.61;-58.43 
1.863;0.24;-1.15;-0.89;-13.70;10.16;-26.43;-337.03;-257.84;30.00;1.47;12.82;30.28;-57.46 
1.893;0.23;-0.90;-0.75;-1.39;56.07;-23.72;-335.04;-264.55;34.00;1.19;13.33;31.20;-56.62 
1.924;0.42;-0.98;-0.58;-4.87;60.66;-28.45;-338.02;-268.38;36.00;1.21;14.50;32.35;-55.78 
1.954;0.66;-0.94;-0.44;11.20;55.03;-25.53;-338.02;-274.13;43.00;1.23;16.08;33.63;-54.83 
1.984;0.67;-0.71;-0.26;38.12;31.58;-6.54;-340.01;-274.13;37.00;1.01;18.88;34.57;-54.29 
2.014;0.57;-0.75;-0.11;37.43;7.23;3.06;-338.02;-277.01;32.00;0.95;22.08;34.99;-54.25 
2.044;0.40;-0.77;-0.26;32.14;-31.10;12.10;-340.01;-277.97;24.00;0.91;23.58;34.72;-54.66 
2.074;0.39;-0.83;-0.38;35.27;-25.39;1.60;-339.02;-273.17;16.00;0.99;24.01;34.41;-54.99 
2.104;0.41;-0.92;-0.34;58.43;8.00;-7.72;-339.02;-275.09;5.00;1.06;26.05;34.50;-55.07 
2.135;0.45;-0.99;-0.16;63.23;7.37;0.63;-340.01;-273.17;-7.00;1.10;29.45;34.61;-55.22 
2.164;0.38;-0.99;-0.15;53.08;10.50;-0.77;-336.04;-276.05;-22.00;1.07;32.37;34.57;-55.39 
2.194;0.45;-1.07;-0.08;49.95;25.11;0.00;-334.05;-274.13;-30.00;1.16;34.73;34.55;-55.45 
2.223;0.46;-1.00;0.02;47.30;27.90;4.80;-336.04;-274.13;-45.00;1.10;37.70;34.55;-55.39 
2.253;0.38;-0.94;0.11;44.24;0.83;10.09;-332.06;-271.26;-51.00;1.02;40.08;34.26;-55.52 
2.283;0.36;-0.99;0.05;37.08;-3.41;0.14;-327.09;-272.22;-59.00;1.05;41.41;34.03;-55.59 
2.313;0.44;-1.02;0.01;33.74;8.07;-6.89;-331.07;-274.13;-65.00;1.11;43.17;34.28;-55.15 
2.344;0.38;-0.97;0.06;32.70;5.77;-9.25;-327.09;-273.17;-74.00;1.04;44.73;34.38;-54.81 
2.374;0.43;-1.02;0.09;27.90;16.97;-12.17;-324.11;-273.17;-79.00;1.11;46.52;34.64;-54.27 
2.404;0.48;-0.97;0.16;19.90;12.94;-6.40;-324.11;-277.97;-85.00;1.09;48.10;34.86;-53.77 
2.435;0.39;-0.93;0.20;9.53;5.84;-7.37;-325.10;-275.09;-89.00;1.03;49.23;34.91;-53.50 
2.465;0.54;-0.93;0.11;-4.66;1.11;-16.49;-323.11;-277.01;-88.00;1.08;49.97;35.31;-53.03 
2.495;0.50;-0.94;0.13;-7.03;-2.85;0.49;-323.11;-278.93;-87.00;1.07;50.12;35.60;-52.78 
2.525;0.50;-0.85;0.09;-18.02;-4.10;4.24;-325.10;-280.84;-82.00;0.99;49.67;35.59;-52.89 
2.555;0.47;-0.92;0.06;-22.54;-8.83;9.74;-327.09;-274.13;-82.00;1.03;48.72;35.41;-53.25 
2.585;0.44;-0.98;0.00;-24.42;-13.63;3.83;-328.08;-278.93;-74.00;1.07;47.45;35.36;-53.54 
2.615;0.43;-0.98;-0.12;-17.46;-4.31;5.84;-328.08;-277.01;-72.00;1.08;46.29;35.26;-53.82 
2.646;0.42;-0.97;-0.07;-13.08;3.06;5.84;-329.08;-276.05;-68.00;1.06;45.47;35.06;-54.14 
2.676;0.46;-0.94;0.00;-12.10;1.46;5.08;-328.08;-275.09;-66.00;1.05;44.93;34.88;-54.38 
2.706;0.45;-0.95;-0.02;-9.53;-6.05;5.70;-329.08;-274.13;-64.00;1.05;44.53;34.82;-54.49 
2.735;0.42;-0.94;-0.03;-6.47;-7.58;4.17;-330.07;-272.22;-63.00;1.03;43.76;34.67;-54.73 
2.765;0.40;-0.94;-0.07;-3.20;-3.20;2.30;-332.06;-272.22;-58.00;1.02;43.12;34.55;-54.90 
2.795;0.42;-0.94;-0.07;-0.21;0.90;0.14;-332.06;-271.26;-63.00;1.03;42.87;34.51;-54.97 
2.825;0.45;-0.95;-0.03;2.78;1.81;-0.63;-332.06;-272.22;-65.00;1.05;42.89;34.49;-54.98 
2.856;0.43;-0.97;0.00;4.10;0.00;-1.74;-331.07;-275.09;-62.00;1.06;43.04;34.50;-54.95 
2.885;0.43;-0.94;-0.04;3.55;0.63;-2.16;-330.07;-273.17;-67.00;1.03;43.23;34.57;-54.86 
2.915;0.43;-0.95;-0.02;3.27;-0.42;-0.90;-330.07;-274.13;-65.00;1.04;43.35;34.63;-54.79 
2.946;0.43;-0.94;-0.04;2.50;0.56;-1.74;-330.07;-273.17;-65.00;1.03;43.51;34.70;-54.71 
2.976;0.42;-0.97;-0.06;1.88;0.83;-2.57;-330.07;-276.05;-69.00;1.06;43.66;34.74;-54.64 
3.005;0.42;-0.94;0.00;0.56;0.14;-2.37;-334.05;-277.97;-67.00;1.03;43.84;34.83;-54.54 
3.035;0.43;-0.94;0.00;-0.77;-0.28;-0.77;-329.08;-275.09;-67.00;1.03;44.12;35.00;-54.35 
3.064;0.44;-0.94;-0.04;-1.74;0.07;-1.18;-327.09;-277.01;-66.00;1.04;44.05;35.02;-54.34 
3.093;0.45;-0.94;-0.04;-2.37;-0.35;-0.77;-331.07;-272.22;-69.00;1.04;44.19;35.14;-54.22 
3.123;0.45;-0.92;0.00;-1.39;1.32;-0.14;-332.06;-276.05;-67.00;1.02;44.16;35.16;-54.20 
3.153;0.45;-0.92;-0.05;-1.81;0.83;1.39;-333.05;-273.17;-66.00;1.03;44.09;35.14;-54.23 
3.183;0.44;-0.97;-0.05;-1.88;0.07;0.70;-329.08;-278.93;-66.00;1.07;43.95;35.09;-54.29 
3.212;0.42;-0.94;-0.07;-0.97;-0.77;0.70;-332.06;-277.97;-65.00;1.03;44.04;35.17;-54.21 
3.243;0.45;-0.95;-0.02;0.97;0.70;0.42;-334.05;-277.01;-63.00;1.05;43.91;35.13;-54.26 
3.273;0.44;-0.94;-0.03;1.46;1.46;0.14;-330.07;-274.13;-65.00;1.04;43.95;35.11;-54.27 
3.303;0.44;-0.94;-0.06;0.77;0.90;1.04;-329.08;-277.01;-62.00;1.04;43.94;35.07;-54.31 
3.333;0.45;-0.94;-0.05;0.56;0.42;0.63;-330.07;-277.01;-63.00;1.04;43.91;35.04;-54.33 
3.363;0.43;-0.97;-0.04;0.70;0.56;0.42;-329.08;-274.13;-64.00;1.06;44.10;35.11;-54.24 
3.393;0.43;-0.98;0.00;0.83;0.70;-0.70;-328.08;-276.05;-66.00;1.07;44.32;35.21;-54.12 
3.423;0.42;-0.93;-0.03;-0.77;0.77;-0.70;-331.07;-272.22;-63.00;1.02;44.29;35.22;-54.11 
3.452;0.43;-0.93;-0.04;-0.97;0.35;-1.25;-328.08;-273.17;-69.00;1.03;44.29;35.26;-54.08 
3.482;0.45;-0.94;-0.03;-0.83;-0.07;0.28;-329.08;-276.05;-65.00;1.04;44.21;35.29;-54.07 
3.512;0.42;-0.94;-0.04;-1.60;-0.49;0.42;-327.09;-276.05;-66.00;1.03;44.35;35.38;-53.96 
3.543;0.43;-0.94;-0.07;-1.81;-0.42;0.14;-332.06;-277.01;-66.00;1.04;44.17;35.35;-54.02 
3.573;0.42;-0.95;-0.06;-1.39;-0.21;-0.83;-331.07;-275.09;-67.00;1.04;44.01;35.32;-54.06 
3.603;0.44;-0.94;-0.05;-1.32;1.25;-0.83;-327.09;-276.05;-65.00;1.04;43.94;35.32;-54.07 
3.633;0.43;-0.92;-0.02;-1.60;0.42;-0.49;-328.08;-277.01;-66.00;1.02;43.90;35.31;-54.08 
3.663;0.44;-0.95;0.00;-2.02;-0.97;-0.21;-331.07;-275.09;-64.00;1.05;43.79;35.30;-54.10 
3.693;0.41;-0.94;-0.06;-1.81;-0.07;-0.56;-328.08;-276.05;-70.00;1.03;43.64;35.30;-54.13 
3.723;0.45;-0.95;-0.06;-0.21;0.83;-0.49;-333.05;-277.01;-64.00;1.05;43.54;35.29;-54.15 
3.754;0.46;-0.97;-0.02;-0.28;1.39;-0.14;-334.05;-277.01;-65.00;1.07;43.52;35.28;-54.15 
3.784;0.42;-0.93;-0.08;-0.21;0.14;0.42;-332.06;-277.97;-61.00;1.02;43.47;35.25;-54.18 
3.814;0.44;-0.95;-0.06;-0.14;0.42;0.42;-329.08;-274.13;-62.00;1.05;43.38;35.22;-54.23 
3.845;0.43;-0.93;-0.02;-0.28;0.90;0.56;-330.07;-276.05;-63.00;1.02;43.31;35.16;-54.28 
3.875;0.42;-0.94;-0.05;-0.42;0.14;0.63;-332.06;-276.05;-61.00;1.03;43.23;35.11;-54.34 
3.905;0.44;-0.96;-0.05;-0.49;-0.07;0.14;-334.05;-276.05;-65.00;1.06;43.14;35.07;-54.38 
3.935;0.44;-0.94;-0.05;-0.70;0.14;0.00;-331.07;-277.01;-63.00;1.04;43.03;35.04;-54.42 
3.964;0.45;-0.96;0.00;-0.77;0.14;0.14;-331.07;-274.13;-64.00;1.06;42.96;35.02;-54.44 
3.994;0.46;-0.94;-0.06;-1.11;0.14;0.49;-331.07;-278.93;-63.00;1.05;42.87;34.99;-54.48 
4.024;0.43;-0.96;-0.05;-0.70;0.35;0.21;-331.07;-276.05;-61.00;1.05;42.80;34.96;-54.52 
4.055;0.40;-0.96;0.00;-0.49;-0.14;-0.21;-332.06;-276.05;-63.00;1.04;42.75;34.94;-54.54 
4.085;0.43;-0.94;-0.05;-0.63;0.07;-0.35;-331.07;-276.05;-59.00;1.03;42.69;34.92;-54.56 
4.115;0.44;-0.94;-0.02;-0.70;-0.07;-0.07;-329.08;-277.97;-61.00;1.04;42.63;34.91;-54.57 
4.145;0.43;-0.96;-0.06;0.00;0.63;-0.21;-329.08;-276.05;-64.00;1.05;42.57;34.90;-54.59 
4.175;0.45;-0.95;-0.05;-0.35;1.04;-0.56;-331.07;-275.09;-63.00;1.05;42.54;34.88;-54.61 
4.205;0.43;-0.95;-0.04;-0.83;0.00;-0.21;-332.06;-277.01;-64.00;1.04;42.49;34.87;-54.62 
4.234;0.45;-0.94;-0.03;-0.90;0.14;-0.42;-331.07;-275.09;-59.00;1.04;42.45;34.87;-54.63 
4.264;0.42;-0.95;-0.06;-0.42;0.49;-0.35;-333.05;-275.09;-64.00;1.04;42.39;34.86;-54.64 
4.294;0.45;-0.96;-0.07;-0.70;0.14;-0.21;-332.06;-277.01;-63.00;1.06;42.37;34.86;-54.64 
4.324;0.43;-0.94;-0.05;-0.77;0.77;-0.14;-329.08;-276.05;-62.00;1.03;42.33;34.86;-54.65 
4.355;0.44;-0.93;-0.04;-0.83;0.35;-0.07;-331.07;-275.09;-62.00;1.03;42.28;34.85;-54.66 
4.385;0.45;-0.96;-0.06;-0.63;0.21;-0.35;-330.07;-277.01;-65.00;1.06;42.25;34.84;-54.67 
4.415;0.42;-0.94;-0.05;-0.42;0.90;-0.90;-333.05;-277.97;-65.00;1.03;42.20;34.83;-54.68 
4.445;0.45;-0.97;-0.03;-0.97;0.35;-0.28;-330.07;-277.01;-64.00;1.07;42.19;34.84;-54.67 
4.475;0.44;-0.97;-0.05;-1.18;0.35;-0.42;-330.07;-276.05;-61.00;1.07;42.13;34.84;-54.69 
4.505;0.42;-0.91;-0.03;-1.04;0.00;0.42;-333.05;-276.05;-63.00;1.00;42.05;34.81;-54.72 
4.535;0.42;-0.94;-0.07;-0.49;0.42;0.28;-326.09;-277.97;-62.00;1.03;41.99;34.80;-54.73 
4.565;0.44;-0.94;-0.05;0.00;1.67;0.21;-332.06;-276.05;-60.00;1.04;42.02;34.80;-54.73 
4.595;0.44;-0.94;-0.03;0.63;0.63;0.28;-332.06;-276.05;-59.00;1.04;42.00;34.79;-54.74 
4.625;0.42;-0.94;-0.04;0.56;0.00;0.21;-331.07;-275.09;-62.00;1.03;41.97;34.78;-54.75 
4.655;0.43;-0.94;-0.02;0.63;1.46;-0.07;-329.08;-277.97;-59.00;1.03;42.20;34.88;-54.63 
4.684;0.42;-0.94;-0.02;0.49;1.39;-0.21;-332.06;-275.09;-61.00;1.03;42.26;34.88;-54.62 
4.714;0.43;-0.97;-0.02;0.07;0.63;-0.28;-332.06;-277.01;-59.00;1.06;42.47;34.98;-54.51 
4.744;0.47;-0.95;-0.06;0.14;0.90;-0.42;-331.07;-275.09;-64.00;1.06;42.47;34.95;-54.53 
4.774;0.42;-0.92;-0.08;0.14;0.56;0.21;-333.05;-275.09;-62.00;1.01;42.47;34.95;-54.52 
4.804;0.43;-0.93;-0.05;-0.07;1.18;0.42;-331.07;-277.01;-65.00;1.03;42.42;34.93;-54.55 
4.833;0.43;-0.94;-0.05;-0.14;1.18;0.42;-328.08;-274.13;-63.00;1.03;42.41;34.90;-54.58 
4.863;0.45;-0.96;-0.04;0.21;0.77;0.63;-330.07;-275.09;-63.00;1.06;42.37;34.87;-54.61 
4.893;0.44;-0.94;0.00;0.49;1.53;0.63;-331.07;-276.05;-64.00;1.04;42.42;34.88;-54.59 
4.923;0.43;-0.94;0.00;0.14;0.56;0.77;-332.06;-275.09;-60.00;1.03;42.38;34.83;-54.64 
4.954;0.43;-0.94;-0.05;-0.14;0.42;0.49;-330.07;-276.05;-66.00;1.03;42.32;34.79;-54.68 
4.983;0.43;-0.97;-0.03;0.56;1.32;0.14;-332.06;-274.13;-65.00;1.06;42.28;34.75;-54.71 
5.012;0.46;-0.95;-0.05;0.28;0.70;-0.35;-329.08;-278.93;-64.00;1.06;42.25;34.72;-54.74 
5.042;0.46;-0.98;-0.02;0.63;1.32;-0.07;-330.07;-277.01;-64.00;1.08;42.25;34.72;-54.74 
5.072;0.44;-0.94;-0.04;0.07;1.32;-0.28;-332.06;-276.05;-62.00;1.04;42.27;34.71;-54.75 
5.102;0.44;-0.95;-0.04;-0.49;0.00;0.35;-332.06;-278.93;-66.00;1.05;42.26;34.70;-54.75 
5.132;0.43;-0.95;-0.06;-0.21;0.42;0.14;-331.07;-276.05;-63.00;1.04;42.19;34.68;-54.78 
5.163;0.43;-0.94;-0.06;-0.14;0.83;-0.49;-331.07;-275.09;-62.00;1.04;42.19;34.67;-54.78 
5.193;0.45;-0.97;-0.07;-0.07;0.07;-0.14;-330.07;-277.01;-65.00;1.07;42.17;34.66;-54.79 
5.222;0.44;-0.95;-0.05;0.28;0.70;-0.07;-328.08;-276.05;-65.00;1.05;42.20;34.68;-54.77 
5.253;0.42;-0.96;-0.04;0.35;0.70;-0.35;-334.05;-276.05;-61.00;1.05;42.23;34.69;-54.76 
5.283;0.44;-0.94;-0.02;0.00;0.56;-0.21;-329.08;-277.97;-63.00;1.04;42.22;34.68;-54.76 
5.313;0.44;-0.94;-0.03;-0.35;0.70;-0.14;-330.07;-276.05;-62.00;1.04;42.20;34.67;-54.77 
5.343;0.44;-0.95;-0.05;-0.83;0.56;-0.28;-330.07;-276.05;-65.00;1.05;42.15;34.68;-54.77 
5.374;0.44;-0.94;-0.04;-0.97;0.77;-0.07;-331.07;-276.05;-64.00;1.04;42.15;34.69;-54.76 
5.404;0.42;-0.97;-0.02;-1.11;0.56;0.14;-333.05;-274.13;-62.00;1.06;42.10;34.68;-54.78 
5.433;0.44;-0.93;-0.06;-1.32;-0.28;-0.35;-332.06;-276.05;-61.00;1.03;42.11;34.71;-54.75 
5.463;0.43;-0.95;-0.08;-1.04;0.35;-0.42;-331.07;-274.13;-64.00;1.05;42.05;34.70;-54.77 
5.492;0.44;-0.93;-0.03;-0.28;0.77;-0.42;-330.07;-276.05;-60.00;1.03;42.02;34.70;-54.76 
5.522;0.45;-0.96;-0.07;0.14;0.90;-0.28;-328.08;-277.01;-62.00;1.06;41.99;34.72;-54.75 
5.552;0.46;-0.97;-0.06;0.00;0.90;0.00;-331.07;-277.97;-66.00;1.08;41.99;34.72;-54.75 
5.582;0.45;-0.94;-0.05;-0.14;0.21;0.63;-331.07;-276.05;-67.00;1.04;41.98;34.71;-54.76 
5.612;0.44;-0.96;0.00;-0.90;0.70;0.42;-328.08;-276.05;-62.00;1.06;41.94;34.69;-54.78 
5.642;0.43;-0.94;0.00;-0.90;0.14;0.83;-331.07;-275.09;-61.00;1.03;41.88;34.66;-54.81 
5.672;0.42;-0.95;-0.05;-0.83;0.14;0.35;-331.07;-277.97;-63.00;1.04;41.81;34.65;-54.83 
5.702;0.42;-0.94;-0.06;-0.77;0.14;0.07;-331.07;-275.09;-66.00;1.03;41.78;34.65;-54.84 
5.732;0.43;-0.95;-0.07;-0.56;0.21;-0.28;-333.05;-277.97;-64.00;1.05;41.74;34.65;-54.84 
5.763;0.44;-0.94;-0.02;-1.04;0.42;-0.14;-333.05;-277.01;-62.00;1.04;41.68;34.64;-54.85 
5.793;0.42;-0.94;-0.02;-0.97;-0.21;-0.42;-332.06;-275.09;-60.00;1.03;41.62;34.63;-54.87 
5.823;0.43;-0.93;-0.06;-0.21;0.00;-0.90;-332.06;-274.13;-61.00;1.03;41.59;34.64;-54.87 
5.853;0.46;-0.95;-0.06;-0.77;0.07;-0.83;-330.07;-274.13;-62.00;1.06;41.53;34.64;-54.87 
5.882;0.45;-0.96;-0.06;-0.42;0.21;-0.70;-328.08;-276.05;-62.00;1.06;41.49;34.65;-54.87 
5.911;0.43;-0.96;-0.06;-0.28;0.00;-0.56;-335.04;-279.88;-63.00;1.05;41.48;34.66;-54.86 
5.940;0.43;-0.96;-0.06;-0.63;0.07;-0.70;-333.05;-277.97;-65.00;1.05;41.48;34.68;-54.83 
5.971;0.44;-0.93;-0.04;-0.56;0.70;0.14;-332.06;-278.93;-62.00;1.03;41.48;34.69;-54.83 
6.001;0.43;-0.93;-0.02;-0.35;0.83;0.42;-331.07;-277.97;-60.00;1.02;41.46;34.68;-54.84 
6.031;0.43;-0.90;-0.06;-0.63;0.42;0.28;-330.07;-276.05;-62.00;1.00;41.41;34.65;-54.87 
6.062;0.43;-0.95;-0.06;-0.49;0.21;0.49;-330.07;-275.09;-67.00;1.04;41.37;34.62;-54.90 
6.092;0.42;-0.94;-0.06;-0.35;0.28;0.07;-332.06;-278.93;-63.00;1.03;41.40;34.64;-54.88 
6.121;0.43;-0.94;-0.03;-0.63;0.49;0.49;-331.07;-278.93;-63.00;1.03;41.35;34.62;-54.90 
6.150;0.42;-0.94;-0.03;-0.77;0.63;0.07;-329.08;-277.97;-62.00;1.03;41.30;34.61;-54.91 
6.179;0.41;-0.94;-0.04;-0.49;0.49;-0.49;-331.07;-277.97;-58.00;1.03;41.24;34.61;-54.92 
6.209;0.44;-0.94;-0.07;-1.04;0.21;-0.35;-330.07;-278.93;-63.00;1.04;41.25;34.64;-54.90 
6.239;0.44;-0.94;-0.05;-0.28;0.63;-0.21;-331.07;-277.97;-61.00;1.04;41.23;34.64;-54.90 
6.270;0.46;-0.94;-0.09;-0.90;0.28;0.07;-330.07;-277.01;-62.00;1.05;41.23;34.65;-54.88 
6.300;0.45;-0.96;-0.02;-0.90;-0.35;-0.42;-332.06;-276.05;-64.00;1.06;41.21;34.65;-54.89 
6.330;0.43;-0.94;-0.06;-0.56;0.70;-0.07;-329.08;-279.88;-61.00;1.04;41.18;34.64;-54.90 
6.361;0.43;-0.95;-0.05;-0.14;1.67;0.35;-332.06;-277.01;-64.00;1.04;41.18;34.63;-54.91 
6.391;0.46;-0.94;-0.05;0.28;0.70;0.00;-331.07;-279.88;-62.00;1.05;41.14;34.61;-54.93 
6.420;0.42;-0.98;-0.05;0.70;1.18;0.07;-330.07;-276.05;-64.00;1.07;41.21;34.63;-54.90 
6.449;0.41;-0.94;-0.06;1.25;1.04;-0.21;-331.07;-277.01;-64.00;1.03;41.23;34.61;-54.91 
6.478;0.42;-0.94;0.00;0.90;0.97;-0.35;-331.07;-277.01;-62.00;1.03;41.27;34.62;-54.90 
6.508;0.43;-0.94;-0.03;1.25;1.32;-0.14;-328.08;-275.09;-61.00;1.03;41.33;34.63;-54.87 
6.538;0.45;-0.95;-0.05;0.77;0.97;0.14;-332.06;-279.88;-63.00;1.05;41.57;34.73;-54.75 
6.569;0.43;-0.95;-0.04;0.63;0.63;0.42;-330.07;-276.05;-62.00;1.04;41.59;34.72;-54.75 
6.599;0.46;-0.95;-0.05;-0.14;0.42;0.28;-328.08;-276.05;-63.00;1.06;41.57;34.70;-54.77 
6.629;0.44;-0.96;-0.05;-0.77;0.21;0.42;-328.08;-276.05;-64.00;1.06;41.53;34.68;-54.79 
6.659;0.45;-0.94;-0.03;-0.49;0.70;0.00;-330.07;-277.01;-62.00;1.04;41.47;34.68;-54.80 
6.689;0.46;-0.96;-0.08;-0.21;0.56;-0.28;-331.07;-277.97;-62.00;1.07;41.40;34.65;-54.84 
6.719;0.43;-0.94;-0.06;-0.21;1.18;-0.63;-332.06;-277.01;-63.00;1.04;41.38;34.65;-54.84 
6.749;0.45;-0.94;-0.02;0.56;1.18;-0.14;-331.07;-278.93;-61.00;1.04;41.37;34.65;-54.84 
6.779;0.42;-0.94;-0.09;0.42;0.70;-0.35;-331.07;-277.01;-65.00;1.03;41.41;34.65;-54.83 
6.809;0.45;-0.95;-0.09;0.49;1.46;-0.14;-333.05;-277.97;-64.00;1.06;41.44;34.64;-54.83 
6.839;0.44;-0.93;-0.03;0.35;1.25;0.35;-330.07;-280.84;-63.00;1.03;41.50;34.63;-54.83 
6.870;0.42;-0.94;-0.06;-0.28;0.56;0.97;-329.08;-278.93;-64.00;1.03;41.47;34.61;-54.85 
6.899;0.45;-0.96;-0.06;-0.14;0.56;0.83;-329.08;-277.97;-64.00;1.06;41.40;34.58;-54.88 
6.928;0.42;-0.95;-0.07;0.21;0.63;0.83;-332.06;-278.93;-64.00;1.04;41.35;34.56;-54.91 
6.957;0.44;-0.96;-0.06;0.28;1.11;0.21;-331.07;-276.05;-64.00;1.06;41.32;34.52;-54.95 
6.987;0.43;-0.94;-0.06;0.21;0.70;0.07;-330.07;-275.09;-60.00;1.04;41.30;34.50;-54.97 
7.017;0.42;-0.96;-0.04;-0.07;1.39;-0.63;-331.07;-276.05;-65.00;1.05;41.33;34.51;-54.95 
7.047;0.42;-0.94;-0.04;0.21;0.77;-0.70;-333.05;-276.05;-64.00;1.03;41.40;34.54;-54.91 
7.077;0.42;-0.93;-0.05;-0.14;0.35;-0.49;-333.05;-277.97;-64.00;1.02;41.40;34.55;-54.90 
7.107;0.43;-0.93;-0.03;-0.07;1.11;-0.63;-333.05;-278.93;-65.00;1.03;41.40;34.56;-54.89 
7.136;0.46;-0.96;-0.06;0.28;1.53;-0.28;-331.07;-277.01;-65.00;1.07;41.44;34.59;-54.86 
7.166;0.45;-0.94;-0.04;0.00;1.04;0.35;-333.05;-279.88;-66.00;1.04;41.44;34.59;-54.86 
7.196;0.43;-0.93;-0.03;0.14;1.04;0.56;-330.07;-278.93;-69.00;1.03;41.46;34.59;-54.86 
7.226;0.44;-0.93;-0.05;0.00;0.35;0.77;-328.08;-276.05;-61.00;1.03;41.46;34.59;-54.85 
7.257;0.45;-0.95;-0.04;0.14;1.11;0.63;-327.09;-275.09;-64.00;1.05;41.43;34.56;-54.88 
7.287;0.43;-0.94;-0.02;0.63;1.25;0.42;-330.07;-275.09;-65.00;1.03;41.43;34.53;-54.90 
7.317;0.43;-0.95;-0.03;0.21;0.70;0.35;-330.07;-278.93;-64.00;1.04;41.43;34.52;-54.91 
7.347;0.44;-0.94;-0.05;-0.63;0.97;-0.14;-331.07;-276.05;-67.00;1.04;41.41;34.52;-54.92 
7.376;0.44;-0.94;-0.06;-1.81;0.83;-0.49;-330.07;-274.13;-64.00;1.04;41.45;34.55;-54.88 
7.406;0.44;-0.90;-0.09;-2.02;1.88;-0.83;-330.07;-276.05;-64.00;1.01;41.42;34.57;-54.87 
7.436;0.42;-0.97;-0.04;-1.04;1.53;-0.77;-332.06;-275.09;-67.00;1.06;41.40;34.57;-54.87 
7.467;0.46;-0.94;-0.05;-0.07;0.42;-0.07;-331.07;-275.09;-62.00;1.05;41.47;34.62;-54.82 
7.497;0.44;-0.94;-0.10;0.83;-0.49;1.60;-329.08;-276.05;-62.00;1.04;41.40;34.59;-54.85 
7.527;0.45;-0.97;-0.04;0.97;-0.56;0.97;-334.05;-276.05;-64.00;1.07;41.35;34.55;-54.89 
7.557;0.42;-0.95;0.00;0.97;-0.56;0.28;-329.08;-276.05;-65.00;1.04;41.28;34.50;-54.94 
7.587;0.42;-0.95;-0.04;1.67;-0.49;0.00;-328.08;-279.88;-65.00;1.04;41.23;34.49;-54.95 
7.617;0.45;-0.96;-0.02;1.88;0.49;-1.11;-330.07;-277.01;-66.00;1.06;41.26;34.50;-54.93 
7.647;0.43;-0.95;0.00;1.53;-0.70;-2.16;-331.07;-277.97;-66.00;1.04;41.33;34.53;-54.89 
7.678;0.43;-0.95;0.00;0.77;-1.67;-2.71;-327.09;-276.05;-66.00;1.04;41.39;34.60;-54.83 
7.708;0.44;-0.94;-0.04;-0.77;-1.18;-2.57;-329.08;-278.93;-64.00;1.04;41.41;34.68;-54.75 
7.738;0.42;-0.94;-0.02;-1.95;0.49;-2.99;-331.07;-277.01;-66.00;1.03;41.48;34.81;-54.63 
7.769;0.45;-0.94;0.00;-2.99;0.28;-2.50;-329.08;-281.80;-66.00;1.04;41.71;35.01;-54.43 
7.798;0.44;-0.92;-0.04;-3.06;-0.49;-1.74;-331.07;-281.80;-62.00;1.02;41.73;35.11;-54.34 
7.827;0.45;-0.93;-0.06;-3.13;-0.42;-1.32;-332.06;-278.93;-65.00;1.03;41.68;35.16;-54.31 
7.857;0.46;-0.94;-0.01;-3.20;-0.83;-0.49;-329.08;-280.84;-60.00;1.05;41.58;35.18;-54.30 
7.887;0.45;-0.94;-0.06;-2.78;-0.14;-0.07;-333.05;-283.72;-62.00;1.04;41.45;35.19;-54.31 
7.917;0.42;-0.91;-0.06;-0.90;2.02;0.28;-331.07;-282.76;-61.00;1.00;41.37;35.19;-54.32 
7.947;0.45;-0.95;-0.06;-0.14;1.25;1.11;-330.07;-279.88;-67.00;1.05;41.33;35.15;-54.37 
7.978;0.45;-0.95;-0.04;0.28;0.28;0.97;-331.07;-282.76;-61.00;1.05;41.29;35.13;-54.39 
8.008;0.43;-0.93;-0.06;0.83;0.63;1.04;-331.07;-283.72;-65.00;1.03;41.20;35.06;-54.46 
8.038;0.44;-0.96;-0.05;-0.07;0.83;1.04;-333.05;-279.88;-64.00;1.06;41.15;35.02;-54.50 
8.068;0.43;-0.94;-0.04;-0.28;0.56;0.49;-333.05;-277.01;-63.00;1.03;41.11;34.98;-54.54 
8.098;0.42;-0.95;-0.07;-1.18;1.04;-0.14;-334.05;-282.76;-66.00;1.04;41.05;34.95;-54.57 
8.128;0.42;-0.94;-0.05;-0.14;1.32;-0.77;-335.04;-279.88;-63.00;1.03;41.24;35.06;-54.45 
8.158;0.44;-0.96;-0.04;-1.11;0.42;-1.11;-333.05;-279.88;-60.00;1.06;41.26;35.07;-54.44 
8.188;0.48;-0.95;-0.05;-0.63;0.21;-0.90;-332.06;-279.88;-64.00;1.07;41.25;35.09;-54.42 
8.218;0.45;-0.93;-0.06;0.21;1.60;-0.49;-330.07;-282.76;-60.00;1.03;41.27;35.12;-54.39 
8.248;0.46;-0.93;-0.07;0.77;1.95;0.07;-331.07;-278.93;-64.00;1.04;41.30;35.13;-54.38 
8.279;0.44;-0.93;-0.06;0.70;1.32;0.49;-332.06;-280.84;-62.00;1.03;41.30;35.10;-54.40 
8.308;0.43;-0.94;-0.05;0.90;2.02;0.56;-332.06;-279.88;-66.00;1.03;41.32;35.07;-54.43 
8.337;0.42;-0.93;0.00;1.67;1.04;1.18;-329.08;-277.01;-63.00;1.02;41.35;35.04;-54.44 
8.367;0.44;-0.95;0.00;0.77;0.21;1.18;-331.07;-282.76;-64.00;1.05;41.31;34.99;-54.48 
8.397;0.42;-0.94;-0.04;0.97;1.04;0.49;-330.07;-281.80;-64.00;1.03;41.28;34.96;-54.51 
8.427;0.44;-0.94;-0.02;0.35;1.11;0.07;-332.06;-281.80;-63.00;1.04;41.27;34.94;-54.53 
8.457;0.42;-0.94;-0.04;-0.07;1.39;-0.21;-332.06;-277.01;-64.00;1.03;41.31;34.92;-54.54 
8.488;0.40;-0.94;-0.08;-0.42;0.77;-0.28;-332.06;-277.01;-62.00;1.02;41.28;34.92;-54.54 
8.518;0.43;-0.94;0.00;-0.28;0.63;0.00;-331.07;-279.88;-63.00;1.03;41.25;34.91;-54.55 
8.548;0.42;-0.94;-0.06;0.28;0.00;-0.49;-330.07;-278.93;-66.00;1.03;41.25;34.91;-54.55 
8.579;0.43;-0.94;-0.06;0.21;0.63;-0.21;-333.05;-276.05;-68.00;1.04;41.22;34.90;-54.56 
8.609;0.45;-0.95;-0.02;0.00;1.18;-0.14;-331.07;-278.93;-65.00;1.05;41.19;34.89;-54.58 
8.639;0.43;-0.93;-0.05;0.00;0.63;-0.42;-334.05;-279.88;-63.00;1.03;41.23;34.90;-54.56 
8.669;0.45;-0.96;-0.06;0.00;1.32;-0.49;-333.05;-278.93;-65.00;1.06;41.20;34.89;-54.57 
8.698;0.44;-0.94;-0.06;0.21;1.04;-1.04;-331.07;-280.84;-66.00;1.04;41.23;34.92;-54.54 
8.728;0.45;-0.95;-0.08;-0.49;0.90;-0.28;-330.07;-280.84;-65.00;1.05;41.24;34.93;-54.53 
8.758;0.45;-0.93;-0.03;-0.70;1.11;-0.35;-331.07;-281.80;-65.00;1.03;41.22;34.93;-54.53 
8.789;0.42;-0.94;-0.04;-0.70;0.63;-0.56;-332.06;-278.93;-63.00;1.03;41.22;34.95;-54.51 
8.819;0.46;-0.94;-0.02;-0.70;1.88;-1.95;-333.05;-279.88;-63.00;1.05;41.25;34.99;-54.48 
8.849;0.42;-0.94;-0.11;1.18;-0.90;-3.41;-330.07;-282.76;-66.00;1.04;41.28;35.05;-54.42 
8.879;0.46;-0.96;-0.07;5.08;4.66;-6.26;-329.08;-279.88;-66.00;1.07;41.44;35.18;-54.29 
8.909;0.42;-0.92;-0.06;8.77;2.78;-8.63;-331.07;-284.68;-65.00;1.01;41.85;35.35;-54.07 
8.939;0.40;-0.96;-0.05;10.92;2.37;-12.87;-329.08;-284.68;-68.00;1.04;42.37;35.61;-53.76 
