Time(s) acc_x(g) acc_y(g) acc_z(g) gyr_x(°/s) gyr_y(°/s) gyr_z(°/s) mag_x(G) mag_y(G) mag_z(G) SVM(g) yaw(°) pitch(°) roll(°)
0.000;0.87;0.60;-0.25;1.39;9.60;7.30;343.43;-616.19;231.00;1.09;124.50;51.98;34.44 
0.030;0.88;0.59;-0.20;0.42;11.27;5.50;346.42;-614.27;228.00;1.08;124.33;52.28;34.23 
0.060;0.89;0.58;-0.20;1.32;11.06;4.17;336.44;-616.19;229.00;1.08;124.22;52.54;34.08 
0.090;0.87;0.59;-0.17;1.18;5.22;2.78;339.43;-620.98;228.00;1.06;124.16;52.71;33.99 
0.121;0.85;0.61;-0.15;1.74;0.97;4.38;338.43;-616.19;230.00;1.06;124.11;52.81;33.90 
0.151;0.86;0.59;-0.25;1.04;0.42;5.22;337.44;-620.98;228.00;1.07;123.99;52.92;33.76 
0.181;0.86;0.62;-0.23;0.14;4.38;5.29;335.44;-619.06;227.00;1.08;123.88;53.03;33.64 
0.211;0.90;0.61;-0.17;1.32;6.89;5.70;337.44;-620.02;230.00;1.10;123.78;53.19;33.51 
0.241;0.90;0.59;-0.13;3.13;3.69;4.45;335.44;-622.89;228.00;1.08;123.65;53.39;33.36 
0.271;0.92;0.57;-0.24;0.83;-0.77;0.28;332.44;-622.89;228.00;1.11;123.61;53.43;33.29 
0.301;0.82;0.58;-0.20;1.60;0.70;-2.30;332.44;-623.85;230.00;1.02;123.65;53.40;33.30 
0.332;0.87;0.58;-0.21;2.37;-3.83;2.78;333.44;-622.89;227.00;1.07;123.70;53.33;33.32 
0.362;0.85;0.58;-0.26;-0.56;-1.25;3.69;331.45;-622.89;229.00;1.06;123.63;53.32;33.24 
0.392;0.89;0.56;-0.25;-1.53;7.72;3.34;333.44;-624.81;228.00;1.08;123.52;53.44;33.13 
0.423;0.88;0.55;-0.20;-2.16;6.75;0.14;332.44;-622.89;228.00;1.06;123.46;53.61;33.05 
0.453;0.89;0.56;-0.20;-1.46;0.07;0.35;331.45;-627.69;226.00;1.07;123.48;53.64;33.07 
0.483;0.88;0.57;-0.22;-1.18;2.37;-0.28;329.45;-626.73;229.00;1.07;123.48;53.64;33.06 
0.513;0.90;0.59;-0.21;-1.67;6.12;-0.28;329.45;-625.77;229.00;1.10;123.52;53.66;33.09 
0.544;0.88;0.58;-0.17;-1.60;4.52;-1.39;331.45;-626.73;224.00;1.07;123.58;53.68;33.14 
0.574;0.86;0.62;-0.23;-1.39;1.25;-1.74;332.44;-623.85;226.00;1.08;123.68;53.62;33.24 
0.604;0.89;0.60;-0.26;-2.23;1.60;-0.35;335.44;-626.73;225.00;1.10;123.76;53.55;33.31 
0.635;0.88;0.61;-0.22;-4.24;7.03;-1.88;334.44;-626.73;223.00;1.09;123.86;53.51;33.41 
0.665;0.86;0.59;-0.17;-4.03;4.38;-2.23;337.44;-626.73;224.00;1.06;123.97;53.49;33.52 
0.695;0.89;0.60;-0.21;-2.09;-0.07;-0.77;335.44;-624.81;221.00;1.09;124.09;53.40;33.66 
0.725;0.87;0.58;-0.22;-1.67;3.27;-0.35;333.44;-627.69;221.00;1.07;124.15;53.36;33.71 
0.755;0.90;0.58;-0.19;-1.53;4.87;-1.04;335.44;-628.64;218.00;1.09;124.20;53.37;33.75 
0.785;0.86;0.59;-0.14;-0.83;2.85;-1.95;336.44;-628.64;218.00;1.05;124.27;53.35;33.81 
0.815;0.85;0.59;-0.16;-0.77;0.07;0.49;337.44;-625.77;222.00;1.05;124.34;53.30;33.88 
0.846;0.87;0.61;-0.18;-0.42;-2.02;2.23;334.44;-628.64;219.00;1.08;124.36;53.27;33.89 
0.875;0.89;0.59;-0.18;0.28;-1.18;0.00;335.44;-629.60;221.00;1.08;124.31;53.28;33.82 
0.904;0.89;0.60;-0.22;-0.42;0.90;-0.49;336.44;-627.69;222.00;1.10;124.34;53.24;33.84 
0.933;0.85;0.59;-0.21;-0.42;0.49;1.32;338.43;-625.77;223.00;1.06;124.39;53.20;33.89 
0.962;0.88;0.62;-0.22;0.77;-1.18;1.18;336.44;-629.60;218.00;1.10;124.38;53.21;33.86 
0.991;0.91;0.59;-0.22;0.07;1.25;1.18;333.44;-627.69;217.00;1.11;124.40;53.16;33.86 
1.020;0.89;0.58;-0.20;-0.14;2.50;-0.56;335.44;-628.64;221.00;1.08;124.40;53.19;33.84 
1.049;0.87;0.58;-0.21;0.14;0.77;-1.32;335.44;-630.56;215.00;1.07;124.43;53.17;33.85 
1.079;0.87;0.58;-0.18;-0.56;1.53;0.35;335.44;-627.69;218.00;1.06;124.46;53.14;33.88 
1.109;0.90;0.55;-0.18;-0.56;1.46;0.00;336.44;-629.60;219.00;1.07;124.49;53.14;33.89 
1.139;0.86;0.56;-0.26;-0.21;0.35;-0.28;336.44;-629.60;220.00;1.06;124.51;53.13;33.90 
1.169;0.87;0.58;-0.19;-0.07;0.83;-1.18;335.44;-628.64;219.00;1.06;124.54;53.11;33.92 
1.199;0.87;0.58;-0.17;0.56;0.00;-0.90;331.45;-629.60;218.00;1.06;124.60;53.06;33.97 
1.230;0.87;0.58;-0.20;-0.14;0.83;-0.35;335.44;-628.64;220.00;1.06;124.64;53.02;33.99 
1.260;0.90;0.59;-0.19;-0.28;-1.04;-0.83;335.44;-628.64;217.00;1.09;124.68;52.98;34.03 
1.290;0.87;0.56;-0.23;-0.35;-1.25;0.21;333.44;-625.77;219.00;1.06;124.71;52.93;34.04 
1.320;0.91;0.59;-0.16;-0.42;3.06;-1.11;335.44;-626.73;218.00;1.10;124.75;52.90;34.07 
1.350;0.87;0.60;-0.17;0.70;-2.57;-0.70;334.44;-628.64;221.00;1.07;124.80;52.86;34.10 
1.380;0.86;0.61;-0.22;0.07;-3.83;-0.21;336.44;-631.52;220.00;1.08;124.84;52.77;34.13 
1.410;0.90;0.58;-0.22;-0.21;1.95;-0.14;338.43;-628.64;220.00;1.09;124.86;52.73;34.14 
1.441;0.88;0.61;-0.21;-0.70;1.18;0.07;333.44;-630.56;220.00;1.09;124.89;52.73;34.16 
1.471;0.90;0.58;-0.24;-0.70;0.42;0.14;338.43;-626.73;222.00;1.10;124.92;52.71;34.18 
1.501;0.87;0.58;-0.22;-0.56;2.09;-0.42;337.44;-626.73;219.00;1.07;124.93;52.70;34.17 
1.532;0.86;0.59;-0.18;-0.49;1.81;-0.97;334.44;-626.73;218.00;1.06;124.98;52.68;34.21 
1.561;0.87;0.62;-0.19;-0.63;-0.77;0.35;338.43;-628.64;219.00;1.09;125.02;52.65;34.23 
1.591;0.90;0.56;-0.25;0.07;0.70;0.70;337.44;-625.77;217.00;1.09;125.02;52.65;34.23 
1.620;0.86;0.61;-0.19;0.00;1.95;-0.63;333.44;-627.69;217.00;1.07;125.05;52.64;34.25 
1.649;0.86;0.60;-0.18;0.21;-0.77;-0.42;332.44;-626.73;219.00;1.06;125.09;52.62;34.27 
1.678;0.88;0.60;-0.19;-0.07;-1.81;-0.07;336.44;-625.77;221.00;1.08;125.11;52.59;34.28 
1.707;0.86;0.60;-0.21;-0.07;1.11;0.49;334.44;-627.69;222.00;1.07;125.13;52.56;34.28 
1.736;0.88;0.57;-0.19;-0.35;1.25;0.07;338.43;-625.77;220.00;1.07;125.12;52.59;34.26 
1.765;0.87;0.58;-0.18;-0.42;0.56;-0.77;336.44;-626.73;220.00;1.06;125.14;52.59;34.27 
1.794;0.87;0.58;-0.22;0.21;0.14;0.00;336.44;-627.69;223.00;1.07;125.18;52.56;34.30 
1.825;0.88;0.59;-0.20;-0.35;0.28;-0.35;336.44;-626.73;222.00;1.08;125.21;52.52;34.32 
1.855;0.89;0.58;-0.20;-0.35;0.35;0.42;336.44;-628.64;221.00;1.08;125.23;52.51;34.33 
1.885;0.90;0.59;-0.19;-0.28;0.00;0.56;337.44;-627.69;221.00;1.09;125.25;52.48;34.34 
1.916;0.90;0.54;-0.18;0.00;1.18;-0.42;333.44;-624.81;221.00;1.06;125.24;52.50;34.31 
1.946;0.90;0.60;-0.16;0.07;2.02;-0.35;337.44;-629.60;223.00;1.09;125.25;52.51;34.31 
1.976;0.88;0.58;-0.17;0.00;-1.74;-0.28;335.44;-626.73;221.00;1.07;125.28;52.49;34.32 
2.006;0.89;0.59;-0.23;0.00;-0.83;-0.56;335.44;-626.73;221.00;1.09;125.30;52.45;34.33 
2.037;0.88;0.59;-0.18;-0.63;3.97;-0.77;335.44;-625.77;220.00;1.07;125.32;52.43;34.33 
2.067;0.86;0.58;-0.15;-0.21;1.88;-0.28;335.44;-625.77;220.00;1.05;125.35;52.46;34.35 
2.097;0.90;0.56;-0.22;0.21;-2.64;0.21;336.44;-630.56;221.00;1.08;125.35;52.46;34.34 
2.128;0.87;0.58;-0.23;-0.07;1.04;-0.77;336.44;-626.73;223.00;1.07;125.37;52.43;34.34 
2.158;0.87;0.60;-0.17;-0.49;2.09;-0.42;335.44;-627.69;220.00;1.07;125.38;52.45;34.33 
2.188;0.86;0.60;-0.18;-0.35;0.63;-0.49;336.44;-627.69;221.00;1.06;125.41;52.44;34.35 
2.218;0.86;0.59;-0.18;0.21;-2.57;1.88;337.44;-627.69;220.00;1.06;125.45;52.39;34.39 
2.247;0.85;0.60;-0.22;0.07;-1.81;2.09;339.43;-625.77;224.00;1.06;125.43;52.38;34.36 
2.276;0.88;0.58;-0.21;0.56;-0.97;2.43;335.44;-628.64;221.00;1.07;125.37;52.42;34.28 
2.306;0.87;0.70;-0.22;0.07;0.42;1.88;333.44;-626.73;224.00;1.14;125.32;52.44;34.21 
2.336;0.87;0.62;-0.23;-0.35;3.90;2.50;334.44;-628.64;221.00;1.09;125.24;52.54;34.12 
2.365;0.88;0.60;-0.18;-0.35;1.18;0.83;334.44;-628.64;220.00;1.08;125.19;52.63;34.07 
2.394;0.87;0.60;-0.22;-0.14;-0.90;1.04;333.44;-626.73;219.00;1.08;125.16;52.66;34.03 
2.424;0.88;0.58;-0.21;-0.49;2.64;0.77;335.44;-628.64;218.00;1.07;125.14;52.68;34.00 
2.453;0.88;0.58;-0.14;-0.63;2.57;1.46;336.44;-629.60;222.00;1.06;125.13;52.74;33.98 
2.482;0.87;0.58;-0.20;0.14;-0.90;1.32;339.43;-629.60;219.00;1.06;125.09;52.79;33.94 
2.513;0.87;0.59;-0.21;0.35;0.42;0.83;334.44;-628.64;222.00;1.07;125.08;52.80;33.91 
2.543;0.90;0.56;-0.18;0.21;1.74;0.14;336.44;-630.56;222.00;1.08;125.05;52.85;33.86 
2.573;0.88;0.58;-0.18;-0.07;0.49;0.21;330.45;-628.64;219.00;1.07;125.04;52.87;33.84 
2.603;0.86;0.59;-0.20;-0.21;-0.14;-0.42;331.45;-629.60;224.00;1.06;125.04;52.87;33.83 
2.633;0.89;0.58;-0.19;-0.07;0.56;-0.35;336.44;-628.64;221.00;1.08;125.08;52.84;33.85 
2.663;0.87;0.58;-0.23;-0.42;-0.70;-0.70;331.45;-628.64;222.00;1.07;125.11;52.81;33.88 
2.693;0.87;0.58;-0.22;-0.14;-0.90;-0.07;332.44;-627.69;224.00;1.07;125.15;52.76;33.90 
2.724;0.88;0.58;-0.18;-0.14;0.14;-0.14;332.44;-628.64;223.00;1.07;125.17;52.74;33.91 
2.754;0.89;0.56;-0.18;-0.28;0.42;-0.77;334.44;-626.73;225.00;1.07;125.18;52.73;33.90 
2.784;0.88;0.58;-0.22;-0.21;-0.77;0.07;333.44;-627.69;223.00;1.08;125.20;52.72;33.91 
2.814;0.87;0.58;-0.21;-0.14;-0.77;-0.14;334.44;-626.73;223.00;1.07;125.20;52.71;33.90 
2.844;0.89;0.58;-0.21;-0.28;0.14;-0.28;334.44;-625.77;223.00;1.08;125.21;52.69;33.89 
2.874;0.87;0.58;-0.18;-0.35;1.32;0.14;334.44;-626.73;224.00;1.06;125.23;52.68;33.89 
2.904;0.89;0.58;-0.19;-0.07;-0.07;0.07;335.44;-625.77;222.00;1.08;125.24;52.69;33.89 
2.935;0.87;0.59;-0.19;0.21;-0.83;0.00;332.44;-626.73;225.00;1.07;125.26;52.67;33.90 
2.965;0.86;0.58;-0.20;-0.49;1.46;0.21;331.45;-627.69;221.00;1.06;125.26;52.66;33.88 
2.995;0.87;0.58;-0.17;-0.28;1.46;0.77;334.44;-625.77;225.00;1.06;125.26;52.68;33.87 
3.025;0.87;0.60;-0.18;0.21;-1.88;0.21;334.44;-628.64;221.00;1.07;125.26;52.68;33.86 
3.054;0.90;0.57;-0.23;0.56;-2.02;0.35;335.44;-627.69;225.00;1.09;125.24;52.68;33.83 
3.084;0.89;0.58;-0.22;0.77;0.49;0.21;337.44;-627.69;220.00;1.08;125.23;52.67;33.80 
3.113;0.89;0.58;-0.17;-0.14;1.67;0.14;333.44;-627.69;223.00;1.08;125.25;52.66;33.79 
3.142;0.88;0.57;-0.19;0.28;-1.25;0.28;333.44;-627.69;224.00;1.07;125.26;52.67;33.79 
3.171;0.90;0.58;-0.21;0.07;-0.21;-0.28;334.44;-624.81;224.00;1.09;125.27;52.65;33.78 
3.201;0.86;0.60;-0.18;-0.42;1.25;-0.49;333.44;-625.77;224.00;1.06;125.31;52.61;33.81 
3.232;0.90;0.58;-0.19;-0.77;0.56;0.07;334.44;-629.60;223.00;1.09;125.35;52.59;33.83 
3.262;0.86;0.59;-0.20;-0.28;0.83;0.42;332.44;-626.73;223.00;1.06;125.35;52.60;33.82 
3.292;0.89;0.60;-0.21;-0.14;0.00;0.00;335.44;-628.64;222.00;1.09;125.36;52.59;33.82 
3.323;0.88;0.58;-0.18;-0.07;0.07;0.63;331.45;-627.69;225.00;1.07;125.36;52.60;33.81 
3.353;0.87;0.59;-0.18;0.21;0.49;0.07;330.45;-624.81;222.00;1.07;125.36;52.61;33.79 
3.383;0.89;0.58;-0.18;0.00;0.14;0.28;338.43;-626.73;223.00;1.08;125.37;52.60;33.79 
3.413;0.88;0.58;-0.22;0.00;1.32;0.00;334.44;-625.77;225.00;1.08;125.37;52.61;33.78 
3.443;0.88;0.59;-0.19;-0.56;1.39;0.07;332.44;-627.69;228.00;1.08;125.37;52.61;33.77 
3.473;0.87;0.57;-0.22;-0.35;-0.14;0.00;333.44;-627.69;224.00;1.06;125.39;52.61;33.78 
3.503;0.86;0.59;-0.18;-0.35;0.00;0.42;330.45;-625.77;229.00;1.06;125.40;52.61;33.77 
3.534;0.90;0.55;-0.18;-0.07;0.42;-0.21;333.44;-627.69;227.00;1.07;125.39;52.62;33.76 
3.564;0.89;0.58;-0.22;-0.14;-0.35;0.28;333.44;-625.77;226.00;1.08;125.40;52.63;33.75 
3.594;0.89;0.58;-0.16;0.49;-1.53;0.56;330.45;-627.69;228.00;1.07;125.39;52.63;33.73 
3.624;0.90;0.59;-0.20;-0.21;0.21;0.70;333.44;-627.69;229.00;1.09;125.38;52.64;33.71 
3.653;0.90;0.57;-0.20;-0.07;-0.90;0.35;334.44;-626.73;225.00;1.08;125.38;52.64;33.69 
3.682;0.86;0.60;-0.18;-0.28;-0.70;-0.14;334.44;-627.69;226.00;1.06;125.40;52.61;33.69 
3.711;0.86;0.59;-0.20;0.00;-1.11;0.49;334.44;-626.73;227.00;1.06;125.41;52.59;33.68 
3.740;0.89;0.59;-0.24;0.21;-0.21;0.56;332.44;-627.69;228.00;1.09;125.40;52.59;33.66 
3.770;0.90;0.55;-0.18;0.00;0.21;0.35;333.44;-626.73;229.00;1.07;125.38;52.61;33.62 
3.800;0.88;0.58;-0.20;0.07;0.14;-0.35;329.45;-626.73;227.00;1.07;125.40;52.60;33.62 
3.831;0.87;0.58;-0.22;-0.07;-0.63;0.28;329.45;-626.73;228.00;1.07;125.39;52.60;33.60 
3.861;0.88;0.56;-0.18;-0.63;1.88;-0.49;331.45;-625.77;229.00;1.06;125.39;52.62;33.58 
3.891;0.88;0.60;-0.18;-0.14;-0.21;-0.35;332.44;-628.64;231.00;1.08;125.40;52.62;33.58 
3.922;0.88;0.56;-0.19;1.04;-3.48;-0.97;333.44;-627.69;228.00;1.06;125.44;52.57;33.60 
3.952;0.90;0.58;-0.24;0.77;-1.53;-0.77;327.45;-625.77;224.00;1.10;125.48;52.50;33.61 
3.982;0.89;0.59;-0.24;0.21;0.70;-0.42;331.45;-626.73;230.00;1.09;125.50;52.48;33.61 
4.012;0.90;0.58;-0.21;0.00;0.00;-0.42;331.45;-626.73;227.00;1.09;125.52;52.47;33.62 
4.043;0.87;0.58;-0.20;-0.21;-1.60;-0.07;329.45;-626.73;230.00;1.06;125.53;52.45;33.62 
4.073;0.89;0.57;-0.26;-0.35;0.21;-0.21;333.44;-623.85;226.00;1.09;125.53;52.43;33.60 
4.103;0.89;0.62;-0.22;-0.90;3.13;-0.28;332.44;-628.64;229.00;1.11;125.55;52.44;33.60 
4.134;0.88;0.58;-0.22;-0.56;3.48;0.49;331.45;-625.77;227.00;1.08;125.53;52.50;33.58 
4.164;0.88;0.57;-0.21;-0.63;2.50;0.42;334.44;-626.73;230.00;1.07;125.53;52.55;33.57 
4.194;0.87;0.58;-0.18;-0.49;2.16;0.70;330.45;-624.81;226.00;1.06;125.49;52.61;33.52 
4.224;0.87;0.59;-0.15;-0.42;1.60;1.04;333.44;-627.69;228.00;1.06;125.48;52.65;33.52 
4.254;0.87;0.58;-0.20;0.56;-0.56;1.81;332.44;-625.77;228.00;1.06;125.45;52.68;33.47 
4.284;0.88;0.61;-0.23;0.28;0.83;1.81;331.45;-626.73;226.00;1.10;125.40;52.73;33.41 
4.314;0.89;0.58;-0.21;0.07;1.53;1.39;328.45;-629.60;228.00;1.08;125.37;52.78;33.37 
4.345;0.88;0.56;-0.15;0.56;0.90;1.04;328.45;-626.73;230.00;1.05;125.35;52.82;33.34 
4.375;0.89;0.59;-0.24;0.49;0.70;1.60;329.45;-626.73;227.00;1.09;125.31;52.87;33.28 
4.405;0.89;0.58;-0.21;0.00;1.46;1.04;329.45;-628.64;222.00;1.08;125.28;52.91;33.24 
4.435;0.90;0.55;-0.22;0.28;1.95;0.63;328.45;-629.60;226.00;1.08;125.26;52.96;33.20 
4.465;0.89;0.57;-0.20;0.14;1.32;-0.35;329.45;-629.60;230.00;1.08;125.24;53.00;33.17 
4.495;0.89;0.58;-0.18;-0.07;2.37;0.21;330.45;-625.77;225.00;1.08;125.25;53.01;33.17 
4.525;0.88;0.58;-0.22;-0.28;2.50;0.35;327.45;-629.60;227.00;1.08;125.24;53.07;33.14 
4.556;0.86;0.57;-0.20;0.00;1.53;0.35;327.45;-629.60;227.00;1.05;125.22;53.11;33.12 
4.586;0.88;0.61;-0.18;0.07;0.07;-0.21;328.45;-626.73;224.00;1.09;125.24;53.10;33.12 
4.616;0.89;0.57;-0.19;-0.07;0.35;0.42;327.45;-627.69;228.00;1.07;125.23;53.12;33.10 
4.647;0.88;0.56;-0.20;0.21;0.63;-0.28;327.45;-630.56;230.00;1.06;125.23;53.12;33.08 
4.677;0.92;0.56;-0.22;-0.07;1.18;-0.21;324.46;-627.69;228.00;1.10;125.24;53.13;33.07 
4.707;0.89;0.54;-0.23;-0.35;1.25;-0.49;329.45;-626.73;225.00;1.07;125.25;53.14;33.07 
4.737;0.90;0.58;-0.20;-0.56;1.53;-0.42;330.45;-631.52;226.00;1.09;125.27;53.14;33.08 
4.768;0.90;0.57;-0.18;-0.21;0.00;-0.21;325.46;-630.56;226.00;1.08;125.30;53.13;33.10 
4.797;0.88;0.58;-0.22;0.42;-2.50;0.63;328.45;-629.60;229.00;1.08;125.31;53.11;33.10 
4.826;0.88;0.58;-0.24;0.00;-0.49;0.21;328.45;-628.64;229.00;1.08;125.32;53.09;33.09 
4.856;0.87;0.57;-0.20;-0.14;0.97;0.00;329.45;-625.77;225.00;1.06;125.33;53.08;33.08 
4.886;0.90;0.58;-0.21;0.00;-0.28;0.07;329.45;-627.69;226.00;1.09;125.35;53.07;33.08 
4.916;0.89;0.58;-0.21;0.14;-0.83;0.00;328.45;-629.60;229.00;1.08;125.34;53.06;33.06 
4.946;0.87;0.59;-0.22;0.07;0.35;-0.35;329.45;-628.64;229.00;1.07;125.35;53.06;33.06 
4.976;0.87;0.57;-0.18;-0.35;-0.14;0.21;325.46;-626.73;227.00;1.06;125.36;53.06;33.04 
5.006;0.88;0.58;-0.20;-0.35;0.83;0.35;329.45;-625.77;224.00;1.07;125.36;53.05;33.03 
5.036;0.88;0.58;-0.19;0.00;0.63;-0.14;329.45;-627.69;228.00;1.07;125.38;53.06;33.04 
5.067;0.88;0.58;-0.18;0.07;-1.32;-0.14;328.45;-626.73;230.00;1.07;125.39;53.04;33.04 
5.097;0.88;0.58;-0.22;0.00;-0.90;0.28;326.45;-625.77;228.00;1.08;125.40;53.03;33.03 
5.127;0.88;0.56;-0.22;0.21;-0.28;0.35;329.45;-628.64;228.00;1.07;125.40;53.02;33.02 
5.158;0.89;0.58;-0.21;-0.21;-0.21;0.07;327.45;-624.81;228.00;1.08;125.40;53.04;33.00 
5.188;0.90;0.59;-0.23;-0.21;-0.28;0.21;327.45;-624.81;229.00;1.10;125.39;53.06;32.98 
5.218;0.87;0.58;-0.19;-0.21;-0.14;0.00;330.45;-630.56;231.00;1.06;125.40;53.05;32.98 
5.248;0.90;0.56;-0.22;-0.28;0.56;-0.14;326.45;-626.73;228.00;1.08;125.41;53.05;32.98 
5.278;0.86;0.58;-0.20;-0.56;0.83;-0.21;327.45;-627.69;229.00;1.06;125.41;53.06;32.96 
5.308;0.90;0.57;-0.22;-0.35;0.77;-0.21;326.45;-630.56;227.00;1.09;125.42;53.06;32.97 
5.338;0.90;0.58;-0.19;-0.21;0.07;0.00;327.45;-627.69;228.00;1.09;125.43;53.07;32.97 
5.369;0.86;0.59;-0.19;-0.28;0.42;-0.14;328.45;-629.60;228.00;1.06;125.43;53.08;32.97 
5.399;0.88;0.58;-0.19;-0.07;0.21;-1.11;326.45;-627.69;228.00;1.07;125.46;53.06;32.97 
5.429;0.89;0.58;-0.23;0.42;0.49;-1.95;327.45;-627.69;228.00;1.09;125.51;53.01;32.99 
5.459;0.90;0.60;-0.26;1.32;4.45;-3.55;326.45;-626.73;230.00;1.11;125.58;52.98;33.04 
5.489;0.86;0.59;-0.23;0.83;5.01;-4.94;329.45;-627.69;226.00;1.07;125.72;52.90;33.14 
5.519;0.90;0.58;-0.22;0.63;9.04;-3.27;326.45;-624.81;227.00;1.09;125.85;52.86;33.26 
5.549;0.89;0.58;-0.18;-0.56;6.89;-4.80;331.45;-625.77;227.00;1.08;125.96;52.85;33.37 
5.580;0.87;0.56;-0.18;0.83;7.10;-3.83;329.45;-627.69;227.00;1.05;126.09;52.81;33.49 
5.610;0.90;0.56;-0.18;1.25;4.45;-3.62;330.45;-627.69;225.00;1.08;126.18;52.80;33.57 
5.640;0.91;0.58;-0.18;1.60;2.09;-4.94;329.45;-627.69;225.00;1.09;126.31;52.72;33.67 
5.671;0.93;0.54;-0.24;1.53;4.03;-6.47;331.45;-627.69;222.00;1.10;126.44;52.63;33.76 
5.701;0.90;0.58;-0.19;3.69;6.54;-10.85;332.44;-630.56;225.00;1.09;126.66;52.49;33.95 
5.731;0.82;0.59;-0.18;4.38;3.69;-10.09;335.44;-628.64;222.00;1.03;126.99;52.25;34.21 
5.761;0.78;0.66;-0.17;2.50;1.39;-3.48;333.44;-628.64;222.00;1.04;127.26;52.04;34.42 
5.792;0.79;0.73;-0.22;1.74;-3.55;2.50;331.45;-626.73;224.00;1.10;127.41;51.89;34.53 
5.822;0.81;0.69;-0.24;-0.21;-2.99;9.25;334.44;-626.73;225.00;1.09;127.35;51.90;34.42 
5.852;0.88;0.58;-0.22;0.21;1.53;3.90;331.45;-625.77;224.00;1.08;127.15;52.07;34.20 
5.883;0.88;0.60;-0.22;-1.74;2.23;-2.37;328.45;-626.73;224.00;1.09;127.12;52.11;34.17 
5.913;0.88;0.57;-0.18;-3.41;4.03;3.41;329.45;-628.64;227.00;1.06;127.11;52.15;34.18 
5.943;0.88;0.58;-0.07;-3.48;0.56;3.41;330.45;-630.56;225.00;1.06;127.02;52.28;34.14 
5.973;0.86;0.57;-0.08;-2.92;-7.86;8.77;333.44;-629.60;223.00;1.03;126.84;52.42;34.00 
6.003;0.88;0.54;-0.07;-1.18;-18.85;5.36;330.45;-622.89;226.00;1.03;126.58;52.55;33.74 
6.033;0.90;0.54;-0.14;3.20;-21.77;4.31;329.45;-624.81;226.00;1.06;126.44;52.47;33.57 
6.063;0.93;0.54;-0.16;4.17;-21.50;4.45;330.45;-622.89;231.00;1.09;126.33;52.35;33.37 
6.094;0.90;0.56;-0.25;2.23;-20.94;5.63;326.45;-619.06;234.00;1.09;126.19;52.23;33.13 
6.124;0.90;0.48;-0.25;1.39;-9.04;3.27;326.45;-618.10;238.00;1.05;126.05;52.18;32.93 
6.154;0.93;0.46;-0.18;-1.67;-7.86;-4.10;327.45;-618.10;237.00;1.05;126.00;52.15;32.86 
6.184;0.88;0.54;-0.15;-8.97;-15.17;-8.90;328.45;-614.27;240.00;1.04;126.11;51.93;32.98 
6.214;0.88;0.54;-0.19;-12.66;-24.28;-6.68;329.45;-609.48;242.00;1.05;126.37;51.48;33.32 
6.244;0.90;0.48;-0.30;-10.43;-33.11;-10.85;333.44;-606.60;246.00;1.06;126.55;50.95;33.57 
6.274;0.90;0.55;-0.38;-13.91;-31.10;-32.56;334.44;-596.06;244.00;1.12;127.10;50.01;34.15 
6.305;0.79;0.73;-0.42;-16.49;-13.50;-33.39;347.42;-590.31;247.00;1.15;128.23;48.66;35.35 
6.335;0.81;0.70;-0.32;-12.59;-0.42;-23.86;352.41;-586.48;244.00;1.12;129.13;47.77;36.35 
6.365;0.76;0.78;-0.34;-11.69;-4.10;-26.57;354.41;-585.52;244.00;1.14;129.95;47.03;37.24 
6.396;0.78;0.86;-0.43;-13.70;0.90;-14.19;359.40;-578.81;242.00;1.24;130.75;46.24;38.11 
6.426;0.83;0.73;-0.46;-17.39;20.66;-3.83;364.39;-579.77;237.00;1.20;131.06;46.06;38.55 
6.456;0.90;0.62;-0.34;-20.87;38.89;-6.68;368.38;-580.73;236.00;1.14;131.15;46.35;38.81 
6.486;0.76;0.62;-0.11;-28.45;40.70;-12.17;371.38;-584.56;228.00;0.99;131.35;46.66;39.25 
6.517;0.83;0.62;-0.03;-30.68;21.43;-20.10;376.37;-587.44;217.00;1.04;131.76;46.68;39.95 
6.547;0.86;0.70;-0.10;-34.16;4.10;-23.30;384.36;-584.56;210.00;1.11;132.35;46.28;40.82 
6.577;0.85;0.73;-0.23;-41.81;2.57;-31.03;392.34;-580.73;205.00;1.14;133.16;45.54;41.92 
6.608;0.82;0.76;-0.29;-38.12;18.99;-26.16;401.33;-576.90;201.00;1.16;134.10;44.71;43.13 
6.638;0.70;0.80;-0.26;-38.61;40.63;-18.57;407.32;-574.02;186.00;1.09;134.88;44.18;44.12 
6.668;0.71;0.75;0.00;-40.77;47.10;-16.83;414.31;-576.90;179.00;1.03;135.49;43.90;44.93 
6.698;0.73;0.73;0.03;-40.07;25.60;-14.12;421.30;-574.98;172.00;1.03;136.00;43.65;45.61 
6.728;0.81;0.78;-0.10;-40.49;12.45;-28.38;425.29;-573.06;162.00;1.13;136.71;43.04;46.47 
6.757;0.73;0.77;-0.14;-39.51;37.70;-7.44;435.27;-571.15;150.00;1.07;137.32;42.53;47.17 
6.787;0.77;0.75;-0.04;-38.75;40.42;-8.00;438.27;-574.98;138.00;1.08;137.55;42.44;47.44 
6.818;0.76;0.71;0.00;-37.36;42.85;-12.24;441.26;-574.02;128.00;1.04;137.92;42.16;47.81 
6.848;0.71;0.76;0.09;-33.67;51.34;-0.35;444.26;-576.90;122.00;1.04;138.23;41.91;48.08 
6.878;0.91;0.79;0.12;-30.96;46.26;12.45;447.25;-580.73;104.00;1.21;138.03;42.09;47.83 
6.908;0.74;0.62;0.05;-38.75;43.69;-12.10;450.25;-578.81;99.00;0.97;137.97;42.10;47.67 
6.938;0.66;0.69;0.16;-32.35;50.02;2.02;449.25;-582.65;83.00;0.97;138.20;41.73;47.78 
6.968;0.84;0.70;0.15;-32.56;41.25;-5.36;452.24;-583.60;74.00;1.10;138.17;41.60;47.61 
6.998;0.59;0.69;0.21;-31.79;51.34;-2.92;457.24;-585.52;58.00;0.93;138.37;41.18;47.65 
7.029;0.66;0.70;0.29;-31.17;43.76;-1.46;455.24;-585.52;50.00;1.00;138.49;40.73;47.59 
7.059;0.74;0.71;0.26;-33.25;44.94;-3.83;456.24;-584.56;41.00;1.06;138.71;40.22;47.57 
7.089;0.60;0.65;0.34;-35.55;49.74;1.39;459.23;-582.65;30.00;0.95;138.79;39.74;47.41 
7.120;0.65;0.68;0.40;-35.62;31.58;-7.51;459.23;-582.65;15.00;1.02;138.98;39.14;47.26 
7.149;0.68;0.70;0.37;-41.32;25.67;-3.48;458.23;-579.77;8.00;1.04;139.13;38.73;47.04 
7.178;0.65;0.64;0.41;-44.87;27.55;-5.63;459.23;-574.98;-2.00;1.00;139.18;38.35;46.62 
7.208;0.58;0.66;0.42;-49.74;21.36;-16.14;459.23;-572.10;-11.00;0.97;139.61;37.69;46.46 
7.238;0.56;0.80;0.34;-49.67;23.65;-6.12;460.23;-570.19;-18.00;1.03;140.13;36.98;46.28 
7.268;0.53;0.82;0.31;-46.19;36.52;6.54;462.23;-573.06;-36.00;1.02;140.35;36.48;45.88 
7.298;0.58;0.70;0.40;-37.91;48.00;11.41;462.23;-574.98;-53.00;0.99;140.31;35.99;45.31 
7.329;0.52;0.66;0.50;-32.49;46.96;13.08;459.23;-578.81;-63.00;0.98;140.12;35.51;44.64 
7.359;0.50;0.68;0.51;-28.45;49.60;21.91;459.23;-579.77;-76.00;0.99;139.77;35.08;43.95 
7.389;0.57;0.62;0.60;-27.34;44.10;24.70;451.25;-585.52;-90.00;1.03;139.22;34.80;43.16 
7.420;0.59;0.51;0.51;-23.03;42.23;17.74;449.25;-586.48;-99.00;0.93;138.69;34.62;42.36 
7.450;0.46;0.42;0.64;-24.35;56.97;14.12;448.25;-587.44;-106.00;0.89;138.28;34.11;41.74 
7.480;0.46;0.32;0.74;-27.06;44.45;7.65;446.25;-594.15;-122.00;0.93;137.90;33.41;41.02 
7.509;0.51;0.40;0.65;-29.57;18.78;-1.95;440.26;-586.48;-130.00;0.92;137.84;32.90;40.46 
7.538;0.50;0.44;0.59;-30.19;25.46;8.00;442.26;-589.35;-136.00;0.89;137.84;32.56;39.97 
7.568;0.51;0.30;0.59;-31.58;36.24;6.47;437.27;-591.27;-146.00;0.84;137.64;32.22;39.31 
7.598;0.51;0.42;0.82;-25.88;30.68;-6.47;437.27;-591.27;-152.00;1.05;137.67;31.53;38.77 
7.629;0.47;0.47;0.66;-20.94;12.94;-2.30;434.27;-583.60;-162.00;0.94;138.05;30.96;38.58 
7.659;0.50;0.46;0.58;-13.22;29.08;-3.13;430.28;-587.44;-168.00;0.89;138.29;30.52;38.50 
7.689;0.44;0.38;0.72;-10.50;37.43;-1.74;432.28;-584.56;-173.00;0.93;138.42;29.82;38.46 
7.719;0.40;0.34;0.78;-6.40;31.86;-13.08;434.27;-583.60;-181.00;0.94;138.71;28.93;38.53 
7.749;0.44;0.42;0.80;-4.87;25.95;-14.68;436.27;-577.85;-189.00;1.00;139.32;27.99;38.79 
7.779;0.44;0.37;0.72;-9.53;15.72;-19.97;438.27;-577.85;-192.00;0.92;140.00;27.17;39.10 
7.809;0.45;0.45;0.63;-10.85;17.95;-11.55;439.27;-569.23;-196.00;0.90;140.59;26.55;39.35 
7.840;0.46;0.34;0.59;-11.97;39.51;-12.10;439.27;-569.23;-200.00;0.82;140.99;25.87;39.47 
7.870;0.33;0.32;0.77;-11.48;54.82;-32.42;443.26;-559.65;-211.00;0.90;141.69;24.36;39.67 
7.900;0.26;0.36;0.86;-12.59;40.63;-44.10;448.25;-549.11;-219.00;0.97;142.91;22.43;40.11 
7.931;0.26;0.42;0.71;-11.90;27.55;-49.60;453.24;-538.56;-226.00;0.86;144.46;20.60;40.64 
7.961;0.31;0.49;0.67;-13.15;33.74;-43.97;452.24;-535.69;-227.00;0.89;146.01;18.93;41.21 
7.991;0.34;0.38;0.65;-21.08;42.30;-48.07;461.23;-519.40;-244.00;0.83;147.40;17.25;41.59 
8.020;0.28;0.47;0.72;-28.38;51.13;-46.19;466.22;-507.90;-254.00;0.90;148.76;15.45;41.68 
8.050;0.21;0.50;0.90;-23.03;55.65;-38.61;468.22;-494.48;-266.00;1.05;149.98;13.43;41.59 
8.080;0.09;0.46;0.98;-19.27;36.73;-42.71;468.22;-485.86;-269.00;1.09;151.18;11.49;41.53 
8.110;0.09;0.35;0.86;-22.82;17.11;-59.55;471.21;-471.48;-275.00;0.93;152.72;9.83;41.44 
8.141;0.06;0.42;0.82;-25.95;14.47;-72.14;475.21;-460.94;-285.00;0.92;154.91;8.03;41.32 
8.171;0.06;0.38;0.83;-33.74;10.50;-67.48;471.21;-445.61;-291.00;0.91;157.12;6.23;40.99 
8.201;0.05;0.32;0.80;-37.91;5.84;-77.15;480.20;-435.07;-296.00;0.86;159.25;4.66;40.31 
8.231;0.01;0.29;0.89;-30.68;3.41;-82.09;476.20;-415.90;-304.00;0.94;161.65;3.00;39.58 
8.261;-0.05;0.32;0.92;-30.19;-2.71;-83.62;472.21;-405.36;-312.00;0.98;164.30;1.35;39.10 
8.291;-0.07;0.33;0.90;-32.77;-15.44;-88.21;472.21;-396.74;-316.00;0.96;166.91;-0.09;38.27 
8.321;-0.09;0.26;0.86;-31.58;-22.75;-85.77;470.21;-385.24;-320.00;0.90;169.65;-1.33;37.32 
8.350;-0.08;0.25;0.85;-29.36;-27.97;-87.51;469.22;-373.74;-329.00;0.89;172.35;-2.36;36.33 
8.380;-0.05;0.32;0.89;-30.68;-23.93;-89.81;465.22;-363.20;-331.00;0.95;175.07;-3.28;35.37 
8.410;-0.08;0.28;0.90;-31.10;-22.68;-76.80;461.23;-352.65;-340.00;0.95;177.69;-4.21;34.33 
8.441;-0.07;0.25;0.91;-31.93;-30.75;-71.93;457.24;-343.07;-339.00;0.95;-179.86;-4.89;33.18 
8.471;0.04;0.19;0.84;-31.86;-34.99;-71.65;455.24;-339.24;-346.00;0.86;-177.56;-5.21;31.96 
8.501;0.01;0.18;0.85;-28.59;-24.28;-64.97;445.26;-331.57;-349.00;0.87;-175.41;-5.49;30.87 
8.531;-0.04;0.14;0.88;-24.42;-17.18;-56.97;443.26;-327.74;-353.00;0.89;-173.44;-5.89;29.81 
8.561;0.00;0.18;0.98;-21.77;-22.40;-50.16;437.27;-321.99;-360.00;1.00;-171.62;-6.21;28.78 
8.591;0.00;0.23;0.89;-21.50;-26.57;-37.08;434.27;-320.07;-360.00;0.92;-170.14;-6.18;28.12 
8.621;0.00;0.17;0.86;-20.24;-18.02;-34.50;426.29;-319.11;-365.00;0.88;-168.93;-6.13;27.55 
8.652;0.05;0.08;0.85;-17.39;-10.30;-31.17;424.29;-314.32;-370.00;0.86;-167.79;-6.15;26.81 
8.682;0.03;0.02;0.94;-15.79;-12.66;-43.69;418.30;-314.32;-368.00;0.94;-166.52;-6.35;26.31 
8.712;0.04;0.06;0.97;-12.73;-26.78;-52.31;418.30;-310.49;-373.00;0.97;-164.92;-6.41;25.59 
8.743;0.08;0.11;0.91;-6.26;-39.65;-52.03;414.31;-306.66;-374.00;0.92;-163.14;-6.08;24.97 
8.772;0.21;0.18;0.87;-2.85;-42.71;-45.98;412.31;-309.53;-376.00;0.91;-161.53;-5.42;24.60 
8.802;0.27;0.14;0.79;1.18;-37.22;-35.34;411.31;-309.53;-375.00;0.85;-160.27;-4.58;24.43 
8.832;0.26;0.12;0.78;4.31;-25.39;-31.17;412.31;-311.45;-376.00;0.83;-159.26;-3.80;24.34 
8.862;0.30;0.19;0.72;8.35;-12.10;-24.28;406.32;-312.41;-375.00;0.80;-158.30;-3.31;24.45 
8.892;0.26;0.20;0.86;9.60;-6.82;-12.10;414.31;-310.49;-373.00;0.92;-157.74;-3.02;24.66 
8.922;0.21;0.19;0.90;11.69;-11.90;-7.79;413.31;-311.45;-376.00;0.94;-157.47;-2.65;24.89 
8.953;0.22;0.17;0.82;7.44;-10.23;-9.95;414.31;-310.49;-370.00;0.87;-157.15;-2.20;25.05 
8.983;0.24;0.25;0.89;10.78;-10.85;-6.68;416.30;-312.41;-370.00;0.96;-156.86;-1.78;25.29 
9.013;0.29;0.16;0.89;9.67;-7.23;-4.80;417.30;-311.45;-367.00;0.95;-156.70;-1.35;25.54 
9.043;0.30;0.26;0.80;3.76;-4.31;-3.41;421.30;-310.49;-366.00;0.89;-156.55;-0.96;25.70 
9.073;0.26;0.25;0.76;1.18;7.17;-1.25;418.30;-313.36;-369.00;0.84;-156.49;-0.71;25.78 
9.103;0.19;0.22;0.90;0.14;9.81;-2.30;417.30;-307.61;-362.00;0.95;-156.42;-0.78;25.77 
9.133;0.14;0.21;0.94;1.46;-4.10;1.53;417.30;-306.66;-367.00;0.97;-156.33;-0.76;25.73 
9.163;0.17;0.23;0.88;3.76;-15.51;4.52;420.30;-310.49;-367.00;0.93;-156.34;-0.31;25.77 
9.192;0.18;0.26;0.87;5.50;-18.16;8.83;418.30;-315.28;-364.00;0.93;-156.43;0.35;25.86 
9.222;0.18;0.22;0.82;5.77;-17.25;11.34;420.30;-318.16;-365.00;0.87;-156.65;1.10;26.01 
9.253;0.24;0.18;0.91;3.41;-16.56;9.53;423.29;-319.11;-363.00;0.96;-156.89;1.87;26.07 
9.282;0.25;0.18;0.87;3.97;-14.68;5.98;419.30;-325.82;-362.00;0.92;-157.04;2.58;26.08 
9.312;0.22;0.22;0.82;5.29;-13.15;4.10;425.29;-328.70;-364.00;0.88;-157.10;3.21;26.13 
9.341;0.24;0.23;0.85;4.52;-14.40;6.33;421.30;-332.53;-360.00;0.91;-157.19;3.82;26.23 
9.370;0.26;0.20;0.82;4.38;-12.03;3.62;424.29;-337.32;-360.00;0.88;-157.27;4.46;26.27 
9.399;0.34;0.15;0.85;3.55;-10.09;0.07;422.29;-337.32;-361.00;0.93;-157.26;4.95;26.28 
9.428;0.33;0.18;0.82;2.50;-7.03;-1.04;426.29;-338.28;-358.00;0.90;-157.19;5.40;26.27 
9.457;0.34;0.22;0.81;2.09;-4.73;-0.63;426.29;-339.24;-357.00;0.91;-157.12;5.78;26.27 
9.487;0.33;0.18;0.79;0.35;-4.17;2.16;427.29;-338.28;-358.00;0.87;-157.06;6.14;26.24 
9.517;0.31;0.19;0.81;-3.90;-5.63;5.50;426.29;-337.32;-356.00;0.89;-157.10;6.49;26.17 
9.548;0.31;0.19;0.81;-3.20;-0.35;5.01;425.29;-341.15;-356.00;0.89;-157.14;6.84;25.98 
9.578;0.27;0.25;0.82;-0.90;4.17;3.13;422.29;-340.20;-354.00;0.90;-157.18;7.06;25.82 
9.608;0.27;0.25;0.90;1.81;2.09;5.77;421.30;-340.20;-353.00;0.97;-157.22;7.12;25.79 
9.639;0.29;0.20;0.85;3.76;-5.15;8.42;424.29;-339.24;-352.00;0.92;-157.39;7.41;25.80 
9.669;0.31;0.22;0.79;2.23;-5.77;2.30;423.29;-342.11;-354.00;0.88;-157.49;7.84;25.81 
9.699;0.34;0.25;0.77;1.46;1.95;1.11;425.29;-344.03;-354.00;0.88;-157.49;8.14;25.82 
9.729;0.26;0.22;0.82;-0.49;6.26;0.56;424.29;-341.15;-351.00;0.89;-157.47;8.25;25.80 
9.758;0.28;0.18;0.83;-0.07;6.40;1.32;425.29;-342.11;-353.00;0.89;-157.43;8.20;25.73 
9.788;0.26;0.19;0.83;-0.21;1.18;0.63;423.29;-345.95;-351.00;0.89;-157.38;8.22;25.64 
9.818;0.29;0.18;0.83;0.00;-1.25;0.56;423.29;-341.15;-352.00;0.90;-157.30;8.36;25.57 
9.849;0.30;0.19;0.82;0.28;-0.49;-0.83;421.30;-341.15;-352.00;0.89;-157.19;8.54;25.51 
9.879;0.28;0.20;0.79;-0.14;0.70;-0.14;422.29;-342.11;-351.00;0.86;-157.10;8.71;25.43 
9.909;0.28;0.22;0.85;-0.21;0.28;-1.04;424.29;-344.99;-351.00;0.92;-156.98;8.80;25.38 
9.939;0.29;0.21;0.85;0.70;-1.67;-0.14;424.29;-340.20;-352.00;0.92;-156.86;8.95;25.36 
9.969;0.31;0.22;0.82;0.77;0.42;-0.42;425.29;-344.99;-349.00;0.90;-156.76;9.12;25.33 
9.998;0.29;0.23;0.82;0.70;1.60;0.21;427.29;-344.03;-351.00;0.90;-156.69;9.24;25.31 
10.027;0.30;0.22;0.84;1.32;1.67;0.97;427.29;-339.24;-350.00;0.92;-156.63;9.35;25.30 
10.056;0.30;0.24;0.83;0.97;2.92;1.32;424.29;-342.11;-352.00;0.91;-156.59;9.43;25.30 
10.086;0.29;0.26;0.80;0.63;4.87;2.37;424.29;-337.32;-350.00;0.89;-156.59;9.55;25.27 
10.116;0.32;0.21;0.83;1.04;6.68;3.97;425.29;-340.20;-349.00;0.91;-156.61;9.56;25.26 
10.147;0.38;0.25;0.77;3.69;13.08;7.10;424.29;-342.11;-349.00;0.89;-156.79;9.63;25.25 
10.177;0.25;0.29;0.76;-3.20;35.27;1.18;429.28;-339.24;-348.00;0.85;-156.95;9.28;25.30 
10.207;0.18;0.23;0.96;-4.24;38.68;15.17;427.29;-332.53;-349.00;1.00;-157.18;8.36;25.17 
10.237;0.18;0.04;0.98;-1.95;10.43;12.38;425.29;-327.74;-351.00;1.00;-157.55;7.87;24.88 
10.267;0.26;0.06;0.76;1.11;7.72;4.73;422.29;-331.57;-350.00;0.81;-157.69;7.88;24.60 
10.297;0.27;0.16;0.72;1.32;24.00;2.64;423.29;-329.65;-349.00;0.79;-157.75;7.73;24.51 
10.327;0.26;0.24;0.86;0.70;28.52;3.83;427.29;-321.99;-349.00;0.93;-157.86;7.20;24.49 
10.358;0.21;0.22;0.92;0.14;19.20;7.37;426.29;-319.11;-348.00;0.97;-157.98;6.68;24.46 
10.388;0.24;0.22;0.78;-0.77;16.42;8.14;422.29;-316.24;-346.00;0.85;-158.16;6.45;24.39 
10.418;0.28;0.22;0.74;-1.39;31.03;5.08;421.30;-311.45;-347.00;0.82;-158.32;6.11;24.32 
10.449;0.27;0.26;0.82;-1.60;40.77;4.24;419.30;-307.61;-345.00;0.90;-158.45;5.35;24.29 
10.479;0.22;0.25;0.84;-2.37;43.20;4.87;418.30;-303.78;-348.00;0.90;-158.59;4.38;24.24 
10.509;0.17;0.21;0.82;-2.99;47.17;4.45;418.30;-295.16;-349.00;0.86;-158.72;3.38;24.15 
10.539;0.18;0.20;0.89;-3.48;52.59;3.06;417.30;-285.57;-344.00;0.93;-158.81;2.19;24.06 
10.569;0.18;0.21;0.78;-3.48;54.12;0.21;419.30;-274.07;-347.00;0.83;-158.82;0.86;23.95 
10.599;0.13;0.20;0.78;-6.05;61.29;-3.34;417.30;-265.45;-348.00;0.82;-158.74;-0.56;23.82 
10.629;0.10;0.18;0.81;-8.07;73.74;-5.84;417.30;-254.91;-345.00;0.84;-158.55;-2.29;23.58 
10.660;0.01;0.19;0.77;-9.46;82.43;-5.98;413.31;-236.70;-345.00;0.79;-158.28;-4.43;23.29 
10.689;0.00;0.13;0.79;-12.10;90.71;-4.73;415.31;-225.20;-341.00;0.80;-157.99;-6.85;22.92 
10.719;-0.05;0.13;0.71;-13.29;99.83;-8.28;414.31;-207.95;-343.00;0.72;-157.65;-9.43;22.51 
10.749;-0.05;0.11;0.67;-14.96;118.47;-12.94;411.31;-190.70;-339.00;0.68;-157.14;-12.43;21.99 
10.779;-0.20;0.11;0.77;-16.70;142.47;-14.68;409.32;-161.95;-330.00;0.80;-156.47;-15.98;21.38 
10.809;-0.28;0.11;0.93;-7.10;142.89;-18.99;408.32;-142.79;-324.00;0.98;-155.51;-20.20;20.80 
10.839;-1.22;1.18;1.88;-87.17;29.15;-6.47;407.32;-124.58;-312.00;2.53;-154.31;-24.24;20.37 
10.870;-0.34;0.19;1.03;-24.42;20.38;2.71;399.33;-120.75;-321.00;1.10;-154.09;-25.67;19.68 
10.900;-0.50;0.08;0.72;-75.62;104.28;6.47;387.35;-107.33;-328.00;0.88;-154.23;-27.36;18.22 
10.930;-0.82;-0.15;0.98;-22.33;139.55;18.71;385.36;-95.83;-324.00;1.29;-154.13;-31.01;16.92 
10.961;-0.96;-0.06;0.98;11.41;96.28;5.43;388.35;-82.41;-312.00;1.37;-153.52;-34.50;16.94 
10.991;-0.81;0.01;0.81;24.07;66.99;-8.90;391.35;-76.66;-302.00;1.15;-152.20;-36.95;17.35 
11.021;-0.74;0.00;0.82;19.69;59.41;-18.23;392.34;-67.08;-296.00;1.10;-150.58;-39.02;17.59 
11.051;-0.80;0.06;0.81;18.02;34.09;-24.90;388.35;-59.41;-284.00;1.14;-148.82;-40.73;17.41 
11.080;-0.77;0.11;0.75;16.63;23.17;-15.30;392.34;-55.58;-276.00;1.08;-147.25;-41.85;17.25 
11.110;-0.76;0.01;0.74;17.04;18.23;-8.21;391.35;-52.71;-271.00;1.06;-146.10;-42.64;17.22 
11.140;-0.86;0.00;0.73;26.71;12.73;-12.59;391.35;-50.79;-268.00;1.13;-144.92;-43.29;17.33 
11.170;-0.84;-0.04;0.74;19.69;9.11;-25.11;390.35;-46.00;-255.00;1.12;-143.51;-43.94;17.33 
11.199;-0.84;0.05;0.76;14.19;4.31;-24.49;385.36;-37.37;-252.00;1.13;-142.01;-44.57;16.94 
11.228;-0.82;0.09;0.73;21.15;-2.99;-15.30;383.36;-33.54;-242.00;1.10;-140.83;-44.90;16.76 
11.259;-0.78;0.02;0.67;14.75;-12.24;-9.18;384.36;-37.37;-236.00;1.03;-139.93;-44.97;16.70 
11.289;-0.77;0.03;0.68;14.82;-8.63;-9.60;381.36;-35.46;-232.00;1.03;-139.11;-44.93;16.66 
11.319;-0.72;0.02;0.71;16.35;-8.07;-8.70;380.36;-37.37;-231.00;1.01;-138.38;-44.88;16.63 
11.349;-0.70;0.00;0.73;15.72;-12.24;-8.14;380.36;-38.33;-232.00;1.01;-137.73;-44.78;16.62 
11.379;-0.65;0.02;0.69;19.13;-22.75;-6.05;379.37;-39.29;-235.00;0.95;-137.15;-44.41;16.66 
11.409;-0.62;0.05;0.66;18.02;-28.66;-8.00;381.36;-39.29;-238.00;0.91;-136.68;-43.83;16.77 
11.439;-0.56;0.07;0.66;15.51;-30.33;-10.09;382.36;-47.91;-239.00;0.87;-136.23;-43.13;16.78 
11.469;-0.56;0.07;0.64;13.77;-31.65;-8.07;381.36;-46.96;-243.00;0.85;-135.82;-42.37;16.74 
