Time(s) acc_x(g) acc_y(g) acc_z(g) gyr_x(°/s) gyr_y(°/s) gyr_z(°/s) mag_x(G) mag_y(G) mag_z(G) SVM(g) yaw(°) pitch(°) roll(°)
0.000;-0.33;0.05;0.82;-2.99;-5.36;4.17;20.93;-46.85;-285.00;0.89;149.58;-16.02;10.93 
0.030;-0.35;0.05;0.80;-3.83;-4.17;8.77;19.93;-47.81;-285.00;0.87;149.56;-15.91;10.86 
0.061;-0.33;0.01;0.78;-5.22;-2.71;10.71;17.94;-46.85;-283.00;0.85;149.40;-15.79;10.77 
0.091;-0.30;0.03;0.90;-4.52;-4.52;11.76;21.93;-44.94;-286.00;0.95;149.21;-15.61;10.77 
0.120;-0.32;0.00;0.83;-3.41;-6.05;10.23;24.92;-44.94;-286.00;0.89;149.05;-15.46;10.66 
0.150;-0.32;-0.02;0.80;-3.27;-3.55;7.17;23.92;-46.85;-287.00;0.86;148.96;-15.21;10.73 
0.179;-0.33;-0.02;0.85;-1.39;1.81;1.67;25.91;-44.94;-288.00;0.91;148.99;-15.22;10.63 
0.209;-0.34;-0.05;0.90;-0.49;-1.11;-0.90;24.92;-46.85;-287.00;0.96;149.13;-15.28;10.53 
0.239;-0.33;0.00;0.85;-1.18;-6.61;-3.48;25.91;-46.85;-287.00;0.91;149.40;-15.23;10.40 
0.270;-0.31;0.02;0.79;-1.32;-3.41;-3.76;21.93;-44.94;-287.00;0.85;149.72;-15.12;10.31 
0.300;-0.28;0.00;0.82;-1.95;0.70;-3.13;22.92;-47.81;-286.00;0.87;150.01;-15.14;10.18 
0.330;-0.33;0.00;0.83;-2.16;-0.07;-2.50;22.92;-49.72;-289.00;0.89;150.24;-15.16;10.15 
0.361;-0.34;0.04;0.85;-2.37;-3.83;-1.46;18.94;-51.63;-288.00;0.92;150.49;-15.15;10.00 
0.391;-0.32;0.03;0.84;-2.78;-2.71;-0.77;21.93;-50.68;-288.00;0.90;150.69;-15.10;9.88 
0.421;-0.31;0.00;0.85;-4.59;-3.06;-2.37;18.94;-53.55;-288.00;0.90;150.91;-15.03;9.81 
0.451;-0.30;-0.02;0.86;-4.59;-4.73;-3.76;19.93;-49.72;-287.00;0.91;151.15;-14.90;9.73 
0.481;-0.23;0.00;0.85;-3.76;-6.47;-4.52;16.94;-54.50;-287.00;0.88;151.44;-14.72;9.66 
0.511;-0.26;0.00;0.82;-3.55;-1.67;-6.05;15.95;-52.59;-290.00;0.86;151.76;-14.58;9.58 
0.541;-0.32;-0.02;0.90;-2.85;-0.21;-9.46;14.95;-54.50;-289.00;0.96;152.15;-14.60;9.47 
0.571;-0.29;-0.02;0.85;-1.88;-4.31;-8.83;9.97;-55.46;-290.00;0.90;152.59;-14.59;9.26 
0.601;-0.28;0.03;0.84;-0.49;-2.43;-7.51;10.96;-54.50;-292.00;0.89;153.03;-14.53;9.09 
0.631;-0.26;0.00;0.84;-0.14;3.34;-8.90;8.97;-57.37;-288.00;0.88;153.42;-14.60;8.95 
0.660;-0.28;0.01;0.85;-0.07;4.31;-8.21;6.98;-57.37;-287.00;0.89;153.82;-14.73;8.93 
0.690;-0.30;0.04;0.81;-0.97;1.53;-8.14;2.99;-58.33;-289.00;0.86;154.22;-14.88;8.80 
0.720;-0.30;0.03;0.78;-2.30;2.85;-9.95;3.99;-53.55;-286.00;0.84;154.63;-15.02;8.64 
0.749;-0.31;-0.02;0.80;-2.16;2.92;-12.45;0.00;-56.41;-286.00;0.86;154.96;-15.18;8.47 
0.780;-0.32;-0.03;0.86;-1.46;0.35;-14.96;-1.00;-56.41;-287.00;0.92;155.46;-15.38;8.18 
0.810;-0.31;0.02;0.86;-2.09;-2.71;-16.14;-2.99;-60.24;-284.00;0.91;156.07;-15.41;8.00 
0.840;-0.30;0.02;0.85;-4.31;-4.87;-16.97;-4.98;-60.24;-289.00;0.90;156.71;-15.39;7.73 
0.871;-0.33;0.01;0.95;-6.40;-6.96;-17.11;-12.96;-61.19;-285.00;1.01;157.37;-15.33;7.34 
0.900;-0.32;0.02;0.83;-7.65;-9.74;-12.73;-15.95;-64.06;-291.00;0.89;157.94;-15.18;6.95 
0.930;-0.34;0.05;0.75;-10.92;-7.72;-10.50;-18.94;-65.98;-287.00;0.82;158.38;-15.03;6.54 
0.960;-0.33;0.01;0.74;-15.10;-1.95;-9.11;-21.93;-67.89;-286.00;0.81;158.74;-15.05;6.03 
0.990;-0.36;0.03;0.67;-19.06;1.32;-3.90;-29.90;-64.06;-287.00;0.76;158.96;-15.20;5.40 
1.020;-0.35;0.02;0.64;-20.80;5.36;-2.30;-32.89;-69.80;-279.00;0.73;159.01;-15.47;4.76 
1.050;-0.34;0.01;0.63;-25.39;9.88;-0.14;-35.88;-66.93;-281.00;0.72;158.98;-15.86;4.02 
1.081;-0.35;0.00;0.68;-24.90;19.13;1.25;-38.87;-64.06;-275.00;0.76;158.84;-16.31;3.24 
1.110;-0.39;0.05;0.55;-24.77;25.04;6.61;-39.87;-61.19;-268.00;0.68;158.58;-17.14;2.56 
1.139;-0.37;0.04;0.49;-24.77;33.60;10.99;-45.85;-54.50;-262.00;0.62;158.15;-18.19;1.98 
1.169;-0.34;0.02;0.54;-24.56;38.19;11.76;-43.85;-52.59;-254.00;0.64;157.56;-19.47;1.38 
1.199;-0.38;0.01;0.49;-20.24;33.74;9.39;-45.85;-45.90;-246.00;0.62;156.97;-20.75;0.83 
1.229;-0.36;0.05;0.31;-14.26;26.43;13.50;-45.85;-43.03;-238.00;0.48;156.45;-21.92;0.47 
1.259;-0.37;-0.02;0.20;-12.59;30.54;8.56;-47.84;-34.42;-230.00;0.42;155.92;-22.77;0.29 
1.289;-0.23;0.10;0.20;-16.56;43.20;5.57;-46.84;-35.38;-225.00;0.32;155.49;-24.28;-0.07 
1.319;-0.27;0.06;0.33;-12.94;34.09;1.60;-42.86;-23.90;-215.00;0.43;154.96;-25.79;-0.16 
1.349;-0.16;0.00;0.41;0.14;11.41;-13.15;-46.84;-21.99;-206.00;0.44;155.10;-26.59;-0.43 
1.379;-0.17;0.07;0.51;10.50;-1.95;-9.18;-49.83;-17.21;-203.00;0.54;155.47;-26.78;-0.49 
1.409;-0.30;-0.11;0.60;14.05;-0.77;-35.41;-49.83;-21.04;-205.00;0.68;156.34;-26.70;-0.53 
1.439;-0.37;-0.08;0.77;12.80;6.26;-52.10;-55.81;-23.90;-203.00;0.86;157.93;-26.80;-0.91 
1.469;-0.44;0.41;1.03;11.69;24.70;-48.14;-63.79;-26.77;-197.00;1.19;159.71;-27.09;-1.36 
1.499;-0.59;0.40;1.19;-18.43;-16.49;-18.02;-71.76;-30.60;-190.00;1.39;160.90;-27.18;-1.58 
1.529;-0.41;-0.17;0.93;-27.20;-25.11;-12.66;-72.76;-31.55;-191.00;1.03;161.14;-26.39;-2.25 
1.559;-0.46;-0.14;1.08;-39.58;12.45;-55.44;-83.72;-35.38;-193.00;1.18;161.95;-26.06;-3.89 
1.590;-0.72;0.11;1.28;-66.37;-42.09;-29.22;-93.69;-34.42;-184.00;1.47;162.70;-25.90;-5.88 
1.620;-0.58;-0.17;0.89;-91.06;-75.41;-31.30;-113.62;-48.76;-182.00;1.08;162.67;-23.78;-8.57 
1.650;-0.34;0.22;0.71;-129.18;-102.68;-48.63;-133.56;-59.28;-180.00;0.82;163.00;-21.32;-11.97 
1.681;-0.44;0.18;0.27;-161.53;-127.37;-33.74;-156.48;-74.58;-179.00;0.55;163.20;-17.56;-16.28 
1.710;-0.34;-0.16;0.17;-142.47;-121.11;-57.81;-178.41;-91.79;-170.00;0.41;163.42;-14.36;-21.03 
1.740;0.00;-1.27;1.21;-110.19;-56.07;-87.93;-202.33;-109.96;-160.00;1.75;164.90;-11.05;-25.63 
1.770;1.69;-4.56;5.52;-26.43;359.86;-122.09;-246.18;-138.64;-137.00;7.36;170.32;-9.94;-28.10 
1.800;-1.62;-1.24;1.13;-218.78;-376.28;-130.57;-251.17;-121.43;-80.00;2.33;167.71;-11.72;-34.90 
1.830;0.26;0.22;0.34;-368.70;-462.61;-208.28;-298.01;-184.54;-75.00;0.48;175.26;2.77;-43.58 
1.860;-0.39;1.27;-0.81;-294.82;-70.47;-76.94;-324.92;-227.57;-35.00;1.56;-179.28;10.55;-52.97 
1.891;1.26;-1.38;-0.15;-306.16;18.23;-163.41;-347.85;-263.90;38.00;1.87;-172.49;15.03;-59.04 
1.921;0.14;-1.22;0.21;-236.03;-34.57;-165.36;-345.85;-295.45;93.00;1.25;-165.11;19.32;-63.35 
1.951;0.56;-1.06;-0.57;-212.38;-261.36;-114.16;-343.86;-323.18;134.00;1.33;-158.00;24.86;-63.27 
1.981;1.30;-1.44;-1.37;-182.12;-194.78;-66.23;-337.88;-327.96;151.00;2.37;-151.60;28.46;-61.54 
2.011;1.02;-1.16;-1.17;-19.90;-14.40;58.78;-316.95;-317.45;203.00;1.94;-148.80;28.78;-60.66 
2.041;0.32;-1.06;-0.36;20.66;40.35;-3.97;-314.95;-312.67;201.00;1.16;-150.26;27.41;-62.04 
2.071;0.38;-0.32;0.00;7.37;-18.37;19.27;-316.95;-314.58;197.00;0.50;-150.04;27.68;-61.79 
2.102;0.20;0.00;-0.44;4.87;-44.52;38.96;-315.95;-311.71;195.00;0.48;-150.24;26.98;-62.30 
2.132;0.07;-0.25;-0.81;-0.83;-35.13;45.36;-315.95;-294.50;191.00;0.85;-151.14;25.56;-63.50 
2.162;0.38;-0.70;-1.05;6.61;-13.77;24.00;-315.95;-283.98;189.00;1.32;-151.59;24.39;-64.31 
2.193;0.52;-0.67;-1.00;15.79;45.15;8.00;-314.95;-279.20;188.00;1.31;-151.83;24.06;-64.56 
2.222;0.33;-0.74;-0.66;36.38;82.43;-15.79;-318.94;-284.94;188.00;1.05;-152.19;24.46;-64.49 
2.252;0.57;-0.87;-0.19;42.23;48.90;-12.94;-324.92;-297.37;180.00;1.06;-152.46;25.26;-64.17 
2.282;0.84;-1.26;-0.30;27.62;-19.13;-1.74;-327.91;-295.45;176.00;1.54;-152.60;25.58;-64.05 
2.312;0.96;-1.23;-0.45;25.25;-8.14;-9.60;-332.89;-300.23;166.00;1.62;-152.21;26.01;-63.67 
2.342;0.78;-0.94;-0.31;27.34;20.31;34.16;-329.90;-298.32;167.00;1.26;-152.49;25.97;-63.79 
2.371;0.44;-0.78;-0.20;21.15;28.94;46.05;-334.89;-286.85;154.00;0.92;-153.87;25.01;-64.85 
2.402;0.26;-0.77;-0.06;22.26;16.63;37.36;-332.89;-284.94;154.00;0.81;-155.45;23.79;-66.14 
2.432;0.28;-0.90;-0.16;31.58;-8.07;31.44;-331.90;-278.24;150.00;0.96;-156.79;22.69;-67.27 
2.462;0.32;-0.96;-0.16;34.71;4.73;34.71;-332.89;-269.64;145.00;1.02;-158.15;21.65;-68.35 
2.493;0.30;-0.99;0.01;30.12;12.10;26.57;-334.89;-260.08;138.00;1.03;-159.55;20.65;-69.35 
2.523;0.26;-1.08;0.00;18.50;4.87;15.37;-332.89;-257.21;131.00;1.11;-160.56;20.01;-69.97 
2.553;0.22;-1.05;-0.06;6.82;1.32;10.02;-335.89;-254.34;128.00;1.07;-161.11;19.55;-70.41 
2.582;0.29;-1.04;-0.12;6.26;0.49;8.56;-333.89;-254.34;130.00;1.09;-161.40;19.25;-70.71 
2.611;0.34;-0.98;-0.09;7.10;3.48;12.66;-333.89;-254.34;129.00;1.04;-161.70;18.96;-71.00 
2.641;0.31;-0.98;-0.06;5.91;3.97;14.19;-333.89;-248.60;123.00;1.03;-162.06;18.60;-71.36 
2.671;0.28;-0.98;-0.08;1.88;4.59;10.23;-332.89;-246.69;125.00;1.02;-162.38;18.25;-71.71 
2.702;0.28;-1.01;-0.03;-3.55;-2.09;6.19;-332.89;-244.78;123.00;1.05;-162.53;18.04;-71.93 
2.732;0.27;-1.03;-0.13;-6.12;-5.84;3.34;-332.89;-241.91;124.00;1.07;-162.48;17.89;-72.10 
2.762;0.29;-1.05;-0.14;-5.08;-2.43;-0.07;-331.90;-243.82;123.00;1.10;-162.32;17.83;-72.17 
2.792;0.30;-0.99;-0.10;-2.92;1.60;-1.32;-329.90;-242.87;125.00;1.04;-162.11;17.86;-72.14 
2.822;0.31;-0.99;-0.10;-1.60;-3.69;-2.78;-331.90;-241.91;129.00;1.04;-161.88;17.94;-72.05 
2.852;0.33;-1.02;-0.18;-0.63;-4.31;-3.41;-332.89;-241.91;129.00;1.09;-161.58;18.08;-71.90 
2.882;0.34;-1.01;-0.17;1.18;-0.07;-2.64;-332.89;-244.78;128.00;1.08;-161.29;18.25;-71.72 
2.913;0.34;-1.00;-0.10;2.30;0.70;-1.32;-331.90;-244.78;128.00;1.06;-161.08;18.37;-71.59 
2.943;0.34;-0.98;-0.14;1.95;-0.42;-0.70;-334.89;-240.95;125.00;1.05;-160.95;18.45;-71.50 
2.972;0.33;-0.99;-0.14;1.95;0.14;-0.77;-332.89;-246.69;123.00;1.05;-160.82;18.51;-71.43 
3.003;0.32;-1.00;-0.09;1.81;0.90;-0.90;-332.89;-245.73;125.00;1.05;-160.68;18.59;-71.34 
3.033;0.31;-0.99;-0.11;1.32;1.46;-0.77;-332.89;-246.69;126.00;1.04;-160.53;18.68;-71.24 
3.063;0.33;-0.99;-0.13;0.56;0.35;-0.97;-330.90;-245.73;124.00;1.05;-160.39;18.76;-71.15 
3.093;0.32;-0.98;-0.11;-0.35;0.14;-1.25;-334.89;-246.69;126.00;1.04;-160.22;18.85;-71.05 
3.123;0.29;-1.02;-0.14;-0.77;0.00;-1.04;-331.90;-247.65;123.00;1.07;-160.02;18.94;-70.93 
3.153;0.34;-1.00;-0.12;-0.70;0.07;-0.35;-332.89;-246.69;124.00;1.06;-159.83;19.03;-70.82 
3.183;0.32;-0.99;-0.13;-0.97;0.42;0.56;-331.90;-246.69;125.00;1.05;-159.68;19.09;-70.74 
3.214;0.32;-0.98;-0.10;-0.83;0.28;1.04;-330.90;-244.78;124.00;1.04;-159.53;19.12;-70.68 
3.244;0.33;-1.01;-0.06;-0.90;0.63;1.46;-331.90;-245.73;124.00;1.06;-159.42;19.13;-70.64 
3.274;0.31;-0.99;-0.14;-0.42;1.04;1.81;-330.90;-244.78;124.00;1.05;-159.33;19.14;-70.61 
3.304;0.30;-1.01;-0.11;-0.35;0.35;1.11;-328.91;-245.73;131.00;1.06;-159.25;19.13;-70.58 
3.334;0.33;-0.99;-0.10;-0.07;0.21;1.04;-331.90;-245.73;126.00;1.05;-159.14;19.15;-70.54 
3.364;0.30;-1.00;-0.12;0.07;0.21;0.42;-330.90;-244.78;121.00;1.05;-159.02;19.18;-70.48 
3.394;0.33;-0.99;-0.14;0.28;0.00;-0.56;-332.89;-244.78;125.00;1.05;-158.90;19.22;-70.41 
3.425;0.32;-0.99;-0.17;0.63;0.00;-0.42;-332.89;-246.69;124.00;1.05;-158.77;19.29;-70.32 
3.455;0.34;-1.01;-0.11;0.70;0.83;-0.35;-331.90;-245.73;126.00;1.07;-158.65;19.35;-70.24 
3.485;0.30;-0.99;-0.11;0.49;0.35;-0.70;-334.89;-247.65;124.00;1.04;-158.53;19.40;-70.16 
3.516;0.31;-0.98;-0.13;0.63;-0.49;-1.18;-329.90;-245.73;122.00;1.04;-158.38;19.48;-70.06 
3.546;0.34;-0.99;-0.11;0.49;1.32;-0.35;-331.90;-247.65;124.00;1.05;-158.23;19.56;-69.96 
3.576;0.33;-0.98;-0.13;0.14;2.92;0.14;-334.89;-244.78;125.00;1.04;-158.10;19.63;-69.86 
3.606;0.33;-0.87;-0.09;-0.63;0.42;0.70;-327.91;-245.73;123.00;0.93;-158.01;19.65;-69.81 
3.636;0.31;-0.99;-0.11;-0.63;-0.35;-0.28;-333.89;-250.51;125.00;1.04;-157.89;19.69;-69.74 
3.666;0.34;-0.99;-0.12;-0.42;0.21;0.28;-332.89;-243.82;125.00;1.05;-157.77;19.72;-69.67 
3.696;0.31;-0.99;-0.14;-0.28;0.35;0.35;-334.89;-243.82;125.00;1.05;-157.67;19.74;-69.62 
3.727;0.31;-0.98;-0.12;-0.21;-0.63;0.21;-333.89;-243.82;124.00;1.03;-157.56;19.78;-69.55 
3.757;0.30;-0.98;-0.14;-0.28;0.42;0.35;-334.89;-245.73;124.00;1.03;-157.45;19.82;-69.48 
3.787;0.33;-1.00;-0.10;0.14;0.14;-0.14;-331.90;-245.73;124.00;1.06;-157.35;19.86;-69.41 
3.817;0.33;-0.98;-0.13;-0.07;0.07;-0.07;-332.89;-243.82;124.00;1.04;-157.24;19.89;-69.35 
3.847;0.30;-1.00;-0.14;0.28;0.77;0.21;-334.89;-245.73;124.00;1.05;-157.13;19.95;-69.27 
3.877;0.34;-0.98;-0.14;0.07;0.63;0.00;-333.89;-243.82;126.00;1.05;-157.03;19.99;-69.20 
3.907;0.33;-0.98;-0.09;-0.14;1.04;-0.42;-328.91;-244.78;125.00;1.04;-156.94;20.03;-69.14 
3.938;0.30;-0.98;-0.10;-0.28;0.21;0.21;-332.89;-245.73;126.00;1.03;-156.82;20.07;-69.05 
3.968;0.34;-0.98;-0.10;-0.21;0.28;0.56;-330.90;-248.60;123.00;1.04;-156.72;20.10;-68.99 
3.998;0.31;-0.99;-0.11;-0.21;0.56;0.49;-333.89;-244.78;124.00;1.04;-156.61;20.14;-68.92 
4.029;0.31;-1.00;-0.11;0.00;-0.07;0.49;-330.90;-247.65;126.00;1.05;-156.51;20.17;-68.85 
4.059;0.32;-0.98;-0.10;0.14;0.35;0.35;-332.89;-243.82;126.00;1.04;-156.41;20.20;-68.79 
4.089;0.32;-0.99;-0.10;0.07;0.00;0.42;-330.90;-244.78;125.00;1.05;-156.33;20.23;-68.73 
4.119;0.31;-0.99;-0.10;0.00;0.77;0.28;-333.89;-247.65;125.00;1.04;-156.24;20.27;-68.67 
4.150;0.34;-0.99;-0.11;0.00;0.00;0.28;-331.90;-245.73;125.00;1.05;-156.17;20.30;-68.62 
4.180;0.33;-0.99;-0.13;0.07;-0.28;0.14;-332.89;-243.82;123.00;1.05;-156.09;20.33;-68.57 
4.210;0.34;-0.98;-0.07;0.28;0.56;0.49;-331.90;-245.73;123.00;1.04;-156.03;20.35;-68.53 
4.241;0.33;-1.00;-0.10;0.49;-0.56;0.14;-331.90;-248.60;128.00;1.06;-155.94;20.39;-68.47 
4.271;0.33;-1.02;-0.13;0.00;-0.21;0.07;-333.89;-246.69;126.00;1.08;-155.87;20.41;-68.43 
4.301;0.34;-0.98;-0.10;0.28;0.28;-0.07;-333.89;-245.73;123.00;1.04;-155.77;20.44;-68.36 
4.331;0.33;-0.98;-0.13;0.14;-0.07;0.00;-330.90;-243.82;123.00;1.04;-155.68;20.49;-68.30 
4.361;0.34;-0.98;-0.11;-0.21;0.21;-0.35;-334.89;-246.69;124.00;1.04;-155.58;20.55;-68.22 
4.391;0.30;-0.98;-0.14;-0.42;0.49;-0.28;-335.89;-245.73;123.00;1.03;-155.48;20.59;-68.15 
4.421;0.30;-0.98;-0.14;-0.14;0.49;-0.42;-331.90;-247.65;124.00;1.03;-155.37;20.65;-68.06 
4.452;0.33;-0.94;-0.10;-0.35;-0.14;-0.49;-331.90;-243.82;126.00;1.00;-155.27;20.69;-67.99 
4.482;0.33;-0.99;-0.13;0.28;0.28;0.00;-329.90;-249.56;123.00;1.05;-155.18;20.73;-67.93 
4.512;0.32;-0.98;-0.08;0.28;0.83;-0.07;-332.89;-248.60;124.00;1.03;-155.11;20.75;-67.88 
4.542;0.31;-0.98;-0.13;0.07;0.21;0.07;-332.89;-246.69;124.00;1.04;-155.06;20.77;-67.85 
4.572;0.30;-0.94;-0.10;-0.21;-0.21;0.14;-333.89;-245.73;125.00;0.99;-154.97;20.81;-67.78 
4.602;0.32;-0.99;-0.10;-0.07;0.07;0.14;-328.91;-244.78;125.00;1.05;-154.91;20.84;-67.74 
4.632;0.33;-1.02;-0.09;-0.14;-0.21;0.21;-334.89;-244.78;128.00;1.08;-154.83;20.88;-67.68 
4.663;0.33;-1.01;-0.10;-0.14;-0.07;0.07;-332.89;-247.65;124.00;1.07;-154.76;20.89;-67.64 
4.693;0.29;-1.02;-0.17;-0.07;-0.28;-0.07;-334.89;-246.69;122.00;1.07;-154.67;20.93;-67.57 
4.723;0.34;-1.02;-0.11;0.14;0.63;-0.28;-332.89;-244.78;122.00;1.08;-154.59;20.97;-67.51 
4.754;0.33;-1.01;-0.11;0.14;-0.14;-0.49;-330.90;-247.65;124.00;1.07;-154.51;21.01;-67.45 
4.784;0.33;-0.98;-0.12;0.00;0.35;-0.07;-332.89;-244.78;127.00;1.04;-154.43;21.04;-67.39 
4.814;0.31;-0.99;-0.12;0.49;0.14;-0.21;-330.90;-246.69;126.00;1.04;-154.37;21.07;-67.36 
4.844;0.32;-0.99;-0.14;0.49;0.35;-0.21;-331.90;-245.73;120.00;1.05;-154.31;21.09;-67.31 
4.874;0.32;-0.98;-0.10;0.21;0.83;-0.07;-334.89;-245.73;123.00;1.04;-154.25;21.13;-67.26 
4.904;0.32;-0.98;-0.10;-0.07;0.07;0.21;-334.89;-243.82;126.00;1.04;-154.19;21.16;-67.22 
4.934;0.33;-1.00;-0.11;-0.49;0.00;0.21;-333.89;-246.69;124.00;1.06;-154.14;21.17;-67.19 
4.965;0.31;-0.98;-0.12;-0.42;-0.07;0.21;-330.90;-244.78;127.00;1.03;-154.06;21.20;-67.13 
4.995;0.33;-1.01;-0.11;-0.14;-0.14;0.07;-333.89;-248.60;124.00;1.07;-154.00;21.21;-67.09 
5.025;0.32;-1.02;-0.14;0.00;0.49;0.28;-333.89;-242.87;126.00;1.08;-153.96;21.23;-67.07 
5.055;0.29;-1.00;-0.12;0.07;-0.07;0.35;-334.89;-244.78;126.00;1.05;-153.91;21.25;-67.03 
5.085;0.32;-0.98;-0.11;0.07;-0.14;-0.21;-330.90;-246.69;125.00;1.04;-153.84;21.29;-66.98 
5.115;0.33;-0.98;-0.13;0.35;0.49;-0.35;-335.89;-246.69;126.00;1.04;-153.80;21.31;-66.95 
5.145;0.34;-1.02;-0.15;0.35;0.14;-0.56;-334.89;-245.73;126.00;1.09;-153.72;21.36;-66.89 
5.176;0.30;-0.98;-0.10;0.42;0.07;-0.42;-332.89;-243.82;126.00;1.03;-153.66;21.39;-66.85 
5.206;0.32;-0.99;-0.10;-0.14;0.83;0.07;-331.90;-246.69;123.00;1.05;-153.62;21.41;-66.82 
5.236;0.33;-0.98;-0.11;-0.35;-0.21;0.14;-333.89;-247.65;127.00;1.04;-153.58;21.43;-66.79 
5.267;0.33;-0.98;-0.06;-0.07;0.49;0.42;-331.90;-246.69;125.00;1.04;-153.53;21.44;-66.76 
5.297;0.33;-0.98;-0.10;0.00;0.21;0.49;-334.89;-245.73;124.00;1.04;-153.50;21.46;-66.73 
5.327;0.31;-1.01;-0.09;0.07;-0.35;0.28;-332.89;-245.73;126.00;1.06;-153.46;21.47;-66.71 
5.357;0.33;-1.02;-0.12;-0.14;0.21;0.28;-330.90;-245.73;126.00;1.08;-153.42;21.47;-66.69 
5.388;0.31;-0.98;-0.11;-0.14;0.07;0.14;-333.89;-246.69;123.00;1.03;-153.40;21.48;-66.67 
5.417;0.30;-1.00;-0.12;0.00;0.14;-0.35;-332.89;-245.73;125.00;1.05;-153.36;21.50;-66.65 
5.447;0.32;-0.99;-0.11;0.14;0.07;-0.28;-331.90;-244.78;124.00;1.05;-153.31;21.53;-66.61 
5.478;0.32;-0.99;-0.11;0.42;0.49;-0.42;-333.89;-246.69;124.00;1.05;-153.24;21.56;-66.56 
5.507;0.31;-0.98;-0.12;0.35;0.14;-0.07;-331.90;-246.69;124.00;1.03;-153.21;21.59;-66.53 
5.537;0.32;-0.98;-0.10;0.42;-0.14;0.21;-333.89;-243.82;125.00;1.04;-153.17;21.61;-66.51 
5.567;0.31;-0.96;-0.10;0.42;0.35;-0.07;-335.89;-245.73;121.00;1.01;-153.14;21.62;-66.49 
5.597;0.31;-0.98;-0.10;0.00;0.42;0.14;-330.90;-248.60;126.00;1.03;-153.11;21.64;-66.47 
5.627;0.32;-0.98;-0.10;-0.14;-0.21;0.00;-332.89;-247.65;123.00;1.04;-153.08;21.66;-66.45 
5.657;0.32;-1.00;-0.14;-0.21;-0.42;0.07;-329.90;-248.60;127.00;1.06;-153.06;21.65;-66.44 
5.688;0.30;-1.01;-0.14;-0.14;0.28;0.28;-333.89;-245.73;120.00;1.06;-153.00;21.66;-66.41 
5.718;0.33;-1.01;-0.11;-0.07;0.35;0.14;-335.89;-245.73;127.00;1.07;-152.97;21.66;-66.39 
5.748;0.32;-1.00;-0.10;0.00;-0.28;0.00;-329.90;-250.51;124.00;1.05;-152.93;21.68;-66.36 
5.779;0.31;-1.00;-0.07;-0.21;0.28;-0.28;-333.89;-244.78;125.00;1.05;-152.88;21.68;-66.34 
5.809;0.34;-1.01;-0.13;0.07;0.00;0.00;-330.90;-246.69;122.00;1.07;-152.85;21.70;-66.31 
5.839;0.34;-1.02;-0.10;0.21;0.35;-0.42;-333.89;-243.82;120.00;1.08;-152.81;21.73;-66.28 
5.869;0.34;-1.00;-0.12;0.28;0.07;-0.35;-331.90;-248.60;125.00;1.06;-152.78;21.74;-66.26 
5.900;0.30;-0.98;-0.14;0.07;0.35;-0.21;-336.88;-243.82;121.00;1.03;-152.74;21.78;-66.23 
5.930;0.33;-0.99;-0.10;0.00;0.42;-0.35;-331.90;-245.73;122.00;1.05;-152.72;21.78;-66.22 
5.960;0.31;-0.98;-0.12;-0.14;-0.28;-0.21;-330.90;-247.65;123.00;1.03;-152.69;21.79;-66.20 
5.991;0.32;-1.01;-0.10;0.21;0.35;0.00;-333.89;-248.60;124.00;1.06;-152.65;21.82;-66.18 
6.021;0.34;-1.00;-0.11;-0.14;-0.14;-0.07;-332.89;-243.82;125.00;1.06;-152.63;21.84;-66.16 
6.051;0.32;-1.00;-0.09;-0.07;0.21;-0.07;-334.89;-247.65;124.00;1.05;-152.60;21.84;-66.15 
6.081;0.34;-0.98;-0.10;0.00;0.42;-0.07;-336.88;-243.82;125.00;1.04;-152.57;21.85;-66.13 
6.111;0.32;-0.97;-0.10;-0.07;0.00;-0.21;-334.89;-245.73;124.00;1.03;-152.55;21.87;-66.11 
6.141;0.32;-1.00;-0.11;-0.28;0.35;0.28;-332.89;-243.82;121.00;1.06;-152.51;21.88;-66.09 
6.171;0.33;-1.00;-0.10;0.00;0.21;0.49;-333.89;-246.69;122.00;1.06;-152.50;21.88;-66.09 
6.202;0.30;-0.98;-0.13;-0.35;-0.14;0.21;-335.89;-243.82;125.00;1.03;-152.48;21.89;-66.08 
6.232;0.32;-1.00;-0.11;-0.07;-0.21;-0.07;-332.89;-247.65;125.00;1.06;-152.46;21.90;-66.06 
6.262;0.30;-0.99;-0.11;-0.35;0.07;-0.21;-333.89;-242.87;123.00;1.04;-152.43;21.91;-66.05 
6.292;0.30;-1.01;-0.09;-0.21;-0.21;-0.35;-336.88;-243.82;126.00;1.06;-152.42;21.91;-66.04 
6.322;0.33;-0.99;-0.10;0.42;0.35;0.00;-331.90;-244.78;123.00;1.05;-152.38;21.92;-66.03 
6.352;0.31;-0.98;-0.14;0.28;0.35;-0.07;-334.89;-244.78;125.00;1.04;-152.36;21.94;-66.01 
6.382;0.33;-1.00;-0.07;0.35;-0.14;-0.14;-331.90;-246.69;125.00;1.06;-152.34;21.95;-66.00 
6.413;0.33;-1.01;-0.10;-0.28;0.28;-0.21;-334.89;-244.78;125.00;1.07;-152.33;21.96;-65.99 
6.443;0.34;-0.99;-0.11;-0.28;0.21;-0.14;-332.89;-248.60;122.00;1.05;-152.28;21.98;-65.96 
6.473;0.32;-0.99;-0.11;-0.07;-0.28;0.14;-330.90;-246.69;124.00;1.05;-152.24;22.00;-65.93 
6.504;0.32;-0.98;-0.10;0.21;0.35;-0.14;-333.89;-246.69;126.00;1.04;-152.21;22.01;-65.91 
6.534;0.30;-0.99;-0.11;0.14;0.28;0.00;-337.88;-247.65;125.00;1.04;-152.18;22.03;-65.90 
6.564;0.30;-0.99;-0.10;-0.07;0.21;-0.28;-334.89;-246.69;125.00;1.04;-152.17;22.02;-65.89 
6.594;0.31;-0.97;-0.12;-0.28;0.21;-0.14;-333.89;-245.73;121.00;1.03;-152.14;22.03;-65.88 
6.625;0.31;-1.01;-0.10;0.28;0.14;-0.14;-331.90;-248.60;124.00;1.06;-152.09;22.08;-65.84 
6.655;0.31;-0.97;-0.14;0.35;0.14;-0.35;-332.89;-243.82;126.00;1.03;-152.07;22.10;-65.82 
6.685;0.32;-1.00;-0.14;0.35;0.63;-0.42;-329.90;-244.78;124.00;1.06;-152.08;22.10;-65.83 
6.716;0.32;-1.00;-0.10;0.21;0.28;-0.42;-334.89;-244.78;124.00;1.05;-152.08;22.12;-65.83 
6.746;0.31;-0.99;-0.11;0.07;-0.14;-0.63;-334.89;-246.69;120.00;1.04;-152.05;22.14;-65.81 
6.776;0.34;-1.02;-0.15;0.00;0.21;-0.35;-331.90;-245.73;126.00;1.09;-152.03;22.15;-65.80 
6.806;0.31;-1.00;-0.10;0.07;-0.14;0.14;-338.88;-245.73;125.00;1.05;-152.03;22.16;-65.80 
6.836;0.33;-0.99;-0.10;-0.07;-0.35;0.42;-330.90;-249.56;124.00;1.05;-152.02;22.16;-65.80 
6.866;0.33;-1.00;-0.12;-0.35;0.07;0.07;-329.90;-245.73;123.00;1.06;-152.02;22.16;-65.81 
6.896;0.34;-0.99;-0.11;-0.21;-0.14;-0.14;-334.89;-244.78;127.00;1.05;-152.01;22.17;-65.80 
6.927;0.33;-0.97;-0.09;-0.07;0.28;-0.21;-331.90;-243.82;122.00;1.03;-152.03;22.17;-65.82 
6.957;0.33;-1.00;-0.10;-0.07;0.42;-0.07;-331.90;-245.73;123.00;1.06;-152.02;22.17;-65.82 
6.987;0.32;-1.02;-0.10;-0.14;0.07;-0.56;-332.89;-246.69;122.00;1.07;-152.00;22.19;-65.80 
7.017;0.31;-0.98;-0.10;0.00;0.00;-0.49;-333.89;-246.69;121.00;1.03;-151.98;22.21;-65.79 
7.047;0.34;-0.99;-0.12;0.21;0.42;-0.35;-335.89;-248.60;125.00;1.05;-151.96;22.23;-65.77 
7.077;0.34;-0.99;-0.10;0.35;0.00;-0.21;-334.89;-246.69;122.00;1.05;-151.93;22.25;-65.75 
7.107;0.33;-0.98;-0.11;0.07;0.14;-0.21;-334.89;-245.73;123.00;1.04;-151.93;22.25;-65.75 
7.138;0.33;-1.00;-0.10;-0.07;0.14;0.07;-335.89;-245.73;125.00;1.06;-151.92;22.26;-65.75 
7.168;0.32;-1.01;-0.11;-0.07;0.28;0.21;-334.89;-247.65;120.00;1.07;-151.93;22.25;-65.76 
7.198;0.32;-0.98;-0.13;-0.28;0.21;0.21;-336.88;-245.73;120.00;1.04;-151.96;22.22;-65.80 
7.229;0.32;-0.99;-0.11;0.07;0.14;-0.07;-332.89;-246.69;123.00;1.05;-151.95;22.21;-65.80 
7.259;0.33;-0.99;-0.11;-0.14;0.21;-0.28;-330.90;-244.78;124.00;1.05;-151.94;22.22;-65.80 
7.289;0.31;-1.01;-0.13;-0.07;0.14;-0.63;-334.89;-247.65;125.00;1.06;-151.93;22.22;-65.79 
7.319;0.34;-0.98;-0.10;0.14;-0.28;-0.42;-334.89;-245.73;122.00;1.04;-151.90;22.24;-65.77 
7.350;0.32;-0.98;-0.10;0.14;0.42;-0.28;-334.89;-247.65;123.00;1.04;-151.90;22.23;-65.78 
7.380;0.32;-1.00;-0.08;0.42;0.07;-0.28;-334.89;-246.69;122.00;1.05;-151.90;22.24;-65.78 
7.410;0.34;-1.01;-0.10;0.56;-0.42;-0.07;-333.89;-248.60;125.00;1.07;-151.89;22.25;-65.78 
7.441;0.34;-0.98;-0.10;0.90;0.07;-0.28;-332.89;-245.73;124.00;1.04;-151.89;22.25;-65.78 
7.471;0.28;-1.02;-0.14;1.32;-0.21;-0.42;-336.88;-247.65;122.00;1.07;-151.90;22.25;-65.80 
7.501;0.32;-0.99;-0.11;1.04;-0.28;-0.42;-335.89;-247.65;122.00;1.05;-151.92;22.24;-65.82 
7.530;0.33;-0.98;-0.10;0.97;0.07;-0.42;-335.89;-247.65;119.00;1.04;-151.92;22.25;-65.83 
7.559;0.32;-1.00;-0.08;0.70;0.28;-0.42;-335.89;-247.65;124.00;1.05;-151.94;22.26;-65.84 
7.589;0.31;-0.98;-0.13;0.00;-0.63;-0.56;-333.89;-248.60;119.00;1.04;-151.95;22.25;-65.85 
7.619;0.34;-0.97;-0.11;0.28;0.00;-0.21;-336.88;-246.69;119.00;1.03;-151.95;22.25;-65.86 
7.650;0.32;-0.99;-0.10;0.42;0.77;-0.21;-335.89;-246.69;121.00;1.05;-151.99;22.25;-65.89 
7.680;0.31;-1.01;-0.09;0.49;-0.14;-0.14;-333.89;-247.65;122.00;1.06;-152.01;22.24;-65.90 
7.710;0.32;-0.99;-0.11;0.28;-0.21;-0.28;-333.89;-248.60;122.00;1.05;-151.99;22.25;-65.90 
7.741;0.33;-1.00;-0.10;0.63;-0.28;-0.49;-332.89;-250.51;122.00;1.06;-151.99;22.25;-65.90 
7.771;0.30;-0.98;-0.10;1.11;0.07;-0.07;-332.89;-247.65;118.00;1.03;-151.98;22.26;-65.90 
7.801;0.34;-1.00;-0.12;0.90;0.56;0.14;-337.88;-250.51;119.00;1.06;-152.01;22.26;-65.92 
7.831;0.34;-0.99;-0.08;0.56;0.42;0.00;-332.89;-249.56;124.00;1.05;-152.03;22.25;-65.94 
7.862;0.32;-1.00;-0.12;0.21;0.00;-0.56;-333.89;-247.65;124.00;1.06;-152.03;22.26;-65.94 
7.892;0.34;-0.98;-0.11;0.14;-0.21;-0.63;-334.89;-246.69;121.00;1.04;-152.02;22.27;-65.93 
7.922;0.32;-0.98;-0.13;0.14;0.28;-0.63;-333.89;-247.65;119.00;1.04;-152.02;22.27;-65.94 
7.953;0.37;-0.99;-0.06;0.49;0.14;-0.49;-334.89;-249.56;123.00;1.06;-152.01;22.28;-65.94 
7.983;0.31;-0.99;-0.13;0.21;0.14;-0.56;-334.89;-249.56;120.00;1.05;-152.01;22.29;-65.93 
8.013;0.34;-1.02;-0.10;0.49;-0.35;-0.77;-335.89;-247.65;120.00;1.08;-152.01;22.29;-65.94 
8.043;0.34;-0.98;-0.11;0.90;-0.21;-1.18;-334.89;-247.65;121.00;1.04;-152.02;22.30;-65.95 
8.073;0.34;-0.98;-0.07;0.90;-0.28;-1.04;-336.88;-248.60;120.00;1.04;-152.02;22.31;-65.95 
8.103;0.34;-0.98;-0.13;0.49;0.14;-0.42;-334.89;-251.47;119.00;1.05;-152.02;22.33;-65.95 
8.133;0.34;-0.98;-0.08;0.14;0.63;-0.21;-335.89;-247.65;120.00;1.04;-152.01;22.35;-65.94 
8.164;0.34;-0.99;-0.10;0.07;0.00;0.00;-335.89;-250.51;119.00;1.05;-152.02;22.35;-65.95 
8.194;0.38;-0.98;-0.06;0.00;-0.14;0.63;-332.89;-250.51;122.00;1.05;-152.05;22.33;-65.98 
8.224;0.33;-0.99;-0.07;-0.07;0.70;0.28;-334.89;-248.60;118.00;1.05;-152.08;22.31;-66.01 
8.254;0.33;-0.98;-0.08;-0.42;-0.42;0.42;-337.88;-250.51;118.00;1.04;-152.10;22.30;-66.03 
8.284;0.33;-1.00;-0.10;-0.70;0.21;0.56;-333.89;-249.56;120.00;1.06;-152.14;22.27;-66.06 
8.314;0.34;-0.98;-0.06;-0.42;-0.14;0.21;-334.89;-247.65;123.00;1.04;-152.16;22.25;-66.08 
8.344;0.33;-0.98;-0.10;-0.14;0.42;-0.21;-334.89;-245.73;119.00;1.04;-152.17;22.24;-66.09 
8.375;0.33;-0.99;-0.09;0.28;0.42;-0.14;-336.88;-250.51;118.00;1.05;-152.17;22.23;-66.10 
8.405;0.34;-1.01;-0.09;-0.07;0.42;0.14;-332.89;-248.60;120.00;1.07;-152.18;22.23;-66.11 
8.435;0.33;-1.01;-0.10;0.28;0.00;-0.07;-336.88;-247.65;119.00;1.07;-152.19;22.24;-66.11 
8.466;0.33;-0.98;-0.13;0.14;0.00;-0.14;-335.89;-248.60;119.00;1.04;-152.23;22.23;-66.14 
8.496;0.33;-1.00;-0.10;0.28;0.21;-0.63;-337.88;-248.60;118.00;1.06;-152.23;22.23;-66.14 
8.526;0.34;-0.98;-0.09;0.07;0.21;-0.35;-336.88;-251.47;119.00;1.04;-152.23;22.24;-66.15 
8.556;0.32;-0.97;-0.06;0.28;0.35;0.07;-335.89;-250.51;119.00;1.02;-152.24;22.23;-66.16 
8.586;0.33;-0.99;-0.10;0.00;-0.07;-0.14;-337.88;-250.51;119.00;1.05;-152.26;22.22;-66.18 
8.616;0.34;-1.00;-0.10;-0.07;0.42;-0.21;-334.89;-250.51;120.00;1.06;-152.28;22.21;-66.20 
8.646;0.34;-1.00;-0.10;0.00;0.49;0.28;-332.89;-245.73;119.00;1.06;-152.28;22.20;-66.20 
8.677;0.32;-0.98;-0.09;0.00;0.07;0.21;-335.89;-247.65;117.00;1.03;-152.29;22.20;-66.21 
8.707;0.35;-1.00;-0.10;-0.14;0.28;-0.21;-334.89;-248.60;121.00;1.06;-152.31;22.18;-66.24 
8.737;0.32;-0.98;-0.10;-0.42;-0.49;-0.14;-334.89;-251.47;120.00;1.04;-152.33;22.17;-66.25 
8.767;0.34;-0.98;-0.10;-0.21;0.07;-0.42;-334.89;-248.60;121.00;1.04;-152.32;22.17;-66.25 
8.797;0.34;-0.98;-0.11;-0.21;0.42;0.07;-338.88;-251.47;119.00;1.04;-152.32;22.17;-66.25 
8.827;0.32;-0.98;-0.10;-0.21;-0.35;0.14;-335.89;-249.56;121.00;1.04;-152.34;22.16;-66.27 
8.857;0.34;-0.99;-0.13;-0.07;0.14;0.21;-334.89;-249.56;119.00;1.05;-152.37;22.15;-66.30 
8.888;0.33;-1.00;-0.10;0.35;0.83;-0.07;-334.89;-249.56;119.00;1.06;-152.40;22.13;-66.32 
8.918;0.34;-0.98;-0.10;-0.07;0.14;0.07;-334.89;-247.65;121.00;1.04;-152.41;22.12;-66.33 
8.948;0.32;-0.99;-0.10;-0.14;0.07;-0.14;-336.88;-252.43;120.00;1.05;-152.40;22.13;-66.32 
8.979;0.32;-0.99;-0.10;-0.21;0.28;-0.35;-333.89;-250.51;122.00;1.05;-152.40;22.13;-66.33 
9.009;0.33;-1.01;-0.09;0.07;-0.49;-0.14;-333.89;-248.60;121.00;1.07;-152.42;22.12;-66.34 
9.039;0.32;-0.98;-0.12;0.28;0.07;0.21;-333.89;-249.56;123.00;1.04;-152.42;22.11;-66.35 
9.069;0.33;-0.98;-0.08;0.00;0.90;0.21;-338.88;-249.56;122.00;1.04;-152.44;22.10;-66.37 
9.100;0.34;-0.98;-0.10;-0.21;-0.28;0.70;-334.89;-251.47;118.00;1.04;-152.48;22.07;-66.41 
9.130;0.33;-0.98;-0.10;-0.28;0.42;0.49;-335.89;-250.51;120.00;1.04;-152.50;22.06;-66.42 
9.160;0.33;-0.98;-0.10;-0.70;0.00;0.49;-334.89;-248.60;117.00;1.04;-152.53;22.03;-66.46 
9.191;0.34;-0.98;-0.09;-0.83;2.02;-0.21;-333.89;-248.60;119.00;1.04;-152.55;22.01;-66.47 
9.221;0.31;-1.00;-0.09;-1.67;2.30;-1.25;-338.88;-249.56;120.00;1.05;-152.58;22.01;-66.48 
9.251;0.30;-0.97;-0.10;-2.71;0.77;-2.30;-333.89;-248.60;121.00;1.02;-152.55;22.04;-66.45 
9.281;0.34;-1.02;-0.10;-3.69;2.30;-3.13;-336.88;-247.65;119.00;1.08;-152.47;22.08;-66.39 
9.311;0.30;-0.99;-0.10;-3.62;2.50;-3.06;-334.89;-248.60;123.00;1.04;-152.37;22.15;-66.30 
9.341;0.31;-1.02;-0.18;0.90;2.16;-3.62;-336.88;-252.43;122.00;1.08;-152.27;22.23;-66.21 
9.371;0.34;-1.01;-0.17;5.84;9.88;-5.43;-336.88;-250.51;119.00;1.08;-152.26;22.34;-66.14 
9.402;0.33;-0.99;-0.05;7.79;9.67;-6.05;-335.89;-254.34;122.00;1.04;-152.33;22.53;-66.08 
9.432;0.32;-0.99;-0.04;7.17;2.50;-8.63;-335.89;-256.25;122.00;1.04;-152.35;22.74;-65.98 
9.462;0.36;-0.99;-0.08;7.30;-1.25;-10.71;-337.88;-256.25;120.00;1.06;-152.22;23.02;-65.80 
9.492;0.37;-0.98;-0.08;9.39;-1.81;-12.31;-339.87;-258.16;115.00;1.05;-152.02;23.34;-65.56 
9.522;0.31;-1.02;-0.11;11.55;-3.27;-15.10;-339.87;-264.86;115.00;1.07;-151.85;23.69;-65.31 
9.551;0.32;-0.96;-0.06;12.31;-10.57;-16.90;-340.87;-264.86;111.00;1.01;-151.60;24.06;-65.02 
9.581;0.42;-0.96;-0.17;16.83;-10.64;-19.20;-343.86;-267.73;109.00;1.06;-151.22;24.51;-64.64 
9.612;0.42;-0.96;-0.13;22.54;0.35;-16.77;-343.86;-273.46;106.00;1.06;-150.89;25.07;-64.20 
9.642;0.36;-0.98;-0.12;28.24;3.69;-17.39;-345.85;-275.37;98.00;1.05;-150.87;25.58;-63.87 
9.672;0.42;-0.99;-0.15;34.23;1.04;-20.24;-347.85;-282.07;91.00;1.09;-150.90;26.13;-63.49 
