Time(s) acc_x(g) acc_y(g) acc_z(g) gyr_x(°/s) gyr_y(°/s) gyr_z(°/s) mag_x(G) mag_y(G) mag_z(G) SVM(g) yaw(°) pitch(°) roll(°)
0.000;-0.54;0.38;0.74;-4.80;-4.31;-2.57;162.60;23.83;-180.00;0.99;-110.54;-24.87;15.77 
0.030;-0.52;0.40;0.67;-4.24;-6.47;-2.43;161.60;23.83;-185.00;0.94;-110.47;-24.71;15.74 
0.060;-0.46;0.32;0.67;-3.41;-3.34;-5.01;163.60;24.78;-185.00;0.87;-110.42;-24.62;15.71 
0.090;-0.53;0.36;0.65;-5.22;-0.07;-9.18;156.61;20.97;-190.00;0.91;-110.19;-24.64;15.57 
0.119;-0.51;0.31;0.69;-3.62;5.15;-8.00;153.62;20.97;-184.00;0.91;-109.99;-24.82;15.44 
0.148;-0.53;0.31;0.71;-4.59;0.00;-8.83;150.63;24.78;-187.00;0.94;-109.76;-25.00;15.28 
0.178;-0.49;0.29;0.70;-4.17;3.69;-9.04;151.62;23.83;-188.00;0.90;-109.52;-25.10;15.09 
0.208;-0.50;0.25;0.72;-4.66;7.30;-7.30;148.63;25.73;-186.00;0.91;-109.33;-25.30;14.90 
0.238;-0.52;0.25;0.73;-7.23;8.70;-12.17;143.64;24.78;-181.00;0.93;-109.06;-25.58;14.63 
0.268;-0.50;0.22;0.79;-5.84;9.67;-8.49;142.65;25.73;-187.00;0.96;-108.77;-25.92;14.30 
0.299;-0.49;0.26;0.78;-5.77;2.78;-4.38;139.65;26.69;-182.00;0.96;-108.58;-26.15;14.05 
0.329;-0.51;0.22;0.77;-8.07;-6.40;-1.53;137.66;25.73;-181.00;0.95;-108.50;-26.06;13.81 
0.359;-0.50;0.18;0.73;-7.72;-6.40;-0.63;137.66;26.69;-181.00;0.90;-108.42;-25.84;13.52 
0.390;-0.52;0.20;0.70;-6.47;-0.28;-1.60;134.67;27.64;-186.00;0.89;-108.34;-25.76;13.25 
0.419;-0.50;0.22;0.70;-6.75;2.78;-0.28;134.67;26.69;-181.00;0.89;-108.31;-25.80;13.04 
0.449;-0.51;0.21;0.70;-7.23;4.38;1.18;134.67;27.64;-187.00;0.89;-108.34;-25.90;12.86 
0.479;-0.51;0.16;0.70;-8.21;2.23;1.11;134.67;28.59;-184.00;0.88;-108.39;-26.01;12.67 
0.509;-0.53;0.23;0.70;-8.35;2.71;1.95;134.67;25.73;-182.00;0.91;-108.43;-26.05;12.44 
0.539;-0.53;0.22;0.73;-6.75;0.83;4.24;131.67;29.55;-180.00;0.93;-108.53;-26.06;12.28 
0.569;-0.51;0.18;0.70;-6.54;0.21;4.38;131.67;28.59;-183.00;0.88;-108.68;-26.04;12.18 
0.600;-0.53;0.18;0.73;-5.15;2.92;2.92;133.67;26.69;-184.00;0.92;-108.79;-26.08;12.07 
0.630;-0.54;0.19;0.74;-3.69;1.39;0.97;134.67;29.55;-182.00;0.94;-108.85;-26.16;11.94 
0.659;-0.56;0.18;0.73;-1.46;0.14;-0.70;131.67;28.59;-182.00;0.94;-108.83;-26.19;11.83 
0.689;-0.54;0.23;0.67;0.00;3.41;-1.18;133.67;28.59;-185.00;0.89;-108.80;-26.27;11.78 
0.719;-0.54;0.22;0.72;0.70;1.67;-0.35;130.68;29.55;-185.00;0.93;-108.80;-26.39;11.81 
0.749;-0.55;0.19;0.70;0.77;-0.14;-0.28;134.67;28.59;-182.00;0.91;-108.80;-26.42;11.83 
0.779;-0.54;0.19;0.73;0.77;-0.14;-1.04;133.67;26.69;-184.00;0.93;-108.77;-26.46;11.81 
0.810;-0.53;0.22;0.74;2.02;1.11;-0.83;131.67;29.55;-182.00;0.94;-108.74;-26.50;11.82 
0.840;-0.51;0.20;0.66;2.92;2.02;0.07;134.67;26.69;-182.00;0.86;-108.74;-26.59;11.88 
0.870;-0.54;0.20;0.67;2.99;4.80;-0.70;132.67;28.59;-180.00;0.88;-108.75;-26.69;11.95 
0.900;-0.56;0.21;0.74;3.48;3.76;-0.28;134.67;31.45;-180.00;0.95;-108.76;-26.87;12.02 
0.929;-0.53;0.20;0.72;3.06;-0.28;0.70;134.67;27.64;-181.00;0.92;-108.78;-26.90;12.11 
0.959;-0.55;0.20;0.71;4.59;5.91;1.25;132.67;29.55;-182.00;0.92;-108.83;-27.02;12.23 
0.989;-0.52;0.25;0.71;5.01;5.29;2.02;136.66;30.50;-178.00;0.91;-108.90;-27.20;12.39 
1.019;-0.54;0.22;0.70;3.97;3.83;3.41;133.67;32.40;-178.00;0.91;-109.03;-27.30;12.55 
1.049;-0.52;0.21;0.74;4.94;6.54;2.71;142.65;30.50;-181.00;0.93;-109.13;-27.43;12.69 
1.079;-0.55;0.23;0.72;5.08;1.04;4.03;140.65;30.50;-178.00;0.93;-109.24;-27.55;12.85 
1.110;-0.53;0.20;0.66;3.83;0.42;2.71;139.65;28.59;-177.00;0.87;-109.36;-27.54;13.02 
1.140;-0.56;0.21;0.68;4.94;8.35;1.81;140.65;31.45;-177.00;0.91;-109.44;-27.69;13.16 
1.170;-0.59;0.21;0.72;4.80;5.91;3.13;142.65;32.40;-178.00;0.95;-109.53;-27.93;13.34 
1.200;-0.54;0.24;0.70;4.38;0.49;6.61;143.64;30.50;-176.00;0.92;-109.70;-27.97;13.53 
1.229;-0.57;0.24;0.68;3.83;3.83;7.30;149.63;32.40;-176.00;0.92;-109.92;-27.99;13.74 
1.258;-0.58;0.26;0.76;2.16;2.50;8.56;149.63;31.45;-178.00;0.99;-110.16;-28.05;13.93 
1.288;-0.53;0.24;0.73;0.56;-3.69;9.25;150.63;33.36;-175.00;0.93;-110.44;-27.99;14.10 
1.318;-0.53;0.22;0.66;1.74;-7.17;10.50;153.62;27.64;-175.00;0.87;-110.74;-27.75;14.27 
1.348;-0.54;0.25;0.64;2.85;3.55;5.70;154.62;26.69;-178.00;0.87;-111.00;-27.63;14.46 
1.378;-0.55;0.26;0.71;4.94;10.37;4.80;153.62;25.73;-179.00;0.93;-111.19;-27.85;14.65 
1.409;-0.58;0.36;0.75;3.69;-0.83;7.23;160.60;29.55;-177.00;1.01;-111.41;-27.99;14.90 
1.439;-0.54;0.33;0.69;0.83;-5.91;8.21;158.61;25.73;-176.00;0.94;-111.69;-27.81;15.16 
1.469;-0.51;0.33;0.62;-0.49;0.49;7.17;162.60;27.64;-179.00;0.87;-111.95;-27.67;15.37 
1.499;-0.54;0.40;0.71;-0.90;7.72;8.56;163.60;26.69;-175.00;0.98;-112.24;-27.77;15.56 
1.529;-0.55;0.45;0.71;-1.53;2.30;13.70;166.59;28.59;-176.00;1.00;-112.65;-27.84;15.81 
1.559;-0.51;0.38;0.68;-2.30;0.42;15.86;166.59;26.69;-176.00;0.93;-113.17;-27.74;16.12 
1.589;-0.50;0.35;0.67;-4.03;2.78;13.70;168.58;27.64;-176.00;0.91;-113.68;-27.63;16.36 
1.620;-0.49;0.35;0.67;-3.06;4.80;10.57;173.57;27.64;-176.00;0.90;-114.11;-27.63;16.53 
1.650;-0.49;0.37;0.72;-2.23;0.77;7.17;173.57;26.69;-174.00;0.95;-114.44;-27.64;16.69 
1.680;-0.49;0.38;0.66;-2.71;-0.97;4.73;176.56;26.69;-175.00;0.91;-114.66;-27.59;16.82 
1.710;-0.51;0.39;0.66;-1.67;2.99;0.97;176.56;25.73;-178.00;0.92;-114.81;-27.62;16.94 
1.739;-0.48;0.38;0.74;-1.39;3.97;-2.37;176.56;27.64;-175.00;0.96;-114.85;-27.76;17.00 
1.769;-0.50;0.38;0.69;-0.63;-0.28;-4.38;179.56;24.78;-176.00;0.93;-114.81;-27.87;17.05 
1.799;-0.51;0.38;0.65;0.21;-2.85;-7.93;176.56;29.55;-177.00;0.91;-114.68;-27.89;17.04 
1.829;-0.50;0.37;0.68;1.25;-2.43;-11.62;174.57;27.64;-175.00;0.92;-114.43;-27.92;17.03 
1.859;-0.50;0.39;0.71;1.95;-1.11;-15.10;169.58;28.59;-177.00;0.95;-114.10;-28.01;17.00 
1.889;-0.53;0.39;0.68;1.81;-0.70;-17.74;167.59;25.73;-179.00;0.95;-113.69;-28.16;16.94 
1.920;-0.52;0.42;0.67;0.90;-3.69;-18.30;165.59;25.73;-177.00;0.95;-113.21;-28.30;16.83 
1.950;-0.54;0.41;0.70;0.14;-8.49;-17.95;162.60;26.69;-177.00;0.97;-112.73;-28.29;16.69 
1.980;-0.53;0.44;0.66;0.00;-7.51;-20.66;156.61;24.78;-181.00;0.95;-112.21;-28.22;16.51 
2.011;-0.56;0.35;0.66;0.42;-2.43;-22.12;152.62;26.69;-179.00;0.93;-111.59;-28.31;16.25 
2.041;-0.57;0.32;0.69;1.88;-5.22;-24.35;144.64;26.69;-178.00;0.95;-110.94;-28.43;15.98 
2.071;-0.54;0.32;0.69;1.95;-10.92;-24.56;140.65;27.64;-180.00;0.93;-110.25;-28.42;15.71 
2.101;-0.53;0.30;0.63;3.34;-5.77;-26.30;135.66;24.78;-185.00;0.88;-109.53;-28.38;15.42 
2.132;-0.54;0.26;0.67;2.64;-4.17;-28.52;129.68;23.83;-185.00;0.90;-108.71;-28.50;15.09 
2.162;-0.54;0.26;0.69;1.81;-8.00;-29.84;121.70;24.78;-184.00;0.91;-107.85;-28.57;14.69 
2.192;-0.56;0.27;0.71;1.74;-11.90;-29.22;120.70;25.73;-184.00;0.94;-106.98;-28.47;14.29 
2.223;-0.52;0.22;0.69;0.28;-12.59;-27.27;115.71;24.78;-187.00;0.89;-106.12;-28.30;13.85 
2.253;-0.46;0.24;0.67;-2.02;-15.23;-30.26;108.73;21.92;-189.00;0.85;-105.23;-27.99;13.35 
2.283;-0.46;0.22;0.70;-1.32;-4.31;-30.96;99.75;20.01;-191.00;0.87;-104.32;-27.80;12.81 
2.313;-0.53;0.25;0.74;-1.32;-0.63;-31.17;96.76;21.92;-193.00;0.94;-103.43;-27.84;12.29 
2.343;-0.60;0.26;0.84;-6.96;-12.59;-26.50;85.79;20.97;-191.00;1.06;-102.56;-27.78;11.70 
2.373;-0.58;0.22;0.77;-11.76;-30.12;-26.30;81.80;20.01;-196.00;0.99;-101.74;-27.26;11.04 
2.403;-0.46;0.20;0.62;-13.29;-45.98;-22.68;73.82;15.25;-202.00;0.80;-100.94;-26.18;10.28 
2.434;-0.44;0.22;0.51;-11.69;-34.43;-30.96;70.82;11.44;-204.00;0.71;-100.02;-24.95;9.48 
2.464;-0.60;0.20;0.58;-11.69;-14.26;-31.30;58.85;2.86;-211.00;0.86;-99.10;-24.42;8.70 
2.494;-0.54;0.14;0.63;-13.98;-25.74;-31.93;48.88;-2.86;-216.00;0.84;-98.12;-24.02;7.78 
2.524;-0.33;0.25;0.52;-13.57;-39.72;-33.74;43.89;-9.53;-218.00;0.66;-97.14;-23.10;6.91 
2.553;-0.38;0.31;0.42;-16.63;-27.62;-25.95;35.91;-14.30;-224.00;0.65;-96.20;-21.90;6.12 
2.582;-0.51;0.13;0.50;-10.50;-17.67;-18.02;30.92;-24.78;-226.00;0.73;-95.65;-21.27;5.43 
2.612;-0.25;0.11;0.45;-7.17;-15.10;-23.86;22.94;-26.69;-226.00;0.53;-95.04;-20.79;4.79 
2.641;-0.26;0.14;0.49;-0.07;-4.87;-14.75;17.96;-32.40;-228.00;0.57;-94.57;-20.22;4.34 
2.671;-0.46;0.13;0.47;0.00;6.19;-12.45;16.96;-36.22;-225.00;0.67;-94.27;-20.07;4.03 
2.701;-0.23;0.22;0.57;-7.17;22.26;-23.44;12.97;-40.03;-223.00;0.65;-93.87;-20.30;3.61 
2.732;-0.21;0.18;0.74;-3.27;19.27;-23.79;8.98;-40.03;-216.00;0.79;-93.38;-20.72;3.03 
2.762;-0.30;0.26;0.72;-8.77;-26.92;-12.80;4.99;-45.75;-213.00;0.82;-92.84;-20.25;2.49 
2.792;-0.32;0.00;0.50;-35.06;-40.70;-4.73;-1.00;-53.37;-216.00;0.59;-92.81;-18.90;1.58 
2.821;-0.18;0.03;0.46;-33.32;-10.09;-27.76;-5.99;-58.14;-218.00;0.49;-92.48;-17.79;0.02 
2.850;-0.30;0.31;0.57;-29.43;-10.37;-40.70;-21.95;-69.58;-215.00;0.71;-91.65;-17.29;-1.40 
2.879;-0.30;0.31;0.51;-27.20;-35.48;-19.55;-24.94;-81.01;-216.00;0.67;-91.02;-16.36;-2.48 
2.908;-0.15;-0.04;0.40;-30.89;-19.97;-23.79;-24.94;-89.59;-219.00;0.43;-90.83;-15.21;-3.64 
2.938;-0.14;0.34;0.60;-47.65;-10.43;-57.18;-29.93;-98.17;-212.00;0.70;-89.79;-14.21;-5.37 
2.968;-0.28;0.40;0.60;-57.88;-59.13;-13.08;-38.90;-101.98;-215.00;0.77;-89.07;-12.67;-7.05 
2.998;-0.13;-0.18;0.48;-89.74;-51.41;7.65;-46.88;-104.84;-217.00;0.53;-89.63;-10.47;-9.22 
3.029;-0.06;-0.22;0.62;-97.53;-59.41;-29.50;-62.84;-110.56;-218.00;0.66;-89.89;-8.43;-12.86 
3.059;-0.17;0.34;0.90;-105.04;-40.97;-30.54;-84.79;-112.46;-216.00;0.98;-89.25;-6.04;-16.30 
3.089;-0.51;-0.14;1.02;-96.49;-80.49;-8.83;-106.74;-115.32;-211.00;1.15;-89.31;-4.49;-19.30 
3.120;-0.10;-0.46;1.06;-162.99;-72.00;-31.79;-133.67;-136.29;-209.00;1.16;-90.85;-0.83;-24.07 
3.150;-0.02;-0.77;2.05;-116.10;-159.44;-97.32;-158.61;-169.65;-194.00;2.19;-90.51;3.10;-28.99 
3.180;-0.38;-1.14;1.15;-99.69;-271.72;-105.88;-189.53;-211.59;-195.00;1.66;-92.18;10.66;-31.90 
3.210;0.42;-3.00;1.72;-136.90;-112.49;-168.77;-223.45;-252.57;-194.00;3.48;-92.19;17.61;-34.73 
3.241;0.74;-3.83;4.30;-122.85;-18.50;62.68;-288.29;-271.63;-176.00;5.81;-95.79;20.66;-40.75 
3.271;0.27;-0.56;0.93;-205.84;-272.56;-122.23;-312.23;-303.08;-152.00;1.12;-99.51;29.07;-42.53 
3.300;-0.59;0.88;0.31;-323.76;-255.44;-93.29;-331.18;-330.72;-108.00;1.10;-107.39;35.39;-45.51 
3.331;0.35;-0.74;0.15;-151.51;-101.77;-17.46;-350.13;-353.60;-54.00;0.83;-116.00;40.09;-46.68 
3.361;0.70;-1.28;0.02;-180.66;-128.35;-26.02;-364.10;-348.83;-14.00;1.46;-126.23;40.10;-48.95 
3.391;0.68;-0.53;-0.42;-169.11;-215.51;-64.07;-368.09;-366.94;24.00;0.96;-138.45;42.65;-47.35 
3.421;0.94;-0.48;-0.68;-135.03;-148.38;33.18;-365.10;-365.99;58.00;1.26;-151.05;42.63;-46.25 
3.451;1.06;-1.13;-0.62;-97.04;-126.12;52.59;-369.09;-357.41;83.00;1.67;-160.95;40.46;-46.23 
3.481;0.77;-1.38;-0.77;-34.99;-126.89;41.39;-369.09;-341.20;103.00;1.76;-167.26;37.49;-46.90 
3.510;0.54;-1.24;-0.92;-20.10;-66.71;-34.43;-370.08;-338.35;104.00;1.64;-169.71;35.60;-46.94 
3.541;0.42;-0.52;-0.55;-63.30;54.05;-104.56;-363.10;-341.20;105.00;0.87;-169.78;37.17;-44.50 
3.571;0.42;0.01;-0.18;-57.81;15.79;-72.77;-355.12;-373.61;119.00;0.46;-169.07;40.74;-40.55 
3.601;0.46;-0.43;-0.38;-28.24;-71.44;-18.16;-352.13;-383.14;132.00;0.74;-169.67;41.54;-38.56 
3.632;0.41;-0.99;-0.74;-15.03;-71.10;-40.07;-349.14;-389.81;138.00;1.30;-170.45;40.42;-37.82 
3.662;0.26;-0.69;-0.82;-27.48;-9.39;-86.19;-343.15;-397.44;144.00;1.10;-169.94;40.85;-35.92 
3.692;0.45;-0.63;-0.75;-13.57;-0.63;-56.97;-338.16;-414.59;149.00;1.08;-169.06;41.94;-33.93 
3.722;0.57;-0.79;-0.63;-3.48;-5.70;-61.57;-338.16;-424.12;146.00;1.16;-167.92;42.84;-32.68 
3.751;0.66;-0.50;-0.79;-23.79;-21.08;-70.12;-332.18;-445.09;153.00;1.14;-166.77;43.62;-31.09 
3.781;0.79;-0.17;-0.88;-3.97;16.83;-35.83;-325.20;-451.76;155.00;1.19;-165.91;44.46;-29.30 
3.811;0.72;-0.41;-0.51;7.93;64.07;-11.97;-323.20;-460.34;151.00;0.97;-164.99;45.74;-28.72 
3.842;0.82;-0.50;-0.50;18.30;27.20;-7.10;-323.20;-462.25;150.00;1.08;-163.96;46.75;-28.88 
3.872;0.94;-0.46;-0.52;21.84;40.49;-6.33;-326.19;-467.97;140.00;1.17;-162.86;47.52;-29.06 
3.902;0.89;-0.38;-0.46;31.72;40.49;4.66;-328.19;-470.82;139.00;1.07;-161.53;48.33;-29.48 
3.932;0.99;-0.43;-0.50;39.58;33.04;21.84;-330.18;-470.82;124.00;1.19;-160.30;48.74;-30.29 
3.962;0.93;-0.51;-0.38;45.22;46.61;38.12;-337.17;-466.06;117.00;1.13;-159.21;48.73;-31.80 
3.992;0.89;-0.51;-0.26;48.07;34.37;47.58;-345.15;-458.43;100.00;1.06;-158.22;48.41;-33.54 
4.022;0.82;-0.54;-0.30;45.98;31.72;38.82;-347.14;-447.00;94.00;1.03;-157.30;47.76;-35.46 
4.053;0.82;-0.54;-0.27;40.77;41.18;44.87;-351.13;-436.51;87.00;1.02;-156.25;47.20;-37.15 
4.083;0.85;-0.61;-0.21;41.74;48.07;44.87;-354.12;-432.70;71.00;1.07;-155.25;46.49;-39.01 
4.113;0.75;-0.63;-0.15;48.97;33.25;38.89;-357.12;-419.36;57.00;0.99;-153.89;45.86;-40.63 
4.144;0.74;-0.69;-0.20;50.50;25.25;49.18;-363.10;-408.87;45.00;1.03;-152.56;44.85;-42.50 
4.174;0.69;-0.70;-0.30;61.50;30.68;45.77;-365.10;-400.30;35.00;1.03;-151.76;43.52;-44.44 
4.204;0.78;-0.93;-0.34;72.70;66.02;56.21;-364.10;-391.72;22.00;1.26;-150.11;42.34;-46.36 
4.233;0.73;-0.74;-0.23;85.15;96.77;62.68;-366.09;-373.61;-5.00;1.06;-147.55;40.98;-48.45 
4.263;0.73;-0.62;0.00;103.30;136.07;93.22;-366.09;-353.60;-23.00;0.96;-143.56;39.00;-50.96 
4.293;0.34;-0.62;0.45;109.98;123.90;100.17;-359.11;-334.53;-43.00;0.84;-138.09;36.02;-53.73 
4.323;0.26;-0.67;0.74;86.75;71.79;98.99;-353.13;-305.94;-68.00;1.03;-133.58;32.59;-56.11 
4.354;0.25;-0.82;0.78;52.10;6.12;103.23;-345.15;-276.40;-85.00;1.16;-132.16;29.20;-58.28 
4.384;0.10;-1.03;0.59;21.77;-29.63;117.84;-340.16;-258.29;-94.00;1.19;-134.66;25.71;-61.06 
4.414;0.22;-0.99;0.39;15.65;-20.80;84.45;-333.18;-241.13;-101.00;1.09;-138.35;22.84;-63.65 
4.444;0.48;-0.86;0.29;27.76;22.61;79.79;-326.19;-230.65;-107.00;1.03;-140.83;20.57;-65.58 
4.474;0.01;-0.95;0.67;18.09;34.78;94.19;-316.22;-201.10;-110.00;1.16;-142.12;17.53;-67.58 
4.504;-0.21;-1.05;0.70;-11.41;-3.62;66.64;-310.23;-185.85;-111.00;1.28;-144.09;14.74;-69.43 
4.534;-0.09;-0.92;0.28;-17.53;-29.15;22.47;-305.24;-179.18;-114.00;0.97;-146.71;13.41;-70.85 
4.565;0.19;-1.00;0.22;-13.01;16.14;19.20;-305.24;-180.13;-112.00;1.04;-148.41;12.83;-71.76 
4.595;0.06;-0.99;0.38;-18.92;17.88;5.77;-306.24;-174.41;-106.00;1.06;-149.21;12.26;-72.47 
4.624;0.09;-1.03;0.31;-19.06;0.70;7.37;-306.24;-171.56;-102.00;1.08;-150.07;12.02;-73.05 
4.654;-0.02;-1.11;0.26;-19.90;7.58;-0.56;-309.23;-168.70;-101.00;1.14;-151.25;11.76;-73.71 
4.684;0.05;-1.04;0.26;-18.09;9.95;-18.78;-310.23;-168.70;-96.00;1.07;-151.77;12.09;-73.95 
4.714;0.16;-0.93;0.21;-13.36;1.18;-21.50;-312.23;-171.56;-87.00;0.97;-151.94;12.66;-73.86 
4.744;0.15;-0.96;0.21;-7.30;1.60;-19.20;-314.22;-179.18;-84.00;0.99;-151.97;13.33;-73.59 
4.774;0.12;-0.98;0.26;-3.83;0.49;-24.83;-318.21;-182.04;-84.00;1.02;-151.75;13.97;-73.21 
4.804;0.22;-0.97;0.23;0.56;-4.94;-24.90;-321.20;-184.90;-85.00;1.02;-151.36;14.72;-72.67 
4.834;0.26;-0.94;0.22;5.63;-3.62;-21.91;-325.20;-188.71;-85.00;1.00;-150.81;15.52;-72.01 
4.865;0.25;-0.94;0.18;10.37;-4.66;-19.06;-323.20;-197.29;-87.00;0.99;-150.13;16.21;-71.36 
4.895;0.22;-0.93;0.26;13.29;-5.43;-18.78;-325.20;-198.24;-92.00;0.99;-149.35;16.83;-70.70 
4.925;0.22;-0.93;0.27;13.84;-2.78;-20.87;-323.20;-204.91;-92.00;0.99;-148.55;17.41;-70.05 
4.955;0.22;-0.91;0.28;11.20;-1.46;-23.93;-324.20;-205.87;-96.00;0.98;-147.63;18.08;-69.32 
4.985;0.26;-0.91;0.26;9.95;-0.90;-25.18;-325.20;-217.30;-97.00;0.98;-146.64;18.85;-68.50 
5.015;0.26;-0.90;0.31;9.74;-2.09;-26.57;-325.20;-220.16;-103.00;0.99;-145.65;19.66;-67.67 
5.045;0.28;-0.90;0.32;8.28;-2.99;-26.23;-328.19;-225.88;-101.00;1.00;-144.70;20.44;-66.86 
5.076;0.31;-0.84;0.30;5.91;-2.85;-26.23;-332.18;-228.74;-103.00;0.94;-143.77;21.30;-66.01 
5.106;0.33;-0.83;0.31;2.64;-3.34;-23.72;-329.19;-235.41;-107.00;0.95;-142.97;22.13;-65.22 
5.136;0.34;-0.82;0.29;0.14;-3.83;-21.84;-333.18;-241.13;-100.00;0.93;-142.36;22.91;-64.52 
5.167;0.36;-0.86;0.30;-1.18;-3.97;-19.34;-334.17;-245.90;-104.00;0.98;-141.88;23.59;-63.93 
5.197;0.38;-0.86;0.26;-2.23;-1.67;-18.09;-332.18;-250.66;-104.00;0.98;-141.51;24.23;-63.40 
5.227;0.42;-0.84;0.26;-2.16;-0.35;-13.70;-335.17;-253.52;-103.00;0.97;-141.16;24.78;-62.93 
5.256;0.35;-0.86;0.30;-1.95;-2.23;-9.95;-334.17;-258.29;-103.00;0.98;-140.98;25.17;-62.61 
5.285;0.41;-0.85;0.25;-0.90;-1.11;-9.81;-334.17;-260.19;-104.00;0.98;-140.86;25.50;-62.35 
5.314;0.38;-0.84;0.26;-0.42;0.56;-6.75;-337.17;-259.24;-103.00;0.96;-140.69;25.78;-62.10 
5.344;0.41;-0.85;0.31;0.28;0.63;-4.80;-338.16;-258.29;-102.00;0.99;-140.54;26.00;-61.91 
5.373;0.41;-0.82;0.28;0.42;0.70;-2.50;-334.17;-264.00;-105.00;0.96;-140.43;26.16;-61.76 
5.402;0.41;-0.83;0.27;-0.07;0.83;0.21;-335.17;-261.15;-102.00;0.96;-140.39;26.22;-61.71 
5.432;0.38;-0.85;0.28;-0.70;0.63;1.81;-337.17;-261.15;-102.00;0.97;-140.48;26.21;-61.73 
5.462;0.40;-0.86;0.28;-0.56;1.74;3.06;-335.17;-260.19;-107.00;0.99;-140.60;26.16;-61.79 
5.491;0.38;-0.86;0.28;-0.07;2.78;2.99;-337.17;-260.19;-103.00;0.98;-140.72;26.05;-61.89 
5.520;0.38;-0.88;0.31;-0.35;1.88;3.55;-335.17;-260.19;-104.00;1.01;-140.81;25.94;-61.99 
5.551;0.36;-0.88;0.30;-0.83;1.11;3.20;-336.17;-259.24;-105.00;1.00;-140.97;25.83;-62.10 
5.580;0.36;-0.86;0.30;-0.56;1.88;2.64;-335.17;-257.33;-103.00;0.98;-141.14;25.73;-62.21 
5.610;0.37;-0.89;0.30;-0.35;3.06;1.46;-338.16;-259.24;-103.00;1.01;-141.27;25.65;-62.30 
5.639;0.34;-0.86;0.30;-0.63;2.30;0.90;-337.17;-259.24;-103.00;0.97;-141.34;25.58;-62.37 
5.668;0.38;-0.90;0.30;-0.83;0.90;0.49;-332.18;-255.43;-103.00;1.02;-141.43;25.53;-62.42 
5.698;0.37;-0.87;0.27;-0.56;0.63;-0.49;-338.16;-253.52;-104.00;0.98;-141.50;25.52;-62.44 
5.727;0.36;-0.86;0.24;0.07;1.18;-0.70;-335.17;-255.43;-100.00;0.96;-141.50;25.54;-62.42 
5.756;0.42;-0.88;0.34;-0.14;1.53;-1.18;-334.17;-258.29;-105.00;1.03;-141.49;25.58;-62.39 
5.786;0.37;-0.87;0.31;-0.49;0.90;-0.63;-336.17;-261.15;-104.00;0.99;-141.48;25.60;-62.37 
5.816;0.37;-0.86;0.29;-0.21;-0.21;-1.39;-335.17;-256.38;-101.00;0.98;-141.52;25.64;-62.35 
5.847;0.37;-0.87;0.29;0.14;0.77;-1.46;-334.17;-258.29;-103.00;0.99;-141.54;25.69;-62.31 
5.877;0.38;-0.86;0.31;-0.21;1.39;-2.23;-337.17;-260.19;-102.00;0.99;-141.55;25.73;-62.28 
5.907;0.36;-0.86;0.28;-0.70;0.49;-1.67;-337.17;-263.05;-101.00;0.97;-141.54;25.78;-62.24 
5.937;0.37;-0.86;0.27;-0.90;0.28;-0.70;-337.17;-260.19;-104.00;0.97;-141.60;25.83;-62.22 
5.967;0.38;-0.88;0.26;-0.42;1.32;-1.39;-336.17;-257.33;-100.00;0.99;-141.61;25.86;-62.19 
5.997;0.38;-0.86;0.27;-0.14;1.88;-1.25;-335.17;-259.24;-103.00;0.98;-141.64;25.89;-62.18 
6.027;0.38;-0.86;0.30;0.14;1.04;-0.63;-337.17;-259.24;-105.00;0.99;-141.64;25.92;-62.15 
6.057;0.42;-0.87;0.29;-0.35;0.90;-0.21;-339.16;-262.10;-103.00;1.01;-141.66;25.94;-62.13 
6.086;0.38;-0.88;0.30;-0.49;1.04;-0.42;-336.17;-262.10;-101.00;1.00;-141.69;25.96;-62.12 
6.115;0.38;-0.86;0.30;-0.42;1.25;-0.21;-337.17;-259.24;-108.00;0.99;-141.70;25.97;-62.11 
6.145;0.38;-0.86;0.30;-0.56;1.18;0.28;-333.18;-260.19;-101.00;0.99;-141.74;25.96;-62.12 
6.175;0.38;-0.84;0.27;-0.63;1.04;-0.28;-338.16;-258.29;-102.00;0.96;-141.77;25.97;-62.12 
6.205;0.40;-0.86;0.31;-0.63;0.70;-0.28;-335.17;-261.15;-104.00;1.00;-141.81;25.97;-62.13 
6.235;0.37;-0.87;0.26;-0.49;1.32;-0.07;-336.17;-259.24;-105.00;0.98;-141.87;25.97;-62.13 
6.265;0.38;-0.90;0.28;-0.49;1.95;-0.49;-334.17;-262.10;-102.00;1.02;-141.86;25.98;-62.12 
6.295;0.38;-0.86;0.30;-0.63;0.83;-0.28;-337.17;-261.15;-106.00;0.99;-141.87;26.00;-62.11 
6.325;0.42;-0.87;0.30;-0.49;0.70;-0.35;-339.16;-260.19;-104.00;1.01;-141.95;25.98;-62.13 
6.354;0.38;-0.87;0.29;-0.63;1.39;-0.63;-337.17;-260.19;-101.00;0.99;-141.97;26.00;-62.12 
6.384;0.37;-0.89;0.27;-0.21;1.04;-0.70;-335.17;-258.29;-102.00;1.00;-141.97;26.01;-62.11 
6.414;0.38;-0.86;0.28;-0.56;0.70;-0.14;-337.17;-258.29;-105.00;0.98;-141.98;26.01;-62.11 
6.445;0.39;-0.86;0.28;-0.63;0.97;-0.56;-335.17;-261.15;-102.00;0.98;-142.04;26.01;-62.12 
6.474;0.36;-0.84;0.27;-0.21;1.32;-0.56;-338.16;-262.10;-102.00;0.95;-142.04;26.02;-62.10 
6.504;0.38;-0.86;0.25;-0.35;1.04;-0.35;-340.16;-259.24;-101.00;0.97;-142.05;26.04;-62.09 
6.534;0.39;-0.85;0.28;-0.42;0.63;-0.35;-340.16;-258.29;-103.00;0.98;-142.05;26.05;-62.07 
6.563;0.38;-0.88;0.30;-0.28;1.18;-0.28;-336.17;-259.24;-101.00;1.00;-142.08;26.06;-62.07 
6.593;0.38;-0.88;0.30;-0.14;0.97;-0.49;-337.17;-259.24;-101.00;1.00;-142.08;26.07;-62.05 
6.622;0.38;-0.86;0.31;-0.14;0.77;-0.28;-335.17;-258.29;-103.00;0.99;-142.11;26.08;-62.05 
6.651;0.37;-0.86;0.30;-0.56;0.56;-0.14;-336.17;-259.24;-103.00;0.98;-142.11;26.07;-62.05 
6.680;0.37;-0.86;0.29;-0.42;0.90;-0.70;-338.16;-262.10;-105.00;0.98;-142.12;26.09;-62.04 
6.709;0.37;-0.86;0.30;-0.21;0.77;-0.35;-335.17;-261.15;-104.00;0.98;-142.11;26.10;-62.01 
6.738;0.39;-0.88;0.30;-0.49;0.83;-0.49;-336.17;-259.24;-103.00;1.01;-142.13;26.10;-62.01 
6.767;0.39;-0.86;0.28;-0.42;1.04;-0.28;-336.17;-257.33;-103.00;0.98;-142.14;26.12;-62.00 
6.797;0.38;-0.86;0.28;-0.83;-0.35;-0.21;-339.16;-260.19;-103.00;0.98;-142.19;26.13;-62.00 
6.828;0.37;-0.86;0.28;-0.63;0.49;0.35;-336.17;-260.19;-102.00;0.98;-142.26;26.11;-62.02 
6.857;0.40;-0.87;0.26;-0.14;2.02;0.21;-336.17;-260.19;-103.00;0.99;-142.28;26.10;-62.03 
6.886;0.38;-0.84;0.28;-0.14;0.83;-0.49;-337.17;-259.24;-102.00;0.96;-142.31;26.08;-62.05 
6.916;0.37;-0.86;0.28;-0.28;0.07;0.28;-334.17;-259.24;-101.00;0.98;-142.33;26.06;-62.06 
6.945;0.38;-0.86;0.27;-0.56;0.63;0.00;-335.17;-261.15;-103.00;0.98;-142.37;26.07;-62.06 
6.975;0.39;-0.87;0.30;-0.28;1.11;-0.28;-338.16;-261.15;-102.00;1.00;-142.41;26.05;-62.07 
7.004;0.38;-0.86;0.29;-0.56;0.35;0.00;-339.16;-263.05;-103.00;0.98;-142.40;26.06;-62.06 
7.034;0.38;-0.87;0.32;-0.42;0.77;-0.28;-334.17;-260.19;-101.00;1.00;-142.47;26.06;-62.07 
7.064;0.38;-0.84;0.31;-0.63;0.90;-0.28;-339.16;-263.05;-100.00;0.97;-142.48;26.08;-62.05 
7.094;0.38;-0.90;0.26;-0.28;0.49;0.35;-339.16;-259.24;-104.00;1.01;-142.51;26.08;-62.06 
7.125;0.38;-0.87;0.30;-0.35;1.11;-0.07;-335.17;-260.19;-101.00;1.00;-142.54;26.08;-62.06 
7.155;0.40;-0.86;0.29;-0.42;0.77;0.07;-337.17;-261.15;-103.00;0.99;-142.55;26.08;-62.05 
7.185;0.39;-0.89;0.29;-0.56;0.00;0.21;-339.16;-259.24;-101.00;1.01;-142.58;26.07;-62.06 
7.216;0.41;-0.88;0.30;-0.35;0.90;-0.56;-338.16;-262.10;-101.00;1.02;-142.62;26.07;-62.07 
7.246;0.38;-0.86;0.29;-0.49;0.90;-0.14;-340.16;-260.19;-102.00;0.98;-142.64;26.07;-62.07 
7.276;0.39;-0.86;0.29;-0.70;0.28;0.28;-338.16;-260.19;-104.00;0.99;-142.64;26.08;-62.05 
7.306;0.38;-0.86;0.26;-0.21;0.28;-0.07;-337.17;-260.19;-104.00;0.98;-142.66;26.07;-62.05 
7.337;0.37;-0.88;0.28;-0.35;0.35;-0.14;-338.16;-260.19;-105.00;0.99;-142.69;26.08;-62.05 
7.367;0.38;-0.86;0.30;-0.35;0.77;-0.28;-338.16;-259.24;-102.00;0.99;-142.73;26.08;-62.05 
7.397;0.39;-0.85;0.31;-0.42;0.77;-0.21;-339.16;-263.05;-102.00;0.99;-142.73;26.08;-62.05 
7.428;0.37;-0.87;0.29;-0.42;0.14;0.00;-335.17;-260.19;-101.00;0.99;-142.77;26.09;-62.04 
7.458;0.38;-0.86;0.30;-0.35;0.42;-0.21;-336.17;-260.19;-103.00;0.99;-142.80;26.08;-62.05 
7.488;0.38;-0.88;0.28;-0.35;0.77;0.14;-340.16;-259.24;-101.00;1.00;-142.83;26.08;-62.05 
7.518;0.37;-0.88;0.26;-0.14;0.42;0.14;-334.17;-259.24;-105.00;0.99;-142.83;26.07;-62.05 
7.548;0.38;-0.88;0.32;-0.21;0.07;-0.28;-338.16;-263.05;-102.00;1.01;-142.84;26.07;-62.04 
7.578;0.41;-0.90;0.26;-0.28;0.14;-0.42;-337.17;-259.24;-105.00;1.02;-142.85;26.08;-62.03 
7.608;0.38;-0.86;0.26;0.00;1.32;0.14;-336.17;-260.19;-102.00;0.98;-142.88;26.09;-62.02 
7.639;0.38;-0.87;0.29;-0.42;1.18;-0.56;-337.17;-261.15;-106.00;0.99;-142.86;26.08;-62.02 
7.669;0.39;-0.87;0.29;-1.11;0.00;0.00;-338.16;-263.05;-102.00;1.00;-142.88;26.09;-62.01 
7.698;0.38;-0.88;0.30;-1.11;-0.42;0.42;-338.16;-263.05;-100.00;1.00;-142.96;26.09;-62.03 
7.727;0.38;-0.88;0.27;-0.42;0.42;0.21;-338.16;-261.15;-103.00;1.00;-143.03;26.08;-62.05 
7.756;0.38;-0.88;0.29;0.07;1.60;-0.21;-337.17;-261.15;-104.00;1.00;-143.04;26.07;-62.05 
7.785;0.38;-0.86;0.30;-0.14;1.04;0.00;-339.16;-263.05;-104.00;0.99;-143.03;26.08;-62.04 
7.814;0.37;-0.86;0.30;-0.56;0.14;0.14;-335.17;-262.10;-103.00;0.98;-143.04;26.07;-62.03 
7.844;0.38;-0.86;0.28;-0.35;0.63;0.07;-339.16;-262.10;-101.00;0.98;-143.08;26.07;-62.04 
7.874;0.38;-0.85;0.28;-0.42;1.11;-0.42;-337.17;-262.10;-102.00;0.97;-143.10;26.09;-62.03 
7.904;0.40;-0.86;0.27;-0.49;0.83;-0.35;-338.16;-259.24;-102.00;0.99;-143.09;26.09;-62.02 
7.935;0.38;-0.87;0.26;-0.49;0.49;0.14;-335.17;-261.15;-104.00;0.98;-143.13;26.10;-62.01 
7.965;0.41;-0.90;0.28;-0.49;0.42;-0.07;-341.16;-262.10;-99.00;1.03;-143.18;26.09;-62.03 
7.995;0.38;-0.86;0.26;-0.28;0.90;0.21;-337.17;-261.15;-101.00;0.98;-143.21;26.10;-62.03 
8.026;0.40;-0.87;0.30;-0.21;1.18;0.42;-338.16;-264.96;-105.00;1.00;-143.23;26.09;-62.03 
8.056;0.38;-0.87;0.29;-0.07;1.32;0.14;-339.16;-261.15;-103.00;0.99;-143.24;26.07;-62.04 
8.086;0.38;-0.86;0.30;-0.35;0.97;-0.35;-336.17;-264.00;-102.00;0.99;-143.23;26.07;-62.03 
8.116;0.38;-0.86;0.29;-0.49;0.90;-0.56;-335.17;-261.15;-101.00;0.98;-143.24;26.08;-62.02 
8.146;0.39;-0.87;0.27;-0.35;0.63;-0.07;-336.17;-261.15;-103.00;0.99;-143.23;26.09;-62.00 
8.176;0.34;-0.87;0.26;-0.56;1.32;-0.83;-337.17;-263.05;-101.00;0.97;-143.23;26.10;-61.98 
8.206;0.41;-0.86;0.30;-0.35;0.97;-0.83;-338.16;-261.15;-100.00;1.00;-143.21;26.12;-61.96 
8.237;0.39;-0.88;0.29;0.00;0.90;-0.07;-340.16;-259.24;-105.00;1.01;-143.23;26.13;-61.95 
8.267;0.38;-0.87;0.28;-0.21;1.11;-0.97;-337.17;-262.10;-102.00;0.99;-143.21;26.16;-61.92 
8.297;0.40;-0.90;0.30;-0.35;0.97;-0.35;-335.17;-263.05;-103.00;1.03;-143.19;26.17;-61.90 
8.327;0.38;-0.90;0.26;-0.49;1.32;-0.21;-334.17;-262.10;-101.00;1.01;-143.20;26.18;-61.89 
8.357;0.38;-0.86;0.29;0.00;0.90;-0.21;-337.17;-261.15;-101.00;0.98;-143.21;26.17;-61.89 
8.387;0.38;-0.86;0.32;-0.28;1.25;-0.42;-338.16;-264.00;-100.00;0.99;-143.22;26.17;-61.89 
8.417;0.39;-0.86;0.27;-0.28;0.97;0.21;-336.17;-261.15;-105.00;0.98;-143.23;26.17;-61.89 
8.448;0.38;-0.87;0.28;-0.14;0.90;-0.28;-337.17;-263.05;-104.00;0.99;-143.26;26.15;-61.90 
8.478;0.38;-0.85;0.28;0.35;1.53;0.07;-336.17;-264.00;-103.00;0.97;-143.24;26.15;-61.89 
8.507;0.38;-0.86;0.28;0.00;1.67;-0.35;-336.17;-262.10;-100.00;0.98;-143.23;26.15;-61.88 
8.537;0.42;-0.88;0.29;-0.56;0.83;-0.21;-336.17;-263.05;-101.00;1.02;-143.23;26.15;-61.87 
8.566;0.38;-0.88;0.30;-0.83;0.21;-0.49;-339.16;-261.15;-101.00;1.00;-143.25;26.14;-61.88 
8.596;0.38;-0.86;0.28;-0.14;0.63;-0.42;-336.17;-262.10;-101.00;0.98;-143.26;26.17;-61.86 
8.626;0.38;-0.87;0.26;0.21;1.67;-0.49;-337.17;-262.10;-104.00;0.98;-143.25;26.17;-61.84 
8.655;0.37;-0.86;0.27;0.28;1.32;-0.49;-337.17;-260.19;-102.00;0.97;-143.23;26.17;-61.83 
8.684;0.39;-0.86;0.30;-0.14;1.11;-0.63;-338.16;-261.15;-102.00;0.99;-143.24;26.17;-61.83 
8.713;0.37;-0.88;0.29;-0.42;0.63;-0.21;-337.17;-264.96;-103.00;1.00;-143.24;26.18;-61.81 
8.742;0.39;-0.86;0.26;-0.56;1.32;-0.42;-339.16;-261.15;-101.00;0.98;-143.23;26.19;-61.80 
8.772;0.38;-0.85;0.26;-0.49;1.39;0.00;-336.17;-264.00;-102.00;0.97;-143.21;26.19;-61.78 
8.801;0.42;-0.86;0.30;-0.28;1.18;-0.56;-339.16;-264.96;-100.00;1.00;-143.20;26.19;-61.77 
8.831;0.38;-0.85;0.26;-0.21;0.77;-0.21;-336.17;-264.00;-102.00;0.97;-143.21;26.19;-61.77 
8.860;0.39;-0.86;0.28;-0.28;1.04;-0.35;-340.16;-262.10;-101.00;0.98;-143.21;26.20;-61.75 
8.889;0.38;-0.86;0.33;-0.07;1.18;0.00;-336.17;-263.05;-102.00;1.00;-143.21;26.21;-61.74 
8.919;0.41;-0.88;0.26;-0.28;0.90;-0.35;-335.17;-262.10;-103.00;1.01;-143.22;26.20;-61.74 
8.948;0.38;-0.86;0.30;-0.42;1.25;-0.35;-337.17;-261.15;-101.00;0.99;-143.23;26.20;-61.74 
8.977;0.40;-0.86;0.28;-0.28;0.97;-0.07;-337.17;-263.05;-103.00;0.99;-143.22;26.21;-61.72 
9.006;0.38;-0.86;0.29;-0.21;1.04;-0.49;-337.17;-263.05;-104.00;0.98;-143.23;26.21;-61.72 
9.035;0.38;-0.86;0.29;-0.35;1.11;-0.56;-340.16;-259.24;-101.00;0.98;-143.23;26.20;-61.72 
9.065;0.37;-0.85;0.29;0.00;1.53;-0.83;-338.16;-262.10;-102.00;0.97;-143.20;26.20;-61.70 
9.094;0.39;-0.86;0.30;-0.56;0.83;-0.49;-337.17;-260.19;-104.00;0.99;-143.19;26.21;-61.69 
9.124;0.38;-0.86;0.32;-0.49;0.83;-0.56;-337.17;-263.05;-101.00;0.99;-143.22;26.21;-61.69 
9.154;0.39;-0.87;0.26;-0.42;1.32;-0.56;-338.16;-264.00;-103.00;0.99;-143.23;26.22;-61.68 
9.184;0.40;-0.87;0.27;-0.28;0.97;-0.63;-341.16;-261.15;-102.00;0.99;-143.20;26.22;-61.66 
9.215;0.38;-0.86;0.26;-0.28;1.04;-0.56;-337.17;-262.10;-102.00;0.98;-143.24;26.21;-61.67 
9.244;0.38;-0.86;0.29;-0.42;0.97;-0.70;-337.17;-261.15;-102.00;0.98;-143.26;26.21;-61.67 
9.274;0.38;-0.86;0.28;-0.14;0.97;-0.70;-337.17;-262.10;-102.00;0.98;-143.22;26.24;-61.63 
9.304;0.37;-0.83;0.30;-0.28;1.04;-0.63;-335.17;-263.05;-104.00;0.96;-143.18;26.26;-61.60 
9.333;0.37;-0.86;0.26;-0.56;0.83;-0.56;-337.17;-263.05;-103.00;0.97;-143.18;26.26;-61.58 
9.363;0.37;-0.85;0.28;-0.21;0.56;-0.49;-338.16;-263.05;-103.00;0.97;-143.17;26.28;-61.56 
9.393;0.38;-0.84;0.30;0.07;1.25;-0.83;-335.17;-263.05;-104.00;0.97;-143.18;26.28;-61.56 
9.422;0.38;-0.86;0.31;-0.49;1.11;-0.77;-339.16;-263.05;-104.00;0.99;-143.14;26.30;-61.52 
9.451;0.40;-0.89;0.28;-0.70;0.14;0.21;-342.15;-263.05;-103.00;1.02;-143.18;26.31;-61.52 
9.480;0.40;-0.87;0.28;-0.56;-0.14;0.42;-339.16;-263.05;-103.00;1.00;-143.24;26.31;-61.53 
9.509;0.40;-0.88;0.26;-0.28;1.60;-0.14;-340.16;-263.05;-102.00;1.00;-143.28;26.29;-61.55 
9.538;0.37;-0.85;0.31;0.00;1.25;-0.14;-336.17;-262.10;-101.00;0.98;-143.27;26.29;-61.54 
9.567;0.39;-0.84;0.29;-0.21;0.49;0.07;-340.16;-263.05;-104.00;0.97;-143.28;26.31;-61.52 
9.596;0.40;-0.88;0.30;-0.42;0.70;0.56;-339.16;-264.00;-104.00;1.01;-143.31;26.30;-61.53 
9.625;0.37;-0.86;0.30;-0.35;0.97;-0.14;-338.16;-263.05;-105.00;0.98;-143.31;26.30;-61.52 
9.654;0.38;-0.88;0.28;-0.28;0.83;-0.42;-339.16;-260.19;-100.00;1.00;-143.31;26.30;-61.51 
9.684;0.39;-0.86;0.28;-0.56;0.77;-0.35;-340.16;-264.00;-102.00;0.98;-143.34;26.30;-61.51 
9.713;0.39;-0.86;0.27;-0.63;0.21;0.00;-335.17;-262.10;-103.00;0.98;-143.34;26.31;-61.50 
9.742;0.36;-0.85;0.28;-0.56;0.56;-0.14;-337.17;-264.96;-101.00;0.96;-143.39;26.32;-61.50 
9.772;0.40;-0.88;0.28;-0.21;1.11;0.21;-335.17;-265.91;-103.00;1.01;-143.39;26.31;-61.49 
9.802;0.37;-0.86;0.29;-0.35;0.90;0.00;-339.16;-264.96;-103.00;0.98;-143.40;26.31;-61.49 
9.832;0.38;-0.86;0.28;-0.35;0.49;0.14;-339.16;-263.05;-102.00;0.98;-143.42;26.29;-61.50 
9.862;0.39;-0.85;0.30;-0.35;0.56;0.21;-337.17;-264.00;-104.00;0.98;-143.45;26.29;-61.50 
9.892;0.40;-0.88;0.28;-0.28;0.90;0.28;-340.16;-264.00;-104.00;1.01;-143.49;26.29;-61.51 
9.922;0.38;-0.85;0.29;-0.56;0.56;0.35;-339.16;-265.91;-102.00;0.98;-143.50;26.28;-61.50 
9.952;0.38;-0.87;0.27;-0.56;0.63;-0.21;-338.16;-264.96;-105.00;0.99;-143.53;26.27;-61.52 
9.983;0.39;-0.90;0.30;-0.56;0.28;-0.21;-338.16;-263.05;-102.00;1.03;-143.53;26.27;-61.51 
10.013;0.38;-0.86;0.30;-0.42;0.90;0.35;-339.16;-264.00;-106.00;0.99;-143.57;26.26;-61.52 
10.043;0.40;-0.87;0.29;-0.63;0.97;-0.14;-338.16;-267.82;-101.00;1.00;-143.60;26.26;-61.52 
10.074;0.41;-0.87;0.26;-0.56;0.56;-0.21;-337.17;-263.05;-102.00;1.00;-143.63;26.26;-61.52 
10.104;0.40;-0.87;0.30;-0.28;0.63;0.28;-335.17;-265.91;-100.00;1.00;-143.65;26.26;-61.52 
10.134;0.38;-0.88;0.30;-0.42;0.49;0.00;-338.16;-263.05;-102.00;1.00;-143.71;26.25;-61.54 
10.164;0.39;-0.87;0.28;-0.14;0.70;0.07;-340.16;-264.00;-101.00;0.99;-143.71;26.26;-61.52 
10.194;0.37;-0.88;0.27;-0.35;0.56;0.28;-337.17;-263.05;-104.00;0.99;-143.70;26.28;-61.50 
10.224;0.39;-0.86;0.28;-0.63;0.14;-0.21;-338.16;-264.00;-103.00;0.98;-143.74;26.26;-61.51 
10.254;0.40;-0.86;0.27;-0.07;1.25;0.07;-339.16;-264.96;-103.00;0.99;-143.78;26.26;-61.52 
10.285;0.38;-0.86;0.28;-0.83;1.25;-1.11;-340.16;-263.05;-105.00;0.98;-143.76;26.25;-61.51 
10.315;0.39;-0.87;0.29;-0.97;-0.42;0.35;-337.17;-260.19;-105.00;1.00;-143.76;26.27;-61.49 
10.345;0.39;-0.86;0.27;-0.90;-0.35;0.28;-338.16;-262.10;-104.00;0.98;-143.82;26.26;-61.51 
10.375;0.39;-0.86;0.29;-0.49;1.39;-0.07;-339.16;-263.05;-100.00;0.99;-143.89;26.24;-61.54 
10.405;0.38;-0.85;0.30;0.07;1.67;0.00;-337.17;-265.91;-102.00;0.98;-143.88;26.25;-61.52 
10.434;0.38;-0.86;0.30;-0.07;0.97;0.70;-339.16;-261.15;-101.00;0.99;-143.87;26.23;-61.52 
10.463;0.39;-0.86;0.29;0.00;0.56;0.49;-336.17;-262.10;-103.00;0.99;-143.88;26.21;-61.52 
10.493;0.38;-0.88;0.28;-0.35;1.46;-0.35;-340.16;-263.05;-100.00;1.00;-143.88;26.20;-61.52 
10.523;0.39;-0.88;0.29;-0.42;0.90;0.21;-338.16;-262.10;-101.00;1.01;-143.86;26.21;-61.49 
10.553;0.39;-0.88;0.28;-0.56;0.83;-0.70;-336.17;-265.91;-104.00;1.00;-143.88;26.20;-61.50 
10.584;0.41;-0.84;0.26;0.14;1.25;-0.21;-337.17;-264.00;-100.00;0.97;-143.87;26.23;-61.47 
10.614;0.43;-0.87;0.28;0.56;3.41;1.25;-341.16;-260.19;-101.00;1.01;-143.82;26.25;-61.43 
10.644;0.36;-0.87;0.30;0.07;3.06;0.97;-335.17;-263.05;-100.00;0.99;-143.83;26.19;-61.46 
10.674;0.37;-0.87;0.29;-0.90;-0.07;-0.28;-336.17;-263.05;-100.00;0.99;-143.83;26.16;-61.47 
10.704;0.37;-0.88;0.29;-0.83;-0.21;-1.04;-338.16;-266.86;-98.00;1.00;-143.88;26.16;-61.48 
10.734;0.39;-0.84;0.25;-0.42;2.02;-0.70;-338.16;-263.05;-103.00;0.96;-143.90;26.18;-61.47 
10.764;0.38;-0.90;0.26;0.07;1.81;-0.35;-337.17;-264.00;-105.00;1.01;-143.90;26.17;-61.47 
10.795;0.38;-0.88;0.30;-0.28;0.77;-0.28;-337.17;-263.05;-100.00;1.00;-143.90;26.17;-61.46 
10.825;0.37;-0.86;0.26;-0.35;0.07;-0.70;-335.17;-261.15;-101.00;0.97;-143.91;26.18;-61.44 
10.855;0.38;-0.86;0.29;-0.07;1.25;-1.04;-336.17;-263.05;-102.00;0.98;-143.92;26.19;-61.43 
10.886;0.39;-0.88;0.30;-0.42;1.88;-1.18;-338.16;-261.15;-103.00;1.01;-143.88;26.20;-61.40 
10.916;0.39;-0.85;0.31;-0.49;1.04;-0.77;-336.17;-264.96;-104.00;0.99;-143.86;26.23;-61.37 
10.946;0.42;-0.86;0.28;-0.63;0.63;-0.35;-336.17;-263.05;-101.00;1.00;-143.86;26.24;-61.36 
10.976;0.39;-0.86;0.28;-0.42;0.97;-0.35;-338.16;-262.10;-105.00;0.98;-143.85;26.25;-61.34 
11.007;0.37;-0.86;0.29;-0.35;1.39;-0.42;-339.16;-267.82;-101.00;0.98;-143.84;26.25;-61.32 
11.037;0.38;-0.87;0.29;-0.35;1.32;0.07;-339.16;-265.91;-101.00;0.99;-143.87;26.23;-61.34 
11.067;0.36;-0.86;0.27;-0.42;0.63;0.07;-338.16;-265.91;-101.00;0.97;-143.89;26.23;-61.34 
11.098;0.38;-0.87;0.29;-0.07;0.97;-0.07;-338.16;-264.96;-104.00;0.99;-143.94;26.21;-61.35 
11.128;0.42;-0.86;0.30;-0.07;1.60;-0.70;-335.17;-264.00;-105.00;1.00;-143.91;26.22;-61.33 
11.158;0.38;-0.87;0.30;-0.42;1.04;-0.28;-341.16;-264.96;-104.00;1.00;-143.92;26.22;-61.32 
11.188;0.38;-0.87;0.30;-0.83;0.00;-0.63;-338.16;-264.96;-100.00;1.00;-143.95;26.22;-61.33 
11.218;0.39;-0.86;0.28;-0.28;1.46;-0.83;-339.16;-267.82;-102.00;0.98;-143.96;26.24;-61.31 
11.248;0.38;-0.86;0.30;0.14;1.81;-0.35;-336.17;-266.86;-101.00;0.99;-143.94;26.25;-61.29 
11.278;0.39;-0.85;0.29;-0.56;1.39;-0.35;-338.16;-264.96;-102.00;0.98;-143.94;26.25;-61.28 
11.309;0.38;-0.86;0.30;-0.35;0.56;-0.28;-339.16;-264.96;-103.00;0.99;-143.95;26.25;-61.27 
11.339;0.40;-0.89;0.26;-0.35;1.11;-0.14;-337.17;-264.00;-103.00;1.01;-143.96;26.25;-61.27 
11.369;0.42;-0.87;0.27;-0.35;1.39;-0.21;-334.17;-264.00;-104.00;1.00;-143.97;26.25;-61.26 
11.399;0.39;-0.86;0.31;-0.35;0.97;-0.21;-337.17;-265.91;-101.00;0.99;-143.96;26.25;-61.25 
11.429;0.39;-0.86;0.30;-0.56;0.83;-0.35;-338.16;-263.05;-102.00;0.99;-143.98;26.25;-61.25 
11.459;0.38;-0.87;0.28;-0.49;0.90;-0.35;-337.17;-264.96;-102.00;0.99;-144.01;26.25;-61.25 
11.489;0.37;-0.86;0.30;-0.35;1.25;0.00;-336.17;-264.00;-99.00;0.98;-144.00;26.26;-61.23 
11.520;0.38;-0.87;0.26;-0.49;1.11;-0.35;-339.16;-261.15;-104.00;0.98;-144.00;26.28;-61.21 
11.549;0.39;-0.87;0.29;-0.14;1.11;-0.42;-338.16;-265.91;-104.00;1.00;-144.00;26.29;-61.20 
11.579;0.38;-0.86;0.27;-0.21;1.11;-0.14;-337.17;-265.91;-103.00;0.98;-144.00;26.29;-61.19 
11.610;0.39;-0.85;0.30;-0.21;1.04;-0.28;-339.16;-265.91;-104.00;0.98;-144.00;26.30;-61.17 
11.640;0.38;-0.86;0.27;-0.42;0.90;-0.77;-338.16;-267.82;-103.00;0.98;-144.02;26.30;-61.17 
11.670;0.39;-0.86;0.30;-0.14;0.77;-0.56;-337.17;-260.19;-104.00;0.99;-144.03;26.32;-61.15 
11.700;0.38;-0.84;0.27;-0.49;1.11;-0.21;-339.16;-262.10;-102.00;0.96;-144.02;26.33;-61.13 
11.730;0.41;-0.87;0.30;-0.42;1.18;-0.42;-339.16;-265.91;-100.00;1.01;-144.04;26.34;-61.13 
11.760;0.40;-0.87;0.32;-0.28;0.83;-0.07;-338.16;-264.96;-102.00;1.01;-144.08;26.34;-61.13 
11.790;0.39;-0.85;0.29;-0.28;0.97;-0.63;-338.16;-263.05;-103.00;0.98;-144.08;26.36;-61.12 
11.821;0.39;-0.88;0.30;-0.14;0.77;-0.21;-332.18;-264.00;-100.00;1.01;-144.09;26.37;-61.11 
11.851;0.38;-0.88;0.30;-0.07;0.90;-0.07;-339.16;-265.91;-101.00;1.00;-144.13;26.35;-61.12 
11.881;0.42;-0.86;0.29;-0.35;0.56;-0.07;-338.16;-264.96;-103.00;1.00;-144.14;26.34;-61.12 
11.911;0.39;-0.85;0.30;-0.49;0.21;-0.35;-336.17;-263.05;-99.00;0.98;-144.17;26.33;-61.13 
11.940;0.36;-0.85;0.26;0.00;0.70;-0.28;-336.17;-267.82;-101.00;0.96;-144.18;26.34;-61.11 
11.969;0.38;-0.85;0.34;-0.14;1.67;-0.63;-336.17;-264.96;-101.00;0.99;-144.17;26.36;-61.08 
11.999;0.40;-0.85;0.30;-0.56;0.63;-0.49;-338.16;-264.96;-101.00;0.99;-144.14;26.38;-61.06 
12.029;0.38;-0.86;0.30;-1.11;0.14;-0.14;-338.16;-261.15;-102.00;0.99;-144.16;26.38;-61.05 
12.059;0.38;-0.86;0.26;-0.83;0.70;0.07;-337.17;-264.00;-104.00;0.98;-144.21;26.38;-61.05 
12.089;0.38;-0.86;0.27;-0.35;1.11;0.07;-341.16;-264.00;-104.00;0.98;-144.22;26.38;-61.05 
12.119;0.39;-0.86;0.26;0.21;0.90;0.35;-337.17;-265.91;-105.00;0.98;-144.24;26.38;-61.05 
12.148;0.39;-0.85;0.28;-0.07;0.56;0.35;-338.16;-267.82;-101.00;0.98;-144.26;26.36;-61.06 
12.177;0.41;-0.88;0.28;-0.56;0.56;0.63;-336.17;-264.00;-100.00;1.01;-144.31;26.33;-61.09 
12.207;0.38;-0.87;0.30;-0.77;0.42;0.56;-340.16;-267.82;-100.00;1.00;-144.35;26.31;-61.10 
12.237;0.38;-0.86;0.26;-0.70;0.42;0.21;-339.16;-265.91;-103.00;0.98;-144.37;26.30;-61.10 
12.266;0.38;-0.86;0.27;-0.35;0.90;-0.42;-337.17;-265.91;-100.00;0.98;-144.40;26.29;-61.11 
12.296;0.38;-0.87;0.30;-0.56;0.49;0.07;-340.16;-266.86;-102.00;1.00;-144.41;26.29;-61.11 
12.326;0.40;-0.85;0.28;-0.42;0.49;0.21;-340.16;-263.05;-102.00;0.98;-144.44;26.28;-61.11 
12.356;0.38;-0.86;0.26;-0.42;0.97;0.14;-339.16;-264.96;-103.00;0.98;-144.49;26.28;-61.12 
12.386;0.38;-0.85;0.28;-0.28;1.11;-0.14;-338.16;-264.96;-103.00;0.97;-144.53;26.26;-61.14 
12.417;0.40;-0.86;0.30;-0.28;0.77;0.21;-335.17;-264.96;-102.00;0.99;-144.55;26.25;-61.14 
12.446;0.40;-0.86;0.28;-0.42;0.35;0.28;-339.16;-264.00;-103.00;0.99;-144.58;26.24;-61.15 
12.475;0.40;-0.85;0.31;-0.35;0.42;0.21;-339.16;-264.00;-101.00;0.99;-144.60;26.22;-61.16 
12.505;0.38;-0.86;0.32;-0.42;0.70;0.00;-337.17;-266.86;-102.00;0.99;-144.65;26.22;-61.17 
12.534;0.40;-0.86;0.29;-0.35;0.56;0.28;-338.16;-264.00;-101.00;0.99;-144.70;26.20;-61.19 
12.563;0.39;-0.86;0.29;-0.42;0.35;0.21;-336.17;-264.00;-103.00;0.99;-144.73;26.20;-61.20 
12.592;0.40;-0.86;0.28;-0.63;0.70;-0.21;-340.16;-264.96;-101.00;0.99;-144.78;26.18;-61.21 
12.621;0.38;-0.85;0.27;-0.35;0.42;-0.07;-338.16;-263.05;-105.00;0.97;-144.78;26.19;-61.20 
12.650;0.39;-0.84;0.26;-0.35;0.77;0.00;-337.17;-268.77;-103.00;0.96;-144.81;26.19;-61.20 
12.679;0.40;-0.88;0.26;-0.70;0.49;0.14;-338.16;-264.96;-104.00;1.00;-144.81;26.20;-61.19 
12.708;0.39;-0.84;0.28;-0.42;0.70;-0.07;-337.17;-263.05;-101.00;0.97;-144.84;26.20;-61.19 
12.737;0.40;-0.88;0.32;-0.42;0.83;-0.07;-338.16;-266.86;-103.00;1.02;-144.85;26.19;-61.19 
12.766;0.37;-0.86;0.28;-0.56;0.77;0.07;-336.17;-265.91;-103.00;0.98;-144.88;26.18;-61.19 
12.796;0.37;-0.86;0.27;-0.42;0.07;0.00;-337.17;-264.00;-99.00;0.97;-144.89;26.17;-61.19 
12.826;0.39;-0.85;0.26;-0.28;1.04;0.49;-340.16;-267.82;-101.00;0.97;-144.94;26.16;-61.20 
12.856;0.39;-0.86;0.27;-0.35;1.60;0.00;-342.15;-262.10;-104.00;0.98;-144.96;26.15;-61.21 
12.887;0.38;-0.85;0.28;-0.90;0.70;0.14;-335.17;-264.96;-102.00;0.97;-144.96;26.14;-61.20 
12.917;0.41;-0.87;0.30;-0.70;-0.07;0.83;-338.16;-263.05;-103.00;1.01;-145.02;26.13;-61.23 
12.947;0.38;-0.86;0.29;-0.28;1.25;0.28;-338.16;-264.00;-102.00;0.98;-145.08;26.10;-61.26 
12.977;0.39;-0.86;0.30;-0.07;1.88;-0.28;-338.16;-264.96;-102.00;0.99;-145.09;26.09;-61.26 
13.007;0.39;-0.85;0.27;-0.07;0.56;-0.63;-341.16;-263.05;-105.00;0.97;-145.09;26.08;-61.25 
13.037;0.38;-0.86;0.27;-0.28;0.28;-0.28;-341.16;-266.86;-104.00;0.98;-145.10;26.10;-61.23 
13.067;0.38;-0.85;0.29;-0.21;1.60;-1.04;-337.17;-266.86;-102.00;0.98;-145.10;26.12;-61.22 
13.098;0.38;-0.86;0.26;-0.35;1.04;-0.42;-338.16;-264.00;-100.00;0.98;-145.09;26.13;-61.20 
13.128;0.38;-0.85;0.29;-0.42;0.56;-0.70;-336.17;-265.91;-102.00;0.98;-145.11;26.13;-61.19 
13.158;0.37;-0.88;0.30;-0.35;1.04;-0.77;-338.16;-264.96;-100.00;1.00;-145.12;26.16;-61.17 
13.189;0.41;-0.88;0.27;-0.07;1.32;-0.35;-335.17;-265.91;-102.00;1.01;-145.11;26.17;-61.15 
13.219;0.39;-0.87;0.28;0.00;1.18;0.00;-339.16;-265.91;-103.00;0.99;-145.11;26.17;-61.14 
13.249;0.38;-0.84;0.29;-0.14;1.32;0.00;-337.17;-265.91;-104.00;0.97;-145.13;26.16;-61.14 
13.279;0.38;-0.86;0.29;-0.21;0.63;0.00;-339.16;-265.91;-103.00;0.98;-145.14;26.15;-61.14 
13.309;0.38;-0.88;0.26;-0.63;0.97;-0.07;-340.16;-265.91;-105.00;0.99;-145.16;26.13;-61.15 
13.339;0.40;-0.86;0.29;-0.42;1.46;-0.42;-339.16;-264.00;-104.00;0.99;-145.18;26.13;-61.15 
13.369;0.39;-0.87;0.30;-0.42;1.11;0.14;-340.16;-264.00;-102.00;1.00;-145.21;26.11;-61.16 
13.400;0.38;-0.86;0.26;-0.14;0.97;0.21;-338.16;-263.05;-103.00;0.98;-145.22;26.11;-61.15 
13.430;0.39;-0.88;0.30;-0.35;1.11;-0.70;-334.17;-266.86;-102.00;1.01;-145.21;26.11;-61.14 
13.460;0.39;-0.85;0.28;-0.35;1.04;-0.28;-338.16;-264.00;-103.00;0.98;-145.21;26.11;-61.12 
13.490;0.41;-0.88;0.26;-0.35;0.77;-0.21;-338.16;-264.96;-104.00;1.01;-145.23;26.11;-61.12 
13.520;0.38;-0.85;0.26;-0.28;1.53;-0.35;-336.17;-263.05;-104.00;0.97;-145.24;26.11;-61.12 
13.550;0.39;-0.86;0.29;-0.35;1.18;-0.28;-339.16;-265.91;-102.00;0.99;-145.24;26.10;-61.11 
13.580;0.40;-0.87;0.27;0.07;1.04;-0.35;-337.17;-265.91;-104.00;0.99;-145.26;26.10;-61.11 
13.610;0.40;-0.87;0.26;-0.28;0.90;0.21;-335.17;-264.96;-99.00;0.99;-145.26;26.09;-61.10 
13.639;0.37;-0.84;0.29;-0.28;1.18;-0.07;-335.17;-264.00;-105.00;0.96;-145.26;26.10;-61.08 
13.668;0.39;-0.90;0.27;-0.49;0.83;-0.70;-336.17;-267.82;-103.00;1.02;-145.29;26.09;-61.09 
13.698;0.41;-0.88;0.27;-0.42;1.25;-0.77;-338.16;-266.86;-103.00;1.01;-145.26;26.10;-61.06 
13.727;0.39;-0.86;0.26;-0.14;1.32;-0.63;-337.17;-268.77;-101.00;0.98;-145.27;26.10;-61.05 
13.757;0.40;-0.87;0.29;-0.49;1.04;-0.97;-339.16;-266.86;-105.00;1.00;-145.28;26.10;-61.05 
13.787;0.39;-0.87;0.29;-0.35;0.83;-0.21;-338.16;-264.00;-102.00;1.00;-145.27;26.11;-61.03 
13.817;0.38;-0.87;0.28;-0.63;0.63;-0.21;-340.16;-263.05;-102.00;0.99;-145.30;26.11;-61.03 
13.847;0.40;-0.87;0.28;-0.21;1.88;-0.14;-341.16;-265.91;-105.00;1.00;-145.32;26.11;-61.03 
13.877;0.39;-0.86;0.30;0.00;1.81;-0.49;-340.16;-265.91;-103.00;0.99;-145.30;26.11;-61.01 
13.906;0.40;-0.87;0.27;-0.28;0.70;-0.14;-336.17;-265.91;-102.00;0.99;-145.29;26.12;-60.98 
13.936;0.39;-0.86;0.30;-0.49;1.46;-0.07;-336.17;-265.91;-100.00;0.99;-145.33;26.10;-61.00 
13.966;0.41;-0.87;0.28;-0.63;1.25;-0.14;-341.16;-264.96;-102.00;1.00;-145.31;26.10;-60.98 
13.997;0.40;-0.86;0.26;-0.28;0.90;-0.35;-338.16;-268.77;-100.00;0.98;-145.34;26.08;-60.99 
14.027;0.40;-0.86;0.27;-0.21;1.11;-0.35;-335.17;-264.96;-104.00;0.99;-145.38;26.08;-61.00 
14.057;0.38;-0.86;0.28;-0.28;0.90;-0.21;-337.17;-264.96;-99.00;0.98;-145.41;26.07;-61.01 
14.087;0.39;-0.85;0.26;-0.35;0.70;-0.07;-338.16;-266.86;-102.00;0.97;-145.43;26.07;-61.01 
14.117;0.39;-0.85;0.26;-0.21;1.25;-0.42;-337.17;-268.77;-107.00;0.97;-145.46;26.07;-61.01 
14.147;0.41;-0.87;0.30;-0.42;1.04;-0.14;-337.17;-266.86;-101.00;1.01;-145.48;26.08;-61.01 
14.177;0.40;-0.88;0.26;-0.42;1.11;-0.07;-338.16;-265.91;-103.00;1.00;-145.49;26.08;-61.00 
14.208;0.40;-0.89;0.28;-0.21;0.83;-0.14;-338.16;-265.91;-103.00;1.02;-145.47;26.08;-60.98 
14.238;0.41;-0.88;0.26;-0.35;0.77;-0.07;-336.17;-265.91;-100.00;1.01;-145.50;26.07;-60.98 
14.268;0.41;-0.87;0.30;-0.35;1.04;-0.14;-337.17;-266.86;-103.00;1.01;-145.53;26.07;-60.99 
14.299;0.38;-0.86;0.29;-0.42;0.77;-0.49;-338.16;-265.91;-99.00;0.98;-145.55;26.07;-60.98 
14.329;0.39;-0.86;0.30;-0.07;0.97;-0.90;-335.17;-263.05;-103.00;0.99;-145.55;26.08;-60.96 
14.359;0.42;-0.87;0.27;-0.21;1.25;-0.56;-337.17;-263.05;-103.00;1.00;-145.57;26.10;-60.95 
14.389;0.38;-0.86;0.29;-0.28;1.32;-0.28;-338.16;-265.91;-101.00;0.98;-145.58;26.10;-60.94 
14.420;0.39;-0.86;0.29;-0.35;0.97;-0.42;-341.16;-267.82;-102.00;0.99;-145.58;26.11;-60.93 
14.450;0.37;-0.86;0.26;-0.28;1.18;-0.77;-337.17;-266.86;-100.00;0.97;-145.59;26.11;-60.92 
14.480;0.40;-0.86;0.30;-0.21;0.70;-0.14;-339.16;-264.96;-102.00;0.99;-145.61;26.12;-60.92 
14.511;0.39;-0.85;0.26;-0.28;0.77;0.14;-338.16;-264.96;-101.00;0.97;-145.64;26.14;-60.92 
14.541;0.38;-0.86;0.30;-0.35;1.18;0.07;-339.16;-267.82;-102.00;0.99;-145.67;26.12;-60.92 
14.571;0.40;-0.87;0.30;-0.28;0.56;0.14;-335.17;-264.00;-106.00;1.00;-145.69;26.10;-60.93 
14.601;0.39;-0.86;0.30;-0.42;0.07;0.14;-339.16;-265.91;-101.00;0.99;-145.73;26.10;-60.94 
14.631;0.40;-0.85;0.25;0.07;1.39;0.21;-339.16;-264.00;-105.00;0.97;-145.79;26.07;-60.97 
14.661;0.34;-0.85;0.30;0.00;1.18;-1.04;-338.16;-264.00;-105.00;0.96;-145.80;26.05;-60.97 
14.691;0.37;-0.87;0.31;-0.63;-1.46;-1.81;-337.17;-266.86;-101.00;0.99;-145.81;26.06;-60.96 
14.722;0.42;-0.86;0.30;-2.37;-2.30;-2.99;-338.16;-267.82;-102.00;1.00;-145.83;26.13;-60.92 
14.752;0.38;-0.86;0.26;-3.20;-0.21;-5.91;-338.16;-268.77;-102.00;0.98;-145.81;26.24;-60.86 
14.782;0.36;-0.86;0.32;-3.62;2.50;-9.74;-338.16;-267.82;-102.00;0.99;-145.71;26.42;-60.74 
14.812;0.39;-0.85;0.28;-6.89;1.18;-16.42;-339.16;-271.63;-99.00;0.98;-145.44;26.71;-60.49 
