Time(s) acc_x(g) acc_y(g) acc_z(g) gyr_x(°/s) gyr_y(°/s) gyr_z(°/s) mag_x(G) mag_y(G) mag_z(G) SVM(g) yaw(°) pitch(°) roll(°)
0.000;-0.22;0.08;0.74;-0.28;-19.69;5.84;-85.14;-111.74;-389.00;0.78;129.20;-12.14;10.56 
0.031;-0.21;0.03;0.76;6.19;-1.60;4.73;-86.13;-112.70;-391.00;0.79;129.23;-11.76;10.71 
0.061;-0.26;0.10;0.82;7.10;6.61;5.57;-83.16;-111.74;-395.00;0.87;129.23;-11.83;11.02 
0.091;-0.30;0.11;0.93;3.83;6.96;6.12;-80.19;-109.83;-390.00;0.98;129.15;-12.01;11.29 
0.122;-0.31;0.14;0.88;-0.77;0.07;9.32;-83.16;-106.01;-391.00;0.94;129.03;-12.13;11.44 
0.152;-0.30;0.06;0.90;0.00;-8.00;11.41;-83.16;-110.79;-394.00;0.95;128.85;-11.99;11.52 
0.182;-0.27;0.02;0.84;3.69;-6.61;8.70;-77.22;-110.79;-393.00;0.88;128.73;-11.64;11.75 
0.212;-0.25;0.02;0.84;4.80;-1.18;3.62;-78.21;-111.74;-397.00;0.88;128.72;-11.52;11.91 
0.242;-0.27;0.07;0.87;2.23;0.56;0.97;-78.21;-107.92;-394.00;0.91;128.79;-11.51;12.07 
0.272;-0.30;0.14;0.84;-0.28;-2.99;2.16;-76.23;-107.92;-394.00;0.90;128.89;-11.49;12.15 
0.302;-0.28;0.18;0.82;-0.28;-2.92;6.82;-78.21;-109.83;-394.00;0.88;128.92;-11.36;12.26 
0.333;-0.27;0.13;0.87;0.97;-0.77;10.78;-76.23;-106.01;-395.00;0.92;128.77;-11.28;12.44 
0.363;-0.28;0.10;0.86;-0.28;-3.13;13.29;-75.24;-108.88;-396.00;0.91;128.51;-11.18;12.59 
0.393;-0.24;0.09;0.82;-2.16;-1.32;13.98;-78.21;-106.97;-396.00;0.86;128.22;-11.03;12.67 
0.423;-0.22;0.10;0.85;-2.57;1.88;14.54;-73.26;-107.92;-394.00;0.88;127.90;-10.92;12.72 
0.453;-0.25;0.10;0.88;-2.78;5.36;13.22;-73.26;-105.06;-395.00;0.92;127.56;-10.93;12.75 
0.483;-0.25;0.09;0.88;-3.41;5.77;10.99;-75.24;-103.15;-398.00;0.92;127.25;-11.04;12.74 
0.513;-0.26;0.10;0.88;-3.90;5.08;11.34;-75.24;-103.15;-397.00;0.92;126.98;-11.12;12.75 
0.543;-0.26;0.10;0.86;-3.41;3.13;11.34;-74.25;-99.33;-397.00;0.90;126.71;-11.19;12.73 
0.572;-0.26;0.07;0.87;-2.16;1.11;11.41;-76.23;-97.42;-394.00;0.91;126.44;-11.19;12.74 
0.602;-0.28;0.06;0.86;-1.88;2.09;9.53;-77.22;-93.60;-392.00;0.91;126.21;-11.19;12.75 
0.633;-0.28;0.06;0.85;-2.02;3.90;6.96;-75.24;-90.73;-395.00;0.90;126.03;-11.25;12.73 
0.663;-0.29;0.05;0.85;-0.70;6.33;4.59;-76.23;-90.73;-391.00;0.90;125.91;-11.40;12.70 
0.693;-0.31;0.12;0.89;-1.18;2.99;6.68;-75.24;-89.78;-395.00;0.95;125.83;-11.55;12.68 
0.723;-0.32;0.10;0.82;-1.18;2.16;4.31;-74.25;-87.87;-392.00;0.89;125.77;-11.65;12.68 
0.753;-0.31;0.06;0.84;-1.04;2.16;5.57;-72.27;-87.87;-392.00;0.90;125.72;-11.75;12.66 
0.782;-0.33;0.10;0.86;-1.74;1.95;6.26;-77.22;-90.73;-391.00;0.93;125.64;-11.86;12.64 
0.811;-0.33;0.06;0.85;-2.23;1.88;7.65;-72.27;-89.78;-391.00;0.91;125.54;-11.94;12.64 
0.842;-0.34;0.06;0.86;-2.43;0.49;8.83;-75.24;-85.00;-392.00;0.93;125.39;-12.00;12.61 
0.872;-0.31;0.08;0.85;-2.30;0.42;8.63;-74.25;-85.00;-391.00;0.91;125.23;-12.03;12.59 
0.902;-0.30;0.08;0.86;-2.02;-0.21;9.74;-76.23;-85.00;-394.00;0.91;125.06;-12.02;12.59 
0.933;-0.31;0.08;0.84;-1.39;-0.07;9.39;-75.24;-82.14;-392.00;0.90;124.90;-12.02;12.61 
0.963;-0.30;0.09;0.89;-1.46;-0.07;8.35;-73.26;-82.14;-395.00;0.94;124.75;-12.01;12.63 
0.992;-0.31;0.10;0.85;-0.90;-0.07;6.96;-72.27;-82.14;-396.00;0.91;124.63;-12.02;12.66 
1.022;-0.30;0.07;0.85;-0.70;-0.14;4.03;-75.24;-81.18;-394.00;0.90;124.57;-12.05;12.65 
1.052;-0.31;0.07;0.83;-0.14;-0.97;0.77;-74.25;-81.18;-395.00;0.89;124.61;-12.06;12.63 
1.082;-0.29;0.04;0.84;1.04;-1.60;-2.23;-70.29;-81.18;-396.00;0.89;124.75;-12.08;12.60 
1.112;-0.30;0.06;0.86;1.04;-1.95;-5.77;-71.28;-83.09;-394.00;0.91;125.01;-12.09;12.56 
1.143;-0.31;0.08;0.84;0.70;-1.67;-7.93;-72.27;-85.96;-390.00;0.90;125.38;-12.12;12.54 
1.173;-0.27;0.07;0.82;-0.21;-2.85;-9.46;-76.23;-85.00;-396.00;0.87;125.79;-12.15;12.51 
1.202;-0.26;0.06;0.83;-1.67;-2.57;-8.14;-76.23;-88.82;-394.00;0.87;126.18;-12.18;12.44 
1.231;-0.28;0.06;0.82;-3.97;-2.85;-10.23;-75.24;-86.91;-392.00;0.87;126.57;-12.18;12.29 
1.261;-0.29;0.09;0.86;-4.31;-3.48;-5.98;-77.22;-89.78;-392.00;0.91;126.96;-12.16;12.11 
1.291;-0.29;0.10;0.84;-2.37;-1.18;-2.09;-75.24;-92.64;-394.00;0.89;127.20;-12.12;11.98 
1.321;-0.26;0.08;0.86;-0.90;0.14;4.45;-79.20;-91.69;-392.00;0.90;127.31;-12.13;11.96 
1.351;-0.27;0.06;0.83;-1.46;-1.18;9.32;-80.19;-91.69;-391.00;0.87;127.23;-12.08;11.98 
1.381;-0.26;0.05;0.83;-2.71;0.21;11.55;-78.21;-90.73;-391.00;0.87;127.03;-12.05;11.98 
1.411;-0.30;0.09;0.83;-3.41;1.53;13.84;-80.19;-86.91;-390.00;0.89;126.76;-12.07;11.93 
1.442;-0.27;0.00;0.86;-4.24;2.37;12.45;-80.19;-90.73;-392.00;0.90;126.43;-12.11;11.88 
1.472;-0.31;-0.06;0.83;-4.10;2.23;10.23;-79.20;-87.87;-393.00;0.89;126.16;-12.16;11.75 
1.502;-0.34;-0.02;0.84;-4.31;0.97;5.22;-79.20;-86.91;-392.00;0.91;126.01;-12.25;11.57 
1.531;-0.36;-0.04;0.83;-4.66;-0.35;3.20;-81.18;-83.09;-390.00;0.91;125.97;-12.35;11.37 
1.561;-0.34;0.01;0.81;-6.19;-2.92;0.00;-83.16;-83.09;-388.00;0.88;126.04;-12.27;11.27 
1.591;-0.31;0.06;0.77;-8.07;0.90;0.21;-79.20;-85.96;-387.00;0.83;126.12;-12.28;11.08 
1.620;-0.30;0.10;0.75;-8.07;5.36;2.09;-84.15;-84.05;-387.00;0.81;126.15;-12.43;10.91 
1.650;-0.28;0.11;0.78;-10.43;13.84;-1.67;-84.15;-84.05;-387.00;0.84;126.13;-12.77;10.68 
1.680;-0.26;0.14;0.87;-8.07;17.46;-3.69;-88.11;-80.23;-382.00;0.92;126.17;-13.27;10.47 
1.710;-0.27;0.14;0.90;-2.64;19.06;-9.67;-92.07;-80.23;-382.00;0.95;126.32;-13.82;10.32 
1.741;-0.26;0.14;1.02;2.43;12.80;-9.39;-91.08;-75.45;-378.00;1.06;126.59;-14.32;10.29 
1.771;-0.27;0.19;1.02;6.61;-2.09;-7.37;-90.09;-74.50;-379.00;1.07;126.98;-14.51;10.43 
1.801;-0.25;0.18;0.90;8.63;-9.67;-4.24;-91.08;-76.41;-381.00;0.95;127.36;-14.30;10.71 
1.831;-0.22;0.11;0.78;6.68;-1.81;-6.05;-89.10;-76.41;-382.00;0.82;127.71;-14.14;10.99 
1.861;-0.25;0.06;0.77;0.90;3.62;-8.56;-84.15;-81.18;-383.00;0.81;128.05;-14.21;11.10 
1.891;-0.34;0.01;0.78;-5.50;6.26;-18.85;-87.12;-80.23;-383.00;0.85;128.49;-14.46;10.93 
1.921;-0.38;0.01;0.87;-10.23;6.96;-22.47;-90.09;-80.23;-382.00;0.95;129.18;-14.82;10.48 
1.952;-0.39;0.00;0.82;-7.30;9.32;-16.83;-95.04;-82.14;-381.00;0.91;129.79;-15.26;9.98 
1.982;-0.38;0.09;0.82;-0.77;9.18;-15.79;-100.98;-80.23;-383.00;0.91;130.32;-15.71;9.66 
2.011;-0.41;0.10;0.77;6.47;10.71;-11.06;-98.01;-81.18;-380.00;0.88;130.78;-16.20;9.67 
2.041;-0.34;0.00;0.77;2.64;14.40;-9.95;-98.01;-78.32;-378.00;0.84;131.16;-16.72;9.73 
2.071;-0.34;-0.04;0.75;-9.53;13.22;-11.62;-99.00;-78.32;-377.00;0.82;131.46;-17.17;9.63 
2.101;-0.43;0.05;0.70;-12.73;14.96;-20.52;-98.01;-80.23;-378.00;0.82;131.85;-17.59;9.25 
2.130;-0.32;0.03;0.70;-11.83;24.28;-19.20;-104.94;-80.23;-372.00;0.77;132.37;-18.37;8.69 
2.159;-0.37;0.00;0.67;-6.82;33.95;-13.01;-107.91;-76.41;-370.00;0.77;132.67;-19.37;8.24 
2.188;-0.43;-0.04;0.74;-4.31;30.19;-10.85;-110.88;-68.77;-367.00;0.86;132.87;-20.43;7.85 
2.218;-0.54;-0.02;0.67;-4.31;25.11;-12.38;-111.87;-68.77;-364.00;0.86;133.06;-21.27;7.67 
2.248;-0.42;-0.02;0.60;-7.03;27.20;-15.23;-115.83;-63.99;-368.00;0.73;133.33;-22.20;7.41 
2.278;-0.33;0.00;0.56;-8.97;26.85;-19.20;-118.80;-62.08;-362.00;0.65;133.64;-23.06;6.97 
2.308;-0.34;-0.02;0.60;-7.65;23.86;-22.19;-123.75;-59.21;-361.00;0.69;134.11;-23.98;6.42 
2.339;-0.41;0.00;0.69;-3.90;20.87;-16.49;-130.68;-58.26;-357.00;0.80;134.57;-24.74;6.03 
2.369;-0.34;0.01;0.69;-2.71;-0.63;-18.78;-128.70;-57.30;-357.00;0.77;135.12;-25.16;5.77 
2.399;-0.29;0.00;0.58;-1.88;-18.78;-18.02;-131.67;-63.99;-353.00;0.65;135.83;-24.91;5.49 
2.429;-0.26;-0.02;0.52;0.14;-25.60;-10.64;-135.63;-68.77;-352.00;0.58;136.59;-24.26;5.25 
2.459;-0.25;-0.06;0.58;-2.57;-24.42;-14.89;-137.61;-73.54;-357.00;0.63;137.24;-23.54;4.96 
2.489;-0.26;0.05;0.65;-3.90;-40.00;-22.19;-137.61;-81.18;-357.00;0.70;138.15;-22.65;4.62 
2.519;-0.34;-0.02;0.69;-4.80;-45.15;-13.63;-140.58;-88.82;-353.00;0.77;139.05;-21.41;4.37 
2.550;-0.35;-0.15;0.78;-4.31;-49.39;-26.09;-139.59;-94.55;-358.00;0.87;139.92;-20.16;3.89 
2.580;-0.32;-0.06;0.73;8.83;-76.73;-25.81;-150.48;-114.61;-360.00;0.80;141.32;-18.35;3.57 
2.610;-0.35;-0.19;0.70;18.02;-84.17;-21.22;-144.54;-127.02;-359.00;0.81;142.56;-16.06;3.61 
2.641;-0.34;-0.14;0.66;28.52;-91.90;-35.06;-145.53;-148.04;-364.00;0.76;144.07;-13.55;3.85 
2.671;-0.21;-0.08;0.58;38.12;-81.25;-30.75;-142.56;-174.78;-371.00;0.62;145.68;-11.04;4.51 
2.701;-0.20;-0.11;0.85;43.62;-57.11;-31.17;-127.71;-189.10;-374.00;0.88;147.11;-9.15;5.37 
2.731;-0.42;0.06;1.14;33.74;-103.72;-37.70;-123.75;-203.43;-380.00;1.22;148.58;-7.23;6.18 
2.760;-0.26;-0.01;0.95;26.30;-140.10;-35.41;-121.77;-224.44;-378.00;0.98;150.23;-3.78;7.00 
2.790;-0.11;-0.09;0.91;19.48;-125.36;-24.63;-115.83;-253.09;-380.00;0.92;151.43;-0.25;7.56 
2.820;-0.04;-0.22;0.92;34.16;-131.97;-16.21;-107.91;-287.48;-371.00;0.95;152.19;3.49;8.28 
2.851;-0.14;-0.23;0.97;47.03;-127.65;-20.59;-103.95;-307.53;-365.00;1.01;152.73;7.29;9.21 
2.881;-0.10;0.18;1.06;63.10;-146.99;-15.79;-95.04;-329.50;-365.00;1.08;153.15;11.08;10.85 
2.911;-0.14;0.13;0.84;67.34;-144.49;-8.42;-84.15;-354.33;-354.00;0.86;153.10;15.08;12.84 
2.941;0.22;0.29;0.66;57.32;-122.85;-22.05;-72.27;-382.03;-341.00;0.75;153.09;18.59;14.84 
2.970;1.56;0.30;2.03;95.72;-89.46;-30.12;-56.43;-399.22;-333.00;2.58;153.24;21.43;17.05 
3.000;1.64;0.83;3.91;172.73;-289.67;17.32;-35.64;-419.28;-325.00;4.32;152.18;25.21;20.77 
3.030;1.13;0.12;0.97;58.23;-478.33;30.82;-14.85;-469.90;-279.00;1.49;148.33;36.60;23.96 
3.061;-0.17;-0.02;-0.20;69.57;-210.37;-37.15;-6.93;-524.34;-194.00;0.26;144.78;45.58;25.42 
3.091;0.24;0.20;0.07;94.82;-236.17;-62.47;10.89;-545.35;-156.00;0.32;143.00;48.77;28.92 
3.121;0.38;0.54;-0.04;70.82;-246.12;-2.92;21.78;-556.81;-111.00;0.66;139.63;51.96;31.42 
3.152;0.97;0.89;-0.91;97.32;-256.35;7.30;24.75;-563.49;-64.00;1.60;133.06;55.41;32.55 
3.182;1.33;0.80;-0.71;101.43;-81.25;24.07;13.86;-566.36;-13.00;1.71;126.40;57.31;32.39 
3.212;1.59;0.77;-0.49;86.82;-125.98;44.80;6.93;-563.49;2.00;1.83;121.69;58.33;31.67 
3.242;1.19;0.28;-0.69;46.05;-105.18;33.60;-1.98;-559.67;27.00;1.40;116.37;59.50;30.08 
3.271;0.93;0.09;-0.98;9.95;-81.60;34.99;-6.93;-555.85;46.00;1.35;112.51;60.21;28.66 
3.300;0.47;-0.09;-1.13;-20.24;-72.07;29.36;-15.84;-553.94;65.00;1.23;108.92;60.55;27.40 
3.330;0.32;0.06;-1.10;-19.55;47.23;-11.55;-16.83;-549.17;74.00;1.15;107.36;60.61;26.90 
3.361;0.82;0.22;-0.39;31.79;170.78;-47.03;-11.88;-556.81;51.00;0.93;110.53;60.77;27.68 
3.391;1.22;0.42;0.58;21.91;108.17;-12.94;-5.94;-564.45;20.00;1.41;115.24;60.98;28.59 
3.421;1.03;0.44;0.07;-4.31;-76.45;40.00;-4.95;-565.40;6.00;1.12;115.43;61.62;28.09 
3.452;1.03;0.43;-0.74;-11.76;-43.06;25.60;-15.84;-560.63;23.00;1.34;112.90;62.36;27.00 
3.482;1.01;0.35;-0.70;-9.18;51.55;0.35;-20.79;-560.63;29.00;1.28;112.30;62.90;26.44 
3.512;1.08;0.42;-0.14;-8.42;67.62;-9.46;-17.82;-561.58;13.00;1.17;113.94;63.09;26.61 
3.542;1.06;0.44;0.11;8.14;43.90;10.71;-18.81;-561.58;11.00;1.15;115.27;63.38;26.53 
3.573;0.89;0.42;0.07;11.27;20.66;7.37;-23.76;-560.63;-11.00;0.99;115.72;63.86;26.12 
3.603;1.02;0.40;-0.14;3.55;1.25;-5.08;-23.76;-562.54;-8.00;1.10;115.92;63.92;26.08 
3.633;1.07;0.32;-0.32;-5.29;10.37;-4.24;-18.81;-561.58;-8.00;1.16;116.08;63.90;26.10 
3.664;1.02;0.32;-0.45;-12.73;20.66;-3.48;-20.79;-560.63;-10.00;1.16;116.35;63.90;26.10 
3.694;1.01;0.30;-0.30;-24.42;48.97;-3.48;-16.83;-561.58;-18.00;1.10;117.07;63.92;26.05 
3.724;0.80;0.30;-0.08;-26.64;40.49;-2.64;-12.87;-561.58;-28.00;0.86;118.13;63.87;25.97 
3.754;0.94;0.39;-0.03;-25.88;21.91;-9.67;-15.84;-562.54;-31.00;1.02;119.15;63.59;26.06 
3.784;1.10;0.51;-0.06;-14.68;23.86;-5.15;-9.90;-560.63;-32.00;1.21;119.99;63.28;26.20 
3.814;1.07;0.43;0.00;-2.99;35.27;-4.03;-6.93;-562.54;-38.00;1.15;120.73;63.01;26.25 
3.844;0.74;0.44;-0.05;3.41;24.35;-1.74;-7.92;-560.63;-51.00;0.86;121.39;62.71;26.30 
3.875;1.12;0.22;0.26;1.32;44.52;7.37;-7.92;-561.58;-51.00;1.17;121.64;62.66;26.07 
3.905;1.05;0.54;0.42;2.99;-22.47;-12.52;-6.93;-559.67;-61.00;1.25;122.48;62.08;26.37 
3.935;0.95;0.30;0.03;8.14;-68.31;13.36;-8.91;-562.54;-48.00;1.00;121.46;62.69;26.14 
3.965;0.86;0.23;-0.24;5.15;-28.45;1.18;-6.93;-562.54;-44.00;0.92;119.98;63.52;25.76 
3.995;0.89;0.32;-0.09;3.34;25.60;-11.34;-7.92;-562.54;-34.00;0.95;119.84;63.53;25.80 
4.025;0.93;0.46;0.18;2.09;25.95;-5.01;-5.94;-560.63;-38.00;1.05;120.62;63.06;26.04 
4.054;0.90;0.51;0.08;4.38;-7.03;8.77;-7.92;-562.54;-44.00;1.04;120.83;62.96;26.02 
4.085;0.97;0.43;-0.02;4.52;-8.56;7.10;-5.94;-560.63;-42.00;1.06;120.44;63.25;25.77 
4.114;1.00;0.40;0.02;1.25;-5.98;4.87;-5.94;-562.54;-42.00;1.08;120.20;63.44;25.60 
4.144;1.00;0.39;-0.02;-0.90;-9.67;6.33;-8.91;-563.49;-41.00;1.07;119.99;63.61;25.45 
4.175;1.01;0.32;-0.10;1.46;-11.69;7.65;-12.87;-562.54;-37.00;1.06;119.48;64.00;25.12 
4.205;1.02;0.35;-0.07;5.91;-10.16;5.43;-12.87;-561.58;-34.00;1.08;118.92;64.39;24.82 
4.235;1.00;0.34;-0.12;2.50;-11.13;4.31;-11.88;-562.54;-31.00;1.06;118.44;64.68;24.62 
4.265;0.98;0.34;-0.16;-2.02;-5.91;1.60;-15.84;-564.45;-31.00;1.05;118.04;64.95;24.43 
4.295;1.02;0.38;-0.15;-1.60;2.16;-1.46;-14.85;-560.63;-27.00;1.10;117.90;65.04;24.34 
4.325;1.00;0.34;-0.05;-0.07;0.35;0.97;-16.83;-561.58;-34.00;1.06;117.85;65.10;24.27 
4.354;1.00;0.37;-0.09;-0.28;-1.53;0.70;-16.83;-562.54;-27.00;1.07;117.70;65.22;24.16 
4.384;0.98;0.37;-0.12;-0.56;2.37;-0.56;-15.84;-563.49;-28.00;1.05;117.61;65.29;24.09 
4.414;0.98;0.40;-0.04;0.21;2.92;-1.67;-17.82;-559.67;-27.00;1.06;117.65;65.27;24.08 
4.444;0.95;0.37;-0.10;-0.42;2.57;-0.35;-17.82;-560.63;-30.00;1.02;117.67;65.27;24.06 
4.475;0.99;0.42;0.00;0.83;3.69;0.28;-12.87;-558.72;-32.00;1.08;117.63;65.32;23.98 
4.505;1.00;0.37;0.00;1.53;-2.78;2.99;-15.84;-560.63;-32.00;1.07;117.62;65.36;23.90 
4.535;0.98;0.32;-0.06;0.42;-5.29;2.37;-15.84;-557.76;-31.00;1.03;117.47;65.47;23.79 
4.565;1.01;0.31;-0.07;1.46;-0.77;0.83;-16.83;-559.67;-26.00;1.06;117.26;65.62;23.68 
4.595;1.02;0.34;-0.10;1.18;3.62;1.11;-16.83;-560.63;-32.00;1.08;117.13;65.72;23.58 
4.625;0.98;0.35;-0.06;-0.07;4.17;1.60;-16.83;-561.58;-29.00;1.04;117.04;65.81;23.46 
4.654;0.98;0.40;-0.06;-0.90;2.78;0.07;-18.81;-560.63;-33.00;1.06;116.97;65.89;23.36 
4.685;0.95;0.34;-0.07;-1.32;-1.25;-2.09;-16.83;-561.58;-32.00;1.01;116.97;65.88;23.35 
4.715;1.01;0.40;-0.09;-1.18;-2.92;-4.10;-15.84;-561.58;-31.00;1.09;116.97;65.85;23.40 
4.745;1.02;0.37;-0.14;-0.49;2.43;-3.41;-16.83;-559.67;-28.00;1.09;116.97;65.82;23.45 
4.775;0.99;0.38;-0.09;0.97;5.77;-3.34;-18.81;-561.58;-30.00;1.06;117.03;65.77;23.48 
4.805;0.94;0.38;-0.10;0.28;5.57;-2.09;-13.86;-560.63;-31.00;1.02;117.11;65.70;23.52 
4.835;0.97;0.40;-0.07;-0.90;4.24;-0.77;-12.87;-562.54;-37.00;1.05;117.17;65.66;23.53 
4.865;1.02;0.40;-0.08;0.70;-1.04;-0.28;-14.85;-561.58;-33.00;1.10;117.20;65.62;23.54 
4.895;0.99;0.39;-0.09;-1.32;-2.43;0.56;-16.83;-562.54;-33.00;1.07;117.08;65.70;23.49 
4.925;1.03;0.41;-0.07;-3.83;1.81;-2.43;-14.85;-561.58;-32.00;1.11;117.03;65.74;23.44 
4.955;0.99;0.38;0.00;-4.73;0.77;-0.83;-14.85;-561.58;-33.00;1.06;117.19;65.64;23.49 
4.986;0.99;0.34;0.02;-3.90;-8.35;-0.49;-12.87;-559.67;-31.00;1.05;117.16;65.68;23.44 
5.016;1.00;0.32;0.01;-2.71;-14.47;-1.81;-13.86;-560.63;-28.00;1.05;116.88;65.88;23.31 
5.046;0.94;0.30;-0.07;-3.97;-17.04;-3.69;-12.87;-562.54;-24.00;0.99;116.64;66.01;23.28 
5.076;0.98;0.36;-0.22;-5.22;-12.94;-7.10;-7.92;-561.58;-19.00;1.07;116.44;66.09;23.32 
5.106;1.01;0.48;-0.26;-3.20;5.43;-6.33;-8.91;-560.63;-17.00;1.15;116.51;65.93;23.54 
5.136;0.91;0.46;-0.22;-4.38;24.00;1.81;-10.89;-562.54;-18.00;1.04;116.75;65.78;23.61 
5.166;0.94;0.50;-0.14;-6.68;26.02;2.64;-12.87;-560.63;-23.00;1.07;117.11;65.60;23.63 
5.197;0.95;0.46;-0.11;-12.52;19.90;9.11;-12.87;-562.54;-31.00;1.06;117.40;65.51;23.52 
5.227;1.00;0.36;-0.16;-19.62;19.62;7.23;-13.86;-560.63;-32.00;1.07;117.44;65.63;23.18 
5.257;1.03;0.32;-0.13;-22.61;26.71;4.17;-17.82;-560.63;-35.00;1.09;117.60;65.70;22.83 
5.287;1.02;0.29;0.00;-17.88;28.52;4.73;-16.83;-558.72;-39.00;1.06;117.91;65.60;22.53 
5.316;1.03;0.26;-0.04;-12.66;32.21;3.55;-17.82;-560.63;-43.00;1.06;118.05;65.59;22.13 
5.346;1.01;0.27;0.11;-12.87;34.99;-4.52;-21.78;-557.76;-53.00;1.05;118.46;65.29;21.94 
5.375;0.94;0.22;0.06;-15.10;33.95;-6.12;-18.81;-556.81;-56.00;0.97;119.00;64.84;21.85 
5.404;1.02;0.26;0.03;-12.87;32.90;-10.99;-18.81;-557.76;-62.00;1.05;119.64;64.26;21.89 
5.434;1.06;0.38;0.08;-12.24;33.46;-12.94;-16.83;-556.81;-70.00;1.13;120.39;63.54;22.11 
5.464;0.86;0.32;0.08;-13.98;44.66;-11.34;-10.89;-555.85;-78.00;0.92;121.22;62.72;22.29 
5.495;0.98;0.38;0.14;-10.37;45.50;-11.48;-8.91;-553.94;-86.00;1.06;122.19;61.67;22.50 
5.525;1.02;0.50;0.18;-10.37;37.63;-11.06;-7.92;-554.90;-92.00;1.15;123.17;60.58;22.84 
5.555;0.84;0.38;0.14;-14.05;42.50;-7.30;-6.93;-552.03;-104.00;0.93;123.98;59.62;23.02 
5.585;0.88;0.42;0.18;-11.41;50.78;-5.57;-6.93;-549.17;-113.00;0.99;124.77;58.58;23.09 
5.615;1.02;0.49;0.24;-9.88;39.30;-4.66;-4.95;-549.17;-124.00;1.16;125.46;57.59;23.14 
5.645;0.86;0.39;0.18;-14.47;45.08;1.53;-5.94;-548.21;-134.00;0.96;125.98;56.78;23.10 
5.675;0.86;0.32;0.22;-11.55;58.71;4.80;-4.95;-547.26;-132.00;0.94;126.42;55.78;22.81 
5.706;1.02;0.46;0.30;-8.70;47.23;0.35;-11.88;-535.80;-154.00;1.16;126.82;54.77;22.55 
5.735;0.86;0.42;0.28;-10.71;48.49;8.97;-7.92;-536.75;-163.00;1.00;127.19;53.85;22.38 
5.765;0.83;0.34;0.26;-9.25;59.83;14.54;-11.88;-531.98;-166.00;0.93;127.31;52.94;21.97 
5.796;0.87;0.37;0.39;-4.31;56.28;11.62;-14.85;-526.25;-181.00;1.02;127.37;51.87;21.52 
5.826;0.78;0.30;0.34;-6.89;55.65;12.45;-17.82;-519.56;-194.00;0.90;127.36;50.90;21.14 
5.856;0.80;0.33;0.42;-10.09;59.27;5.84;-22.77;-513.83;-204.00;0.96;127.57;49.66;20.82 
5.886;0.86;0.29;0.51;-11.06;51.48;3.97;-23.76;-510.97;-216.00;1.04;127.80;48.37;20.48 
5.916;0.81;0.23;0.49;-14.40;45.91;1.74;-24.75;-503.32;-221.00;0.97;128.06;47.24;20.16 
5.946;0.74;0.26;0.49;-18.85;44.24;-1.67;-28.71;-500.46;-229.00;0.92;128.36;46.16;19.81 
5.976;0.82;0.24;0.50;-17.67;45.29;-3.06;-31.68;-492.82;-239.00;0.99;128.70;45.13;19.49 
6.007;0.77;0.26;0.50;-15.72;56.28;-9.32;-29.70;-490.91;-243.00;0.95;129.18;43.83;19.28 
6.037;0.72;0.29;0.47;-16.28;60.66;-11.20;-30.69;-485.18;-253.00;0.91;129.89;42.23;19.23 
6.067;0.80;0.34;0.56;-14.33;50.50;-9.60;-30.69;-475.63;-263.00;1.03;130.56;40.66;19.19 
6.097;0.80;0.28;0.46;-10.57;44.59;-15.10;-28.71;-471.81;-268.00;0.96;131.13;39.40;19.22 
6.127;0.74;0.26;0.56;-9.81;57.95;-14.89;-27.72;-467.03;-284.00;0.96;131.81;38.01;19.30 
6.157;0.63;0.18;0.71;-10.85;51.48;-14.82;-28.71;-463.21;-282.00;0.97;132.48;36.39;19.36 
6.187;0.59;0.22;0.71;-10.92;42.57;-26.16;-26.73;-451.75;-295.00;0.95;133.24;34.91;19.42 
6.218;0.52;0.26;0.74;-10.57;35.20;-31.17;-22.77;-449.84;-303.00;0.94;134.30;33.44;19.70 
6.248;0.52;0.30;0.66;-12.59;32.70;-32.21;-20.79;-446.98;-307.00;0.89;135.44;32.12;20.05 
6.278;0.54;0.41;0.66;-12.17;37.36;-35.90;-15.84;-443.15;-310.00;0.95;136.65;30.83;20.43 
6.308;0.51;0.49;0.70;-4.59;37.57;-35.20;-9.90;-440.29;-323.00;1.00;137.91;29.42;20.96 
6.337;0.46;0.38;0.76;3.20;36.24;-29.50;-3.96;-436.47;-327.00;0.97;139.03;28.02;21.64 
6.366;0.44;0.26;0.74;1.95;33.88;-23.51;0.99;-432.65;-330.00;0.90;139.90;26.76;22.19 
6.395;0.40;0.26;0.73;-6.47;23.17;-19.76;4.95;-428.83;-337.00;0.87;140.55;25.74;22.46 
6.424;0.50;0.37;0.77;-10.23;26.30;-23.51;4.95;-429.78;-338.00;0.99;141.24;24.83;22.58 
6.454;0.54;0.43;0.82;-5.84;33.18;-14.68;6.93;-420.23;-345.00;1.07;141.82;23.93;22.71 
6.484;0.59;0.37;0.84;-4.03;47.51;-9.60;8.91;-418.32;-352.00;1.09;142.23;22.84;22.84 
6.513;0.54;0.45;0.99;-12.17;58.50;-6.47;5.94;-407.82;-358.00;1.21;142.54;21.33;22.84 
6.542;0.36;0.48;1.06;-25.81;41.11;-11.69;5.94;-400.18;-368.00;1.22;142.80;19.86;22.50 
6.572;0.40;0.56;0.78;-20.24;6.54;-24.70;8.91;-399.22;-364.00;1.04;143.34;19.09;22.14 
6.603;0.50;0.62;0.81;-2.16;3.20;-27.97;6.93;-398.27;-366.00;1.14;144.18;18.74;22.40 
6.632;0.43;0.51;0.91;-0.70;-9.46;-29.22;11.88;-397.31;-366.00;1.13;145.10;18.54;22.88 
6.661;0.37;0.44;0.93;1.81;-10.23;-25.74;16.83;-400.18;-362.00;1.09;145.87;18.52;23.34 
6.692;0.30;0.43;0.90;-2.09;-11.97;-47.86;20.79;-403.04;-362.00;1.04;146.92;18.37;23.82 
6.722;0.33;0.39;0.93;-2.78;-23.93;-60.66;30.69;-409.73;-362.00;1.06;148.58;18.03;24.35 
6.752;0.33;0.50;0.77;7.44;-53.29;-52.24;37.62;-417.37;-356.00;0.98;150.21;18.27;25.12 
6.782;0.52;0.55;0.77;14.19;-62.47;-53.70;50.49;-428.83;-349.00;1.08;151.63;19.17;26.18 
6.812;0.70;0.59;0.71;15.10;-52.24;-45.15;58.41;-437.42;-345.00;1.16;152.95;20.38;27.42 
6.842;0.51;0.62;0.59;0.00;-37.70;-35.90;67.32;-446.02;-331.00;1.00;154.01;21.19;28.30 
6.872;0.46;0.53;0.57;16.70;-16.70;-22.40;76.23;-450.80;-327.00;0.90;154.73;21.55;29.13 
6.903;0.47;0.34;0.63;41.60;-17.46;-18.85;86.13;-453.66;-323.00;0.86;155.09;21.78;30.25 
6.933;0.38;0.32;0.57;34.92;-16.28;-17.11;98.01;-454.62;-324.00;0.76;155.28;22.05;31.39 
6.963;0.36;0.27;0.52;33.88;-17.60;-20.59;105.93;-458.44;-319.00;0.69;155.49;22.31;32.45 
6.993;0.39;0.31;0.46;33.25;-14.26;-24.63;114.84;-461.30;-315.00;0.68;155.86;22.49;33.65 
7.023;0.24;0.26;0.34;19.06;-9.81;-38.54;127.71;-465.12;-311.00;0.49;156.50;22.43;34.83 
7.052;0.28;0.27;0.45;7.51;15.30;-52.52;135.63;-461.30;-314.00;0.59;157.61;21.69;35.74 
7.082;0.38;0.30;0.42;12.73;16.70;-73.67;147.51;-458.44;-317.00;0.64;159.24;20.31;36.74 
7.112;0.42;0.44;0.34;12.52;21.63;-87.30;174.24;-453.66;-317.00;0.70;161.51;18.50;38.20 
7.142;0.38;0.67;0.54;2.09;29.91;-90.43;189.09;-448.89;-323.00;0.94;164.02;16.32;39.61 
7.172;0.34;0.86;1.02;-27.13;8.63;-95.58;199.98;-441.24;-331.00;1.38;166.75;14.06;40.48 
7.203;0.42;0.74;0.74;-92.10;1.18;-77.29;207.90;-436.47;-337.00;1.13;169.62;12.21;39.16 
7.233;0.37;0.68;0.66;-61.77;25.18;-72.56;204.93;-425.01;-345.00;1.02;171.97;10.75;37.37 
7.263;0.20;0.43;0.77;-62.05;35.27;-76.80;204.93;-419.28;-350.00;0.90;174.29;8.75;35.98 
7.292;0.14;0.38;0.99;-69.01;36.66;-87.37;204.93;-409.73;-361.00;1.07;176.76;6.58;34.22 
7.322;0.07;0.55;0.98;-68.17;41.32;-93.98;206.91;-399.22;-373.00;1.13;179.59;4.27;32.48 
7.352;-0.06;0.39;1.17;-81.46;63.37;-69.36;204.93;-385.85;-377.00;1.23;-177.89;1.79;30.34 
7.382;-0.04;0.45;1.16;-64.28;45.15;-74.09;197.01;-366.75;-395.00;1.24;-175.61;-0.62;28.07 
7.413;0.04;0.26;1.14;-57.18;43.62;-50.02;195.03;-354.33;-401.00;1.17;-173.74;-2.76;25.93 
7.443;-0.10;0.21;0.98;-50.57;38.19;-46.33;186.12;-343.83;-411.00;1.01;-172.27;-4.46;24.13 
7.473;-0.22;0.21;1.05;-56.14;47.23;-37.63;178.20;-331.41;-416.00;1.09;-171.05;-6.22;22.24 
7.503;-0.19;0.13;1.02;-57.88;45.70;-31.79;169.29;-322.82;-422.00;1.05;-170.15;-7.91;20.23 
7.533;-0.23;0.12;0.98;-59.90;43.76;-26.30;161.37;-314.22;-426.00;1.01;-169.41;-9.47;18.17 
7.563;-0.26;0.09;0.98;-51.20;48.14;-19.62;150.48;-309.44;-430.00;1.02;-168.92;-10.98;16.24 
7.593;-0.23;0.19;1.01;-24.00;48.70;-17.04;141.57;-301.80;-433.00;1.05;-168.49;-12.51;14.85 
7.623;-0.25;0.17;1.02;-16.07;48.14;-4.66;140.58;-289.39;-438.00;1.06;-168.22;-14.11;14.03 
7.653;-0.33;0.13;0.96;9.74;27.62;-3.20;139.59;-286.52;-437.00;1.02;-168.12;-15.21;13.77 
7.683;-0.26;0.34;0.93;7.10;30.96;2.92;143.55;-284.61;-439.00;1.02;-167.95;-15.95;14.21 
7.714;-0.28;0.36;0.91;-3.62;27.06;19.34;145.53;-281.75;-439.00;1.02;-168.22;-16.75;14.43 
7.744;-0.21;0.34;0.91;-41.18;36.52;32.28;140.58;-269.33;-444.00;0.99;-169.11;-17.32;14.42 
7.774;-0.18;0.26;0.92;-47.10;25.32;50.92;132.66;-267.42;-439.00;0.97;-170.71;-17.69;13.64 
7.803;-0.22;0.26;0.86;-44.17;34.02;56.28;119.79;-261.69;-440.00;0.92;-172.62;-18.04;12.92 
7.833;-0.26;0.18;0.90;-42.78;41.53;67.97;107.91;-258.83;-439.00;0.95;-174.81;-18.65;12.37 
7.863;-0.26;0.18;0.91;-42.23;43.62;64.21;91.08;-248.32;-441.00;0.96;-177.22;-19.39;11.90 
7.893;-0.26;0.25;0.89;-44.73;39.37;64.90;82.17;-238.77;-438.00;0.96;-179.55;-20.12;11.43 
7.923;-0.37;0.26;0.87;-45.98;34.78;72.90;69.30;-227.31;-441.00;0.98;177.82;-20.75;11.00 
7.952;-0.30;0.18;0.85;-42.09;33.25;70.68;60.39;-221.58;-444.00;0.92;175.24;-21.29;10.67 
7.982;-0.30;0.14;0.87;-40.63;30.19;71.37;50.49;-214.89;-439.00;0.93;172.75;-21.76;10.42 
8.013;-0.34;0.12;0.82;-34.92;19.69;77.36;40.59;-202.48;-435.00;0.90;169.97;-22.06;10.30 
8.043;-0.35;0.12;0.79;-34.78;5.77;77.84;29.70;-195.79;-437.00;0.87;167.14;-21.99;10.29 
8.073;-0.34;0.14;0.69;-33.11;-7.30;79.93;21.78;-194.84;-434.00;0.78;164.50;-21.56;10.32 
8.103;-0.29;0.18;0.57;-30.54;-7.37;84.52;16.83;-189.10;-434.00;0.66;161.79;-20.86;10.51 
8.133;-0.34;0.21;0.49;-28.38;0.63;82.99;6.93;-185.28;-432.00;0.63;158.97;-20.28;10.86 
8.163;-0.33;0.22;0.49;-31.65;9.53;80.28;-2.97;-180.51;-427.00;0.63;156.27;-20.09;11.16 
8.193;-0.31;0.18;0.39;-33.11;-1.60;71.51;-1.98;-172.87;-425.00;0.53;153.81;-19.91;11.36 
8.224;-0.29;0.26;0.37;-33.04;-1.60;66.37;-13.86;-170.96;-426.00;0.54;151.39;-19.52;11.58 
8.254;-0.32;0.14;0.30;-37.22;0.63;72.77;-25.74;-167.14;-420.00;0.46;148.92;-19.34;11.70 
8.284;-0.41;0.05;0.37;-32.70;7.10;63.79;-25.74;-161.41;-416.00;0.55;146.60;-19.25;11.59 
8.315;-0.47;0.10;0.57;-30.54;36.38;31.65;-31.68;-153.77;-415.00;0.75;144.74;-19.85;11.33 
8.345;-0.44;0.20;1.00;-25.25;43.76;23.58;-39.60;-139.44;-411.00;1.11;143.41;-21.12;10.85 
8.374;-0.57;0.18;1.25;-46.47;5.91;38.54;-47.52;-131.80;-411.00;1.39;142.11;-21.73;10.46 
8.404;-0.56;0.10;1.09;-35.69;-35.62;37.01;-60.39;-131.80;-403.00;1.23;140.83;-21.08;9.84 
8.434;-0.46;0.10;0.82;-23.44;-37.08;37.01;-62.37;-137.53;-402.00;0.95;139.86;-19.82;9.47 
8.464;-0.35;0.07;0.68;-11.13;-20.38;38.61;-64.35;-137.53;-400.00;0.77;138.93;-18.80;9.45 
8.494;-0.35;0.07;0.62;-6.89;1.53;35.41;-65.34;-137.53;-401.00;0.72;137.94;-18.34;9.69 
8.525;-0.41;0.05;0.68;-11.41;22.19;27.55;-68.31;-133.71;-401.00;0.80;136.93;-18.62;9.90 
8.555;-0.41;-0.06;0.82;-18.57;22.19;16.83;-71.28;-126.07;-399.00;0.92;136.05;-19.27;9.74 
8.584;-0.50;-0.02;0.87;-21.43;7.03;11.20;-73.26;-123.20;-399.00;1.00;135.48;-19.69;9.37 
8.613;-0.48;-0.06;0.86;-21.50;-2.85;8.14;-79.20;-121.29;-394.00;0.99;135.13;-19.82;8.89 
8.642;-0.39;-0.13;0.86;-20.10;-2.16;6.96;-81.18;-121.29;-391.00;0.95;134.90;-19.70;8.35 
8.672;-0.31;-0.12;0.84;-17.11;3.13;6.05;-86.13;-119.38;-390.00;0.90;134.72;-19.63;7.82 
8.702;-0.30;-0.17;0.91;-18.37;4.24;5.77;-90.09;-117.47;-388.00;0.97;134.52;-19.66;7.33 
8.732;-0.30;-0.18;0.94;-18.64;-3.97;0.49;-93.06;-115.56;-389.00;1.00;134.44;-19.59;6.73 
8.762;-0.26;-0.14;0.94;-21.50;-11.55;1.46;-98.01;-119.38;-386.00;0.99;134.50;-19.24;6.11 
8.792;-0.23;-0.10;0.80;-20.80;-10.64;3.13;-101.97;-121.29;-383.00;0.84;134.54;-18.78;5.48 
8.823;-0.22;-0.08;0.78;-17.60;-2.57;11.62;-104.94;-122.25;-385.00;0.81;134.40;-18.42;4.99 
8.853;-0.26;-0.11;0.80;-14.26;5.15;14.47;-109.89;-119.38;-378.00;0.85;134.03;-18.33;4.62 
8.883;-0.21;-0.13;0.86;-12.31;6.26;14.26;-113.85;-117.47;-378.00;0.89;133.61;-18.40;4.31 
8.913;-0.27;-0.18;0.85;-8.42;3.20;13.98;-113.85;-117.47;-376.00;0.91;133.24;-18.43;4.09 
8.943;-0.27;-0.12;0.87;-4.45;-0.07;13.98;-114.84;-113.65;-376.00;0.92;132.95;-18.37;3.99 
8.973;-0.34;-0.10;0.88;0.35;-3.76;16.21;-115.83;-111.74;-372.00;0.95;132.62;-18.25;4.05 
9.003;-0.31;-0.10;0.82;4.87;-6.54;16.90;-113.85;-112.70;-375.00;0.88;132.29;-18.04;4.26 
9.034;-0.32;-0.15;0.81;6.19;-4.10;17.46;-109.89;-110.79;-374.00;0.88;131.97;-17.80;4.54 
9.064;-0.37;-0.19;0.83;5.50;0.00;15.37;-108.90;-110.79;-375.00;0.93;131.65;-17.69;4.78 
9.094;-0.34;-0.18;0.83;5.50;-3.27;13.50;-106.92;-109.83;-378.00;0.91;131.38;-17.59;4.99 
9.125;-0.37;-0.15;0.85;5.36;-3.83;9.53;-104.94;-106.97;-383.00;0.94;131.21;-17.47;5.18 
9.155;-0.36;-0.10;0.83;5.77;-3.97;7.51;-103.95;-104.10;-380.00;0.91;131.15;-17.33;5.39 
9.185;-0.35;-0.08;0.80;6.47;-5.84;7.44;-101.97;-107.92;-381.00;0.88;131.11;-17.18;5.62 
9.215;-0.35;-0.07;0.82;5.63;-2.71;4.38;-100.98;-106.97;-384.00;0.89;131.12;-17.05;5.86 
9.245;-0.36;-0.02;0.77;3.20;1.60;3.34;-98.01;-106.97;-383.00;0.85;131.14;-17.06;6.05 
9.274;-0.33;-0.03;0.78;-1.88;2.02;5.77;-100.98;-107.92;-382.00;0.85;131.13;-17.14;6.16 
9.303;-0.29;0.00;0.79;-4.17;7.93;4.80;-96.03;-103.15;-383.00;0.84;131.06;-17.24;6.15 
9.334;-0.33;0.00;0.82;-5.08;11.13;6.12;-97.02;-105.06;-378.00;0.88;130.92;-17.51;6.13 
9.364;-0.33;0.01;0.88;-2.09;7.17;9.18;-99.99;-100.28;-378.00;0.94;130.75;-17.75;6.16 
9.394;-0.41;0.01;0.84;1.67;0.56;9.11;-96.03;-97.42;-380.00;0.93;130.56;-17.77;6.37 
9.424;-0.44;0.00;0.83;2.78;2.50;7.79;-98.01;-97.42;-375.00;0.94;130.43;-17.70;6.66 
9.454;-0.43;0.03;0.88;3.20;2.99;4.73;-98.01;-95.51;-384.00;0.98;130.35;-17.82;6.88 
9.483;-0.46;0.06;0.85;4.24;-2.37;0.42;-97.02;-96.46;-378.00;0.97;130.39;-17.88;7.09 
9.513;-0.39;0.10;0.82;5.77;-4.38;1.95;-96.03;-96.46;-379.00;0.91;130.54;-17.83;7.34 
9.543;-0.41;0.13;0.79;8.07;-0.49;3.69;-91.08;-96.46;-378.00;0.90;130.63;-17.79;7.71 
9.573;-0.39;0.15;0.82;10.85;0.63;8.28;-90.09;-95.51;-381.00;0.92;130.65;-17.82;8.18 
9.603;-0.42;0.14;0.78;11.76;4.38;9.11;-91.08;-94.55;-380.00;0.90;130.52;-17.90;8.74 
9.634;-0.41;0.16;0.79;10.92;9.25;6.05;-84.15;-90.73;-382.00;0.90;130.42;-18.14;9.29 
9.663;-0.41;0.14;0.84;9.53;9.25;4.17;-84.15;-89.78;-384.00;0.95;130.36;-18.48;9.80 
9.693;-0.38;0.11;0.79;7.72;3.69;0.42;-81.18;-86.91;-386.00;0.88;130.39;-18.72;10.18 
9.724;-0.42;0.19;0.80;3.69;1.95;-4.31;-80.19;-85.96;-386.00;0.92;130.59;-18.83;10.48 
9.754;-0.37;0.15;0.82;-1.04;9.04;-7.86;-82.17;-87.87;-385.00;0.91;130.85;-19.03;10.60 
9.784;-0.36;0.09;0.89;-2.78;11.90;-8.97;-78.21;-86.91;-381.00;0.96;131.11;-19.40;10.55 
9.814;-0.38;0.09;0.89;-2.02;4.24;-10.02;-81.18;-86.91;-381.00;0.97;131.42;-19.72;10.43 
9.845;-0.43;0.14;0.82;-0.63;-7.65;-7.93;-79.20;-85.96;-385.00;0.94;131.83;-19.76;10.38 
9.875;-0.39;0.17;0.79;1.32;-10.64;-4.59;-81.18;-91.69;-384.00;0.90;132.25;-19.53;10.44 
9.905;-0.31;0.14;0.80;0.56;-4.38;-2.78;-81.18;-88.82;-383.00;0.87;132.55;-19.34;10.58 
9.935;-0.30;0.07;0.82;-3.55;2.57;-5.01;-82.17;-93.60;-384.00;0.88;132.77;-19.31;10.61 
9.965;-0.32;0.02;0.89;-7.86;5.15;-12.17;-86.13;-92.64;-384.00;0.95;133.07;-19.42;10.37 
9.995;-0.40;0.00;0.94;-6.68;-1.74;-16.14;-90.09;-92.64;-384.00;1.02;133.53;-19.55;10.11 
10.025;-0.38;0.02;0.88;-4.24;-14.19;-15.93;-88.11;-95.51;-382.00;0.96;134.14;-19.41;9.81 
10.055;-0.39;0.09;0.82;-2.50;-14.26;-11.06;-88.11;-98.37;-383.00;0.91;134.81;-19.07;9.62 
10.085;-0.40;0.09;0.82;-0.28;-7.86;-4.10;-89.10;-104.10;-383.00;0.92;135.23;-18.85;9.56 
10.115;-0.39;0.06;0.84;1.18;-6.54;1.11;-88.11;-107.92;-384.00;0.93;135.46;-18.69;9.62 
10.146;-0.34;0.02;0.82;1.46;-8.35;3.76;-93.06;-109.83;-385.00;0.89;135.57;-18.48;9.72 
10.176;-0.33;0.02;0.81;1.18;-7.93;4.45;-94.05;-109.83;-383.00;0.87;135.65;-18.22;9.80 
10.206;-0.34;0.02;0.78;0.77;-4.24;4.24;-86.13;-109.83;-387.00;0.85;135.69;-18.04;9.86 
10.236;-0.35;0.01;0.78;0.21;-0.07;3.76;-89.10;-108.88;-388.00;0.85;135.71;-18.00;9.91 
10.266;-0.34;0.02;0.83;0.63;1.81;4.03;-86.13;-110.79;-385.00;0.90;135.71;-17.97;10.08 
10.296;-0.38;0.04;0.84;2.09;2.09;4.17;-89.10;-107.92;-388.00;0.92;135.70;-18.02;10.15 
10.326;-0.37;0.00;0.90;3.97;3.41;1.39;-87.12;-107.92;-389.00;0.97;135.73;-18.08;10.36 
10.357;-0.37;-0.05;0.85;5.70;-4.87;-2.16;-85.14;-106.97;-388.00;0.93;135.91;-18.08;10.48 
10.387;-0.38;-0.06;0.83;5.22;-2.85;-11.20;-86.13;-110.79;-387.00;0.91;136.30;-18.03;10.51 
10.417;-0.38;-0.05;0.84;3.34;-0.97;-19.48;-82.17;-112.70;-386.00;0.92;136.91;-18.15;10.40 
10.448;-0.36;0.00;0.82;3.41;-9.95;-23.93;-86.13;-113.65;-389.00;0.90;137.77;-18.16;10.20 
10.478;-0.37;-0.02;0.83;5.57;-9.74;-25.46;-84.15;-120.34;-390.00;0.91;138.76;-18.05;10.04 
