Time(s) acc_x(g) acc_y(g) acc_z(g) gyr_x(°/s) gyr_y(°/s) gyr_z(°/s) mag_x(G) mag_y(G) mag_z(G) SVM(g) yaw(°) pitch(°) roll(°)
0.000;-0.27;0.16;0.91;3.27;0.77;-1.39;-76.87;-249.86;-350.00;0.96;-176.89;-15.62;-1.88 
0.029;-0.25;0.18;0.86;0.77;-4.17;1.53;-79.87;-250.82;-352.00;0.91;-177.02;-15.59;-1.77 
0.059;-0.22;0.14;0.81;1.25;6.12;2.30;-76.87;-249.86;-351.00;0.85;-177.21;-15.64;-1.71 
0.088;-0.26;0.16;0.89;1.81;6.47;2.30;-77.87;-248.90;-350.00;0.94;-177.42;-15.89;-1.61 
0.117;-0.22;0.21;0.86;1.25;3.34;4.66;-74.87;-249.86;-349.00;0.91;-177.64;-16.05;-1.49 
0.147;-0.22;0.21;0.86;-0.70;2.43;7.51;-73.88;-247.95;-353.00;0.91;-177.96;-16.15;-1.36 
0.176;-0.26;0.14;0.83;-1.46;2.30;6.96;-74.87;-246.03;-353.00;0.88;-178.37;-16.23;-1.28 
0.205;-0.24;0.14;0.83;-1.95;1.39;3.48;-72.88;-247.95;-351.00;0.88;-178.66;-16.28;-1.28 
0.234;-0.24;0.18;0.88;-0.70;3.83;3.83;-71.88;-246.99;-350.00;0.93;-178.90;-16.38;-1.22 
0.263;-0.23;0.18;0.86;-0.14;2.99;6.54;-72.88;-243.16;-353.00;0.91;-179.21;-16.48;-1.13 
0.292;-0.25;0.15;0.85;-0.21;2.50;5.63;-72.88;-241.25;-352.00;0.90;-179.52;-16.57;-1.06 
0.322;-0.26;0.17;0.88;-0.07;2.64;5.29;-75.87;-246.03;-355.00;0.93;-179.81;-16.66;-1.00 
0.351;-0.26;0.16;0.86;-0.83;0.35;4.66;-72.88;-240.29;-352.00;0.91;179.88;-16.72;-0.92 
0.380;-0.23;0.14;0.85;-0.49;0.14;2.71;-72.88;-240.29;-355.00;0.89;179.62;-16.75;-0.86 
0.409;-0.23;0.15;0.87;-0.28;0.21;2.85;-71.88;-240.29;-353.00;0.91;179.42;-16.75;-0.80 
0.438;-0.26;0.18;0.80;-0.35;-0.70;2.71;-68.88;-240.29;-357.00;0.86;179.21;-16.76;-0.75 
0.467;-0.26;0.15;0.83;-0.77;-1.39;2.50;-71.88;-241.25;-354.00;0.88;179.00;-16.74;-0.66 
0.496;-0.24;0.14;0.83;-0.42;1.39;0.83;-70.88;-238.37;-354.00;0.88;178.80;-16.75;-0.62 
0.525;-0.26;0.15;0.85;0.28;3.13;-0.97;-75.87;-239.33;-355.00;0.90;178.67;-16.83;-0.58 
0.554;-0.25;0.17;0.86;-0.35;0.42;-0.83;-67.89;-241.25;-353.00;0.91;178.58;-16.89;-0.54 
0.583;-0.23;0.17;0.85;0.00;0.97;-0.63;-72.88;-240.29;-353.00;0.90;178.47;-16.92;-0.49 
0.613;-0.25;0.18;0.86;0.07;0.56;-0.42;-71.88;-239.33;-352.00;0.91;178.35;-16.95;-0.44 
0.642;-0.25;0.15;0.85;0.07;0.49;-0.42;-72.88;-243.16;-353.00;0.90;178.23;-16.97;-0.39 
0.672;-0.24;0.15;0.85;0.07;-0.49;-0.21;-71.88;-241.25;-354.00;0.90;178.11;-16.98;-0.35 
0.703;-0.26;0.15;0.86;0.42;1.11;-1.67;-69.88;-241.25;-354.00;0.91;178.01;-16.99;-0.31 
0.733;-0.26;0.14;0.86;0.14;0.07;-1.95;-69.88;-240.29;-351.00;0.91;177.93;-17.01;-0.28 
0.763;-0.25;0.15;0.82;0.14;-0.49;-1.32;-67.89;-244.12;-352.00;0.87;177.86;-17.00;-0.25 
0.793;-0.26;0.14;0.86;0.70;-0.97;-0.97;-70.88;-244.12;-352.00;0.91;177.77;-17.01;-0.19 
0.823;-0.30;0.18;0.82;0.00;-0.83;-3.06;-72.88;-241.25;-353.00;0.89;177.70;-17.05;-0.13 
0.853;-0.27;0.17;0.84;-0.56;-3.41;-2.50;-72.88;-241.25;-355.00;0.90;177.64;-17.04;-0.12 
0.883;-0.26;0.18;0.85;0.14;-1.18;-1.74;-70.88;-240.29;-353.00;0.91;177.58;-17.01;-0.09 
0.914;-0.25;0.15;0.82;-0.21;-0.35;-1.39;-76.87;-244.12;-356.00;0.87;177.50;-17.00;-0.02 
0.944;-0.26;0.14;0.85;-0.07;0.35;-1.04;-72.88;-239.33;-355.00;0.90;177.40;-17.02;0.02 
0.974;-0.27;0.15;0.86;0.14;-0.83;-0.97;-70.88;-243.16;-352.00;0.91;177.30;-17.03;0.05 
1.004;-0.30;0.18;0.87;-0.28;-2.37;-1.32;-71.88;-241.25;-356.00;0.94;177.20;-17.01;0.07 
1.034;-0.31;0.15;0.86;-0.07;-3.55;-2.23;-70.88;-245.07;-355.00;0.93;177.13;-16.96;0.09 
1.064;-0.29;0.17;0.88;0.56;-4.31;-3.76;-70.88;-248.90;-355.00;0.94;177.07;-16.88;0.10 
1.094;-0.26;0.16;0.83;0.97;-6.40;-4.03;-73.88;-246.99;-357.00;0.88;177.07;-16.74;0.14 
1.123;-0.23;0.15;0.83;0.49;-8.56;-4.73;-73.88;-250.82;-353.00;0.87;177.09;-16.53;0.15 
1.152;-0.28;0.18;0.86;0.35;-7.65;-4.24;-75.87;-250.82;-352.00;0.92;177.09;-16.33;0.20 
1.181;-0.30;0.15;0.86;0.83;-8.07;-2.78;-72.88;-257.52;-353.00;0.92;177.06;-16.17;0.24 
1.211;-0.34;0.18;0.86;0.83;-8.70;-5.08;-74.87;-255.61;-357.00;0.94;177.04;-15.99;0.30 
1.240;-0.30;0.15;0.89;0.07;-12.66;-5.57;-73.88;-257.52;-356.00;0.95;177.06;-15.77;0.33 
1.269;-0.26;0.17;0.85;0.63;-16.07;-6.68;-74.87;-259.43;-355.00;0.90;177.12;-15.41;0.32 
1.300;-0.26;0.14;0.79;1.74;-15.86;-7.17;-72.88;-263.26;-354.00;0.84;177.20;-14.98;0.34 
1.330;-0.27;0.16;0.84;1.74;-16.90;-8.42;-71.88;-266.14;-359.00;0.90;177.34;-14.56;0.41 
1.360;-0.25;0.18;0.82;1.60;-19.69;-7.93;-71.88;-272.84;-356.00;0.88;177.46;-14.11;0.46 
1.390;-0.26;0.13;0.79;2.92;-21.15;-7.44;-73.88;-275.71;-358.00;0.84;177.58;-13.56;0.52 
1.420;-0.26;0.13;0.85;5.08;-20.87;-9.04;-72.88;-280.50;-361.00;0.90;177.72;-13.05;0.64 
1.450;-0.21;0.22;0.84;-1.46;-28.59;-3.06;-68.88;-291.98;-359.00;0.89;177.81;-12.42;0.74 
1.480;-0.14;0.15;0.79;-3.13;-25.46;-3.06;-72.88;-296.77;-359.00;0.82;177.74;-11.59;0.74 
1.511;-0.19;0.13;0.86;1.25;-16.56;-4.38;-73.88;-299.64;-356.00;0.89;177.69;-10.96;0.74 
1.541;-0.19;0.10;0.90;2.71;-20.59;-10.99;-72.88;-299.64;-359.00;0.93;177.81;-10.48;0.77 
1.571;-0.09;0.08;0.91;1.88;-34.37;-14.75;-73.88;-310.17;-358.00;0.92;178.06;-9.68;0.73 
1.601;-0.02;0.18;0.90;4.03;-26.92;-11.83;-72.88;-315.92;-358.00;0.92;178.35;-8.67;0.77 
1.631;-0.14;0.22;0.96;3.48;-31.30;-5.57;-74.87;-321.66;-360.00;0.99;178.50;-7.83;0.89 
1.661;-0.11;0.19;0.90;0.14;-46.82;-1.95;-71.88;-327.40;-362.00;0.93;178.50;-6.73;0.99 
1.691;-0.07;0.14;0.81;-3.41;-47.51;-1.18;-74.87;-341.76;-358.00;0.82;178.39;-5.33;0.99 
1.722;-0.10;0.19;0.84;-1.60;-40.63;0.28;-71.88;-350.38;-359.00;0.87;178.28;-4.02;0.96 
1.752;-0.11;0.20;0.90;-2.92;-42.16;5.01;-73.88;-357.08;-359.00;0.93;178.07;-2.86;0.97 
1.782;-0.14;0.14;0.77;-4.59;-51.83;7.30;-71.88;-363.78;-355.00;0.80;177.78;-1.54;0.93 
1.813;-0.10;0.11;0.70;0.56;-41.25;-1.11;-73.88;-377.18;-354.00;0.72;177.55;-0.25;0.85 
1.843;-0.09;0.18;0.75;-0.63;-34.85;1.95;-71.88;-382.93;-352.00;0.78;177.42;0.76;0.89 
1.872;-0.06;0.22;0.77;0.21;-39.58;3.97;-75.87;-388.67;-351.00;0.80;177.24;1.78;0.98 
1.901;-0.13;0.14;0.69;1.04;-39.37;8.21;-76.87;-393.46;-346.00;0.72;176.92;2.72;1.10 
1.930;-0.14;0.13;0.54;-2.92;-43.55;7.93;-75.87;-401.12;-347.00;0.57;176.59;3.68;1.11 
1.959;0.01;0.17;0.44;0.00;-34.37;7.37;-78.87;-409.73;-345.00;0.47;176.27;4.67;1.14 
1.989;0.02;0.14;0.54;2.99;-17.53;18.71;-78.87;-415.48;-341.00;0.56;175.79;5.46;1.32 
2.019;-0.18;0.03;0.65;-0.63;-19.20;11.34;-80.86;-413.56;-339.00;0.68;175.17;5.77;1.34 
2.049;-0.14;0.13;0.52;-1.74;-36.80;1.18;-79.87;-417.39;-337.00;0.55;174.91;6.26;1.26 
2.079;0.06;0.18;0.33;-1.18;-28.45;10.92;-84.86;-424.09;-330.00;0.38;174.65;7.15;1.39 
2.110;0.02;0.04;0.45;2.71;-0.49;17.25;-85.86;-423.14;-332.00;0.45;174.04;7.62;1.54 
2.140;-0.15;0.13;0.52;-5.77;-9.95;9.32;-84.86;-421.22;-328.00;0.56;173.49;7.43;1.46 
2.170;0.00;0.18;0.35;-10.92;-18.78;12.94;-86.85;-422.18;-324.00;0.39;173.15;7.64;1.39 
2.200;0.11;0.00;0.50;2.57;-3.62;22.54;-94.84;-421.22;-321.00;0.51;172.45;8.02;1.20 
2.230;-0.17;0.15;0.78;-4.59;-30.26;11.76;-95.84;-419.31;-317.00;0.81;171.70;8.23;1.13 
2.260;0.24;0.22;0.74;-11.55;-78.54;19.27;-97.84;-427.92;-313.00;0.81;171.34;9.94;0.85 
2.290;-0.14;-0.02;0.94;-6.89;-95.86;27.97;-104.82;-426.97;-305.00;0.95;170.32;12.00;0.51 
2.320;0.10;0.02;0.62;-19.62;-178.09;11.06;-107.82;-443.24;-295.00;0.63;169.55;16.28;-0.11 
2.350;-0.10;0.17;0.29;-7.93;-158.19;25.74;-115.81;-474.83;-269.00;0.35;168.69;21.66;-0.90 
2.380;-0.21;0.00;0.46;-5.50;-187.76;38.26;-120.80;-490.15;-257.00;0.51;167.36;25.77;-1.14 
2.411;0.42;-0.22;0.17;-8.63;-180.10;2.64;-128.78;-509.30;-234.00;0.50;165.78;31.62;-2.31 
2.441;2.86;0.91;1.62;19.76;41.11;-82.43;-137.77;-533.23;-217.00;3.41;165.81;35.22;-1.98 
2.471;6.03;2.58;8.74;114.37;1119.58;-39.10;-109.82;-491.11;-280.00;10.93;169.16;18.79;2.89 
2.501;-3.39;1.12;-0.37;-173.50;194.64;352.77;-103.83;-343.68;-340.00;3.59;163.12;7.51;-1.67 
2.531;1.37;-1.06;-0.26;-309.29;-457.32;-92.24;-124.79;-332.19;-324.00;1.75;158.72;0.45;4.12 
2.561;0.82;-1.10;-1.52;-232.70;-280.42;-209.60;-173.71;-394.42;-290.00;2.05;164.46;-10.31;12.02 
2.591;1.98;-1.04;-0.41;52.94;-5.70;-36.52;-194.67;-464.30;-261.00;2.27;169.55;-17.25;15.09 
2.622;1.57;0.27;0.38;65.81;145.46;-35.34;-177.70;-451.86;-284.00;1.64;169.59;-15.10;12.60 
2.651;1.40;0.35;1.47;-22.82;200.00;-36.87;-165.72;-438.45;-293.00;2.06;171.36;-11.75;11.36 
2.681;0.22;-0.02;1.54;-54.33;167.10;32.70;-168.72;-426.97;-300.00;1.56;171.79;-4.38;12.39 
2.711;0.50;-0.27;0.54;-76.52;-57.04;-10.30;-188.68;-397.29;-290.00;0.78;171.67;-3.88;14.28 
2.741;0.48;-0.39;-0.15;-26.16;-8.77;5.70;-192.68;-403.03;-278.00;0.64;172.02;-5.57;16.80 
2.771;0.78;-0.13;0.42;-4.03;34.02;-11.62;-199.67;-401.12;-277.00;0.90;172.44;-5.77;17.35 
2.801;0.54;-0.28;0.57;-15.44;57.11;19.48;-200.66;-396.33;-278.00;0.83;172.39;-4.92;17.87 
2.831;0.40;-0.54;0.88;-1.60;67.62;9.18;-205.66;-381.97;-281.00;1.11;172.11;-3.44;18.43 
2.860;0.06;-0.34;1.12;21.22;74.16;21.01;-202.66;-369.53;-282.00;1.17;171.68;-1.32;18.36 
2.890;0.18;0.14;0.95;-8.63;61.08;16.42;-198.67;-361.87;-282.00;0.98;171.06;0.61;17.84 
2.921;0.33;-0.32;0.98;-16.70;67.76;22.75;-201.66;-347.51;-285.00;1.08;170.49;2.39;18.20 
2.951;0.13;-0.33;0.78;3.06;76.66;22.19;-206.65;-330.28;-282.00;0.86;169.62;4.64;18.56 
2.981;0.37;-0.09;0.97;10.71;88.90;28.66;-203.66;-317.83;-284.00;1.04;168.94;6.85;18.20 
3.011;0.02;-0.17;0.78;1.25;109.63;41.60;-200.66;-299.64;-284.00;0.80;167.86;9.73;17.91 
3.041;-0.13;-0.31;0.97;8.42;104.83;36.80;-198.67;-279.54;-278.00;1.03;166.44;13.27;17.53 
3.070;-0.10;-0.22;0.82;13.77;107.27;29.70;-196.67;-263.26;-280.00;0.85;165.34;16.41;17.05 
3.100;-0.26;-0.06;0.87;15.30;119.51;34.92;-189.68;-232.63;-275.00;0.91;164.24;19.69;16.28 
3.131;-0.46;-0.26;0.81;5.63;120.42;27.90;-186.69;-215.40;-269.00;0.97;162.89;23.47;15.57 
3.161;-0.42;-0.10;0.76;18.37;113.11;19.48;-182.69;-198.17;-263.00;0.87;161.65;27.17;14.94 
3.191;-0.34;-0.10;0.78;14.68;123.62;17.60;-178.70;-183.81;-255.00;0.86;160.67;30.66;14.14 
3.221;-0.57;-0.07;0.61;21.43;148.38;29.43;-174.71;-156.04;-237.00;0.84;159.43;34.56;13.36 
3.251;-1.48;0.01;0.67;10.23;159.51;-8.00;-168.72;-144.56;-233.00;1.62;157.22;39.53;12.24 
3.281;-0.90;0.00;0.93;33.74;144.83;-31.93;-164.72;-123.49;-213.00;1.29;156.38;43.42;11.31 
3.311;-0.68;0.10;0.86;2.43;176.14;-39.58;-164.72;-113.92;-197.00;1.10;156.56;47.31;11.39 
3.341;-0.84;-0.09;0.74;-14.89;131.27;-34.50;-173.71;-98.60;-161.00;1.12;154.72;51.86;12.58 
3.370;-0.66;-0.26;0.80;-10.23;142.26;-14.12;-171.71;-93.82;-136.00;1.07;152.94;55.29;13.14 
3.400;-1.02;-0.10;0.45;-6.82;87.79;-26.92;-173.71;-91.90;-107.00;1.12;150.04;58.49;14.06 
3.431;-0.61;0.10;0.77;-15.79;19.83;-7.93;-166.72;-95.73;-85.00;0.99;148.49;59.97;14.36 
3.461;-0.71;-0.14;0.61;-49.32;6.96;2.92;-158.73;-94.77;-62.00;0.95;146.39;60.25;14.69 
3.491;-0.87;-0.05;0.45;-66.92;-26.92;3.90;-160.73;-90.95;-58.00;0.98;143.89;60.14;15.08 
3.520;-0.77;-0.32;0.38;-74.16;-32.56;2.43;-168.72;-97.65;-49.00;0.92;141.93;59.36;15.80 
3.549;-0.66;-0.28;0.46;-79.17;-24.35;-9.88;-174.71;-96.69;-43.00;0.85;140.11;58.59;16.67 
3.579;-0.58;-0.32;0.38;-76.80;-5.15;-21.77;-177.70;-103.39;-29.00;0.76;138.77;57.84;18.02 
3.609;-0.80;-0.26;0.24;-61.36;0.42;-14.89;-191.68;-110.09;-21.00;0.87;137.46;57.44;19.40 
3.639;-0.78;-0.48;0.18;-38.75;-1.11;-4.66;-198.67;-112.96;-11.00;0.93;136.00;57.36;20.36 
3.669;-0.58;-0.31;0.50;-13.91;11.90;-7.03;-203.66;-113.92;-6.00;0.83;135.38;57.17;21.01 
3.699;-0.87;-0.26;0.10;-45.98;30.61;-1.81;-213.64;-110.09;-8.00;0.91;133.91;57.73;21.38 
3.730;-0.96;-0.47;0.28;-19.97;26.09;-0.97;-220.63;-107.22;6.00;1.10;132.23;58.47;21.89 
3.760;-0.78;-0.19;0.25;-16.07;36.45;2.23;-226.62;-107.22;15.00;0.84;130.82;59.32;21.88 
3.790;-0.77;-0.26;0.10;-13.01;52.87;9.95;-230.61;-111.05;22.00;0.82;129.13;60.45;21.85 
3.820;-1.02;-0.20;0.07;-28.94;53.50;25.74;-229.62;-100.52;28.00;1.04;126.72;62.11;21.40 
3.850;-1.06;-0.19;0.03;-11.27;52.38;21.15;-225.62;-96.69;43.00;1.08;123.92;63.97;20.64 
3.880;-0.84;-0.10;0.12;-24.83;70.89;18.50;-222.63;-89.99;54.00;0.85;121.46;65.65;19.97 
3.910;-1.12;-0.10;-0.06;-17.81;70.05;18.78;-222.63;-85.20;68.00;1.13;118.58;67.59;19.30 
3.941;-1.06;-0.10;-0.06;-15.37;70.40;27.34;-219.63;-83.29;82.00;1.07;115.63;69.49;18.46 
3.971;-1.20;-0.15;-0.10;-5.43;78.33;37.98;-215.64;-76.59;98.00;1.21;112.39;71.59;17.27 
4.001;-1.24;-0.14;-0.09;-6.12;62.54;39.65;-206.65;-72.76;111.00;1.25;109.30;73.58;15.86 
4.032;-1.33;-0.17;-0.11;-11.62;63.23;33.95;-195.67;-68.93;118.00;1.35;106.36;75.33;14.51 
4.061;-1.28;-0.19;-0.14;-10.09;65.81;33.53;-192.68;-63.18;128.00;1.30;103.69;76.68;13.31 
4.091;-1.29;-0.17;-0.13;-14.05;62.12;30.68;-184.69;-61.27;141.00;1.31;101.21;77.70;12.18 
4.121;-1.26;-0.18;-0.14;-13.70;54.68;29.63;-182.69;-58.40;151.00;1.28;98.97;78.35;11.10 
4.151;-1.28;-0.12;-0.10;-16.28;52.31;27.27;-174.71;-56.48;164.00;1.29;96.87;78.76;9.97 
4.181;-1.29;-0.25;-0.20;-5.50;49.95;25.74;-166.72;-54.57;169.00;1.33;95.10;78.72;9.03 
4.211;-1.19;-0.21;-0.13;8.21;41.60;31.65;-162.73;-56.48;177.00;1.22;93.58;78.49;8.18 
4.242;-1.14;-0.09;-0.20;8.83;39.58;31.51;-154.74;-54.57;182.00;1.16;92.01;78.25;7.19 
4.272;-1.21;0.00;-0.23;4.52;37.77;36.24;-147.75;-50.74;185.00;1.23;90.41;77.99;6.06 
4.302;-1.20;-0.10;-0.19;8.42;34.16;33.32;-144.76;-52.65;189.00;1.22;88.91;77.62;4.95 
4.331;-1.22;-0.08;-0.20;19.20;26.64;25.25;-140.76;-53.61;188.00;1.24;87.72;77.27;4.03 
4.360;-1.20;0.00;-0.27;23.72;19.76;25.39;-133.78;-54.57;187.00;1.23;86.75;76.90;3.31 
4.390;-1.14;0.03;-0.16;21.22;15.10;22.75;-131.78;-55.52;185.00;1.15;85.92;76.73;2.60 
4.420;-1.01;0.09;-0.18;14.68;23.23;23.93;-132.78;-57.44;177.00;1.03;85.07;76.52;1.81 
4.450;-1.14;0.03;-0.17;18.57;30.82;22.54;-128.78;-57.44;177.00;1.15;83.89;75.88;0.86 
4.480;-1.16;0.09;-0.29;32.14;11.06;13.50;-123.79;-58.40;172.00;1.20;83.21;75.40;0.37 
4.510;-1.05;0.18;-0.29;28.66;4.38;15.93;-126.79;-56.48;164.00;1.10;82.77;75.32;-0.04 
4.541;-1.06;0.25;-0.25;27.13;0.42;13.29;-123.79;-52.65;156.00;1.12;82.29;75.31;-0.56 
4.571;-0.90;0.21;-0.35;24.21;-2.37;8.07;-119.80;-46.91;152.00;0.99;82.03;75.39;-0.95 
4.601;-0.65;0.04;-0.31;20.03;-3.90;15.72;-118.80;-39.25;143.00;0.72;81.82;75.48;-1.30 
4.631;-0.67;-0.14;-0.30;31.37;3.90;19.55;-114.81;-33.51;139.00;0.75;81.49;75.36;-1.66 
4.661;-0.71;-0.27;-0.31;46.19;0.77;12.87;-115.81;-27.76;134.00;0.82;81.18;75.11;-1.78 
4.691;-0.73;-0.22;-0.26;56.42;-6.40;7.58;-113.81;-24.89;128.00;0.81;81.24;75.08;-1.49 
4.721;-0.75;-0.18;-0.33;46.68;-9.18;6.47;-114.81;-22.02;117.00;0.84;81.29;75.16;-1.28 
4.752;-0.73;-0.14;-0.29;42.57;-5.15;9.11;-115.81;-19.15;111.00;0.80;81.38;75.23;-1.09 
4.781;-0.69;-0.10;-0.25;31.72;-4.24;10.85;-115.81;-14.36;105.00;0.74;81.32;75.26;-1.11 
4.810;-0.66;0.00;-0.32;20.31;7.23;8.63;-116.80;-16.27;103.00;0.73;81.17;75.15;-1.24 
4.841;-0.75;0.22;-0.34;6.26;5.84;-5.01;-114.81;-13.40;103.00;0.85;81.00;74.71;-1.40 
4.871;-0.78;0.35;-0.20;-29.77;-7.72;-6.47;-114.81;-12.45;98.00;0.88;81.08;74.60;-1.70 
4.901;-0.80;-0.12;-0.33;-60.45;7.72;-3.41;-110.81;-12.45;103.00;0.87;81.39;74.58;-2.18 
4.931;-0.95;-0.51;-0.32;-42.92;8.56;-3.97;-108.82;-16.27;110.00;1.12;81.91;74.28;-2.33 
4.961;-1.06;-0.54;-0.31;-16.90;-3.62;-7.79;-106.82;-16.27;116.00;1.23;82.62;74.20;-2.20 
4.991;-1.14;-0.27;-0.29;3.06;-8.07;-9.74;-104.82;-22.02;114.00;1.21;83.34;74.35;-1.86 
5.021;-1.11;-0.16;-0.25;8.63;-14.61;-17.67;-110.81;-19.15;110.00;1.15;84.22;74.75;-1.32 
5.052;-1.00;0.05;-0.32;-5.08;-14.26;-16.00;-114.81;-17.23;107.00;1.05;85.06;75.24;-0.90 
5.082;-0.88;0.13;-0.37;-19.90;-5.84;-11.97;-117.80;-21.06;110.00;0.96;85.67;75.55;-0.75 
5.112;-0.90;0.30;-0.28;-20.38;0.21;-0.07;-116.80;-22.02;109.00;0.99;85.89;75.54;-0.94 
5.142;-1.02;0.26;-0.28;-30.47;12.38;2.23;-116.80;-21.06;116.00;1.09;85.72;75.35;-1.54 
5.172;-1.16;0.26;-0.33;-29.57;15.93;2.02;-109.82;-21.06;120.00;1.23;85.56;74.85;-2.14 
5.202;-1.13;0.19;-0.29;-36.87;8.42;4.66;-108.82;-22.02;123.00;1.18;85.44;74.51;-2.74 
5.232;-1.01;0.22;-0.26;-36.24;5.43;7.65;-98.83;-22.02;128.00;1.07;85.23;74.22;-3.49 
5.263;-0.96;-0.05;-0.26;-32.83;7.30;8.28;-93.84;-20.10;132.00;1.00;85.07;73.97;-4.20 
5.292;-0.95;-0.17;-0.20;-13.36;10.64;8.00;-92.84;-18.19;137.00;0.99;85.11;73.67;-4.62 
5.321;-1.02;-0.06;-0.18;4.31;12.73;10.50;-92.84;-22.02;139.00;1.04;85.12;73.30;-4.91 
5.352;-1.08;0.02;-0.26;9.81;9.60;13.98;-93.84;-20.10;142.00;1.11;84.91;72.83;-5.32 
5.382;-1.10;0.10;-0.27;17.39;5.98;18.23;-90.85;-19.15;141.00;1.14;84.62;72.42;-5.77 
5.412;-1.06;0.10;-0.21;21.08;1.53;23.65;-90.85;-18.19;139.00;1.09;84.16;72.08;-6.34 
5.442;-1.03;0.01;-0.21;23.44;-5.36;20.73;-87.85;-14.36;134.00;1.05;83.68;71.91;-6.90 
5.472;-1.02;0.01;-0.22;34.43;-10.16;11.83;-84.86;-17.23;133.00;1.04;83.40;71.92;-7.18 
5.502;-0.86;0.19;-0.25;36.87;-7.86;6.89;-88.85;-12.45;127.00;0.92;83.23;72.06;-7.31 
5.531;-0.91;0.22;-0.19;32.42;2.23;-0.28;-85.86;-12.45;122.00;0.96;83.14;72.03;-7.38 
5.562;-1.13;0.30;-0.31;25.25;-1.39;-6.26;-89.85;-12.45;120.00;1.21;83.26;71.92;-7.30 
5.592;-1.14;0.23;-0.31;15.44;-8.97;-3.48;-89.85;-8.62;119.00;1.20;83.47;72.09;-7.20 
5.622;-1.05;0.10;-0.31;6.54;-13.01;2.99;-92.84;-8.62;112.00;1.10;83.56;72.37;-7.27 
5.653;-1.02;0.04;-0.33;8.00;-11.13;3.69;-89.85;-9.57;113.00;1.07;83.63;72.65;-7.38 
5.683;-0.92;0.09;-0.33;11.76;-5.63;5.50;-92.84;-6.70;107.00;0.98;83.66;72.81;-7.51 
5.712;-0.96;0.17;-0.29;9.18;-1.74;5.36;-92.84;-5.74;107.00;1.02;83.59;72.75;-7.73 
5.742;-1.04;0.16;-0.38;3.13;-5.43;3.62;-88.85;-2.87;106.00;1.12;83.52;72.66;-7.98 
5.772;-1.02;0.14;-0.34;-0.28;-9.67;2.09;-90.85;0.96;102.00;1.08;83.51;72.75;-8.19 
5.802;-0.98;0.05;-0.28;-1.53;-4.17;2.43;-88.85;-1.91;102.00;1.02;83.55;72.84;-8.37 
5.831;-1.01;0.11;-0.26;-2.85;0.28;3.13;-91.85;-1.91;100.00;1.05;83.60;72.82;-8.54 
5.862;-1.02;0.07;-0.27;-3.76;-0.49;3.41;-86.85;0.00;99.00;1.06;83.66;72.76;-8.74 
5.892;-0.98;0.06;-0.23;-1.95;1.81;3.34;-84.86;-0.96;100.00;1.01;83.74;72.70;-8.91 
5.922;-1.01;0.07;-0.26;0.28;5.63;2.37;-88.85;0.00;104.00;1.05;83.83;72.59;-9.06 
5.953;-1.05;0.11;-0.26;-1.25;3.13;1.46;-85.86;0.00;103.00;1.09;83.95;72.43;-9.18 
5.983;-1.05;0.17;-0.26;-4.45;-2.64;2.23;-82.86;0.96;106.00;1.09;84.05;72.41;-9.30 
6.013;-1.01;0.11;-0.26;-5.57;-1.04;2.64;-83.86;1.91;99.00;1.05;84.11;72.42;-9.49 
6.033;-1.03;0.13;-0.30;-4.80;-0.07;2.09;-76.87;3.83;105.00;1.08;84.57;71.69;-10.83 
6.063;-1.02;0.10;-0.31;-4.94;-1.11;2.30;-78.87;5.74;105.00;1.07;84.65;71.63;-11.00 
6.093;-1.02;0.11;-0.30;-3.48;0.14;3.13;-79.87;4.79;106.00;1.07;84.72;71.57;-11.19 
6.123;-1.03;0.13;-0.30;-2.37;-1.18;1.39;-77.87;7.66;106.00;1.08;84.79;71.48;-11.37 
6.153;-0.98;0.14;-0.32;-1.53;-1.18;1.81;-76.87;5.74;114.00;1.04;84.87;71.47;-11.50 
6.184;-0.98;0.14;-0.26;-2.57;1.39;2.09;-75.87;6.70;106.00;1.02;84.97;71.37;-11.66 
6.214;-1.05;0.16;-0.29;-3.41;1.74;0.70;-73.88;4.79;106.00;1.10;85.09;71.26;-11.82 
6.244;-1.01;0.13;-0.28;-4.10;1.04;1.11;-73.88;8.62;109.00;1.06;85.23;71.20;-11.95 
6.275;-1.02;0.11;-0.29;-4.24;2.09;0.97;-76.87;6.70;108.00;1.07;85.40;71.13;-12.06 
6.305;-1.05;0.14;-0.30;-3.90;0.14;-0.28;-71.88;2.87;111.00;1.10;85.59;71.05;-12.17 
6.335;-1.02;0.13;-0.31;-3.41;0.28;0.28;-69.88;4.79;113.00;1.07;85.77;71.05;-12.24 
6.364;-1.01;0.10;-0.28;-3.83;0.97;0.77;-75.87;6.70;114.00;1.05;85.94;70.99;-12.35 
6.394;-1.02;0.10;-0.27;-4.45;-0.97;0.21;-72.88;4.79;113.00;1.06;86.12;70.98;-12.44 
6.424;-1.02;0.12;-0.29;-3.69;0.56;-0.21;-72.88;8.62;112.00;1.07;86.30;70.96;-12.51 
6.454;-1.00;0.11;-0.34;-2.92;3.41;0.56;-72.88;6.70;112.00;1.06;86.51;70.90;-12.60 
6.484;-1.03;0.12;-0.33;-2.92;2.16;0.21;-71.88;5.74;111.00;1.09;86.74;70.82;-12.69 
6.514;-1.02;0.16;-0.26;-3.90;1.25;-0.56;-72.88;5.74;115.00;1.06;86.96;70.79;-12.76 
6.544;-1.00;0.13;-0.26;-4.38;2.16;0.07;-69.88;7.66;113.00;1.04;87.15;70.74;-12.86 
6.575;-1.02;0.11;-0.27;-4.45;3.06;0.07;-71.88;3.83;112.00;1.06;87.37;70.68;-12.96 
6.605;-1.02;0.10;-0.28;-5.01;2.30;-0.21;-69.88;6.70;115.00;1.06;87.61;70.61;-13.05 
6.635;-1.01;0.13;-0.26;-4.10;2.23;-0.21;-70.88;6.70;116.00;1.05;87.87;70.59;-13.11 
6.665;-0.99;0.10;-0.29;-4.38;3.69;0.35;-71.88;4.79;119.00;1.04;88.11;70.53;-13.20 
6.696;-1.02;0.11;-0.26;-4.38;3.62;0.35;-70.88;3.83;118.00;1.06;88.40;70.45;-13.28 
6.726;-1.05;0.14;-0.28;-5.36;1.60;0.00;-72.88;0.96;120.00;1.10;88.65;70.37;-13.39 
6.755;-1.02;0.14;-0.28;-6.26;1.53;0.14;-69.88;1.91;119.00;1.07;88.88;70.35;-13.48 
6.786;-0.99;0.10;-0.26;-4.38;2.43;0.28;-69.88;2.87;121.00;1.03;89.18;70.35;-13.52 
6.816;-1.02;0.11;-0.29;-4.10;1.74;0.28;-68.88;6.70;122.00;1.07;89.48;70.32;-13.57 
6.846;-1.00;0.12;-0.29;-3.97;1.25;0.14;-68.88;2.87;124.00;1.05;89.77;70.30;-13.62 
6.876;-1.02;0.10;-0.26;-3.41;1.39;0.07;-69.88;3.83;122.00;1.06;90.05;70.31;-13.65 
6.906;-1.02;0.10;-0.27;-2.37;1.95;0.35;-70.88;3.83;123.00;1.06;90.32;70.31;-13.70 
6.936;-1.02;0.09;-0.26;-2.02;1.81;-0.14;-69.88;3.83;123.00;1.06;90.63;70.31;-13.72 
6.966;-1.02;0.10;-0.28;-0.56;2.43;0.28;-69.88;3.83;124.00;1.06;90.93;70.31;-13.74 
6.997;-1.03;0.14;-0.29;-0.28;2.57;0.28;-66.89;0.96;124.00;1.08;91.23;70.27;-13.78 
7.027;-1.02;0.13;-0.28;-0.56;1.60;0.42;-65.89;5.74;125.00;1.07;91.51;70.23;-13.85 
7.057;-1.02;0.10;-0.28;-0.14;2.09;0.63;-66.89;5.74;128.00;1.06;91.81;70.21;-13.87 
7.086;-1.02;0.12;-0.30;-0.14;0.49;0.49;-66.89;4.79;125.00;1.07;92.09;70.21;-13.90 
7.116;-1.00;0.14;-0.28;0.21;2.43;0.63;-66.89;3.83;123.00;1.05;92.37;70.22;-13.93 
7.146;-1.02;0.13;-0.29;0.90;3.27;0.97;-67.89;0.00;128.00;1.07;92.74;70.17;-13.94 
7.176;-1.04;0.14;-0.30;0.90;2.02;0.21;-68.88;4.79;129.00;1.09;93.06;70.13;-13.97 
7.206;-1.02;0.14;-0.34;-0.07;1.60;0.21;-67.89;2.87;126.00;1.08;93.35;70.12;-14.00 
7.236;-1.02;0.15;-0.28;-0.97;1.95;0.14;-70.88;3.83;126.00;1.07;93.61;70.12;-14.02 
7.266;-1.02;0.13;-0.29;-1.46;0.77;0.14;-68.88;1.91;127.00;1.07;93.90;70.13;-14.04 
7.297;-0.99;0.13;-0.26;-0.14;2.85;0.42;-70.88;3.83;128.00;1.03;94.25;70.12;-14.06 
7.327;-1.02;0.12;-0.31;0.28;2.50;0.77;-67.89;2.87;127.00;1.07;94.62;70.09;-14.08 
7.357;-1.02;0.14;-0.32;0.00;1.46;0.83;-67.89;2.87;128.00;1.08;94.99;70.06;-14.10 
7.387;-1.02;0.14;-0.28;0.21;1.39;0.49;-66.89;3.83;129.00;1.07;95.33;70.05;-14.12 
7.417;-1.01;0.14;-0.31;0.63;1.32;0.83;-70.88;2.87;131.00;1.07;95.67;70.03;-14.14 
7.447;-1.00;0.12;-0.30;1.04;1.25;0.56;-67.89;3.83;131.00;1.05;96.00;70.03;-14.15 
7.476;-1.02;0.16;-0.29;1.32;1.25;0.90;-69.88;7.66;128.00;1.07;96.33;70.02;-14.17 
7.507;-1.01;0.14;-0.31;0.21;0.83;0.63;-68.88;1.91;128.00;1.07;96.63;70.02;-14.20 
7.537;-1.02;0.14;-0.30;0.07;1.74;0.14;-67.89;5.74;130.00;1.07;97.03;70.02;-14.20 
7.567;-1.02;0.13;-0.33;0.56;1.04;0.90;-67.89;4.79;127.00;1.08;97.44;70.01;-14.19 
7.598;-1.00;0.14;-0.32;0.49;0.77;0.56;-70.88;5.74;126.00;1.06;97.83;70.02;-14.18 
7.628;-1.01;0.14;-0.30;0.97;0.56;0.42;-64.89;6.70;128.00;1.06;98.19;70.03;-14.18 
7.657;-1.00;0.12;-0.31;0.77;0.97;0.28;-67.89;1.91;129.00;1.05;98.51;70.06;-14.18 
7.687;-1.02;0.07;-0.38;0.28;0.70;0.00;-66.89;3.83;130.00;1.09;98.88;70.06;-14.18 
7.717;-1.02;0.14;-0.32;0.28;1.18;0.42;-62.89;3.83;129.00;1.08;99.31;70.07;-14.16 
7.747;-1.01;0.14;-0.31;0.21;0.90;0.07;-66.89;1.91;129.00;1.07;99.73;70.09;-14.14 
7.777;-1.02;0.15;-0.33;-0.28;0.56;-0.07;-66.89;6.70;131.00;1.08;100.15;70.10;-14.13 
7.807;-1.00;0.14;-0.32;-0.14;0.70;0.00;-63.89;2.87;129.00;1.06;100.58;70.12;-14.11 
7.837;-1.00;0.13;-0.33;-0.35;0.28;0.21;-66.89;2.87;130.00;1.06;101.03;70.14;-14.09 
7.867;-1.02;0.14;-0.30;-0.90;-0.90;0.07;-65.89;1.91;128.00;1.07;101.38;70.17;-14.09 
7.897;-1.01;0.14;-0.30;-0.56;-0.56;-0.21;-66.89;4.79;130.00;1.06;101.73;70.23;-14.08 
7.927;-0.99;0.13;-0.34;-0.63;0.49;0.28;-64.89;3.83;130.00;1.05;102.16;70.26;-14.07 
7.956;-1.01;0.14;-0.33;-0.63;-1.04;-0.14;-66.89;4.79;130.00;1.07;102.55;70.29;-14.07 
7.986;-1.01;0.13;-0.31;-0.90;-0.14;-0.63;-64.89;4.79;129.00;1.06;102.88;70.37;-14.05 
8.016;-1.00;0.13;-0.32;-1.11;1.04;-0.21;-62.89;1.91;128.00;1.06;103.32;70.40;-14.03 
8.046;-1.02;0.13;-0.33;-0.63;0.42;0.07;-69.88;3.83;129.00;1.08;103.78;70.43;-14.01 
8.076;-1.02;0.13;-0.31;-1.11;-0.97;-0.14;-64.89;0.96;129.00;1.07;104.19;70.48;-13.99 
8.107;-1.02;0.14;-0.29;-1.18;-0.70;0.21;-66.89;3.83;129.00;1.07;104.52;70.55;-13.98 
8.137;-0.99;0.12;-0.30;-0.35;-0.49;-0.07;-68.88;4.79;127.00;1.04;104.85;70.63;-13.96 
8.167;-1.01;0.16;-0.30;-0.28;-0.77;0.07;-68.88;1.91;128.00;1.07;105.22;70.70;-13.92 
8.196;-1.02;0.15;-0.28;-0.90;-1.60;-0.07;-65.89;4.79;129.00;1.07;105.56;70.77;-13.90 
8.226;-1.02;0.13;-0.30;-0.83;-1.53;-0.14;-63.89;4.79;129.00;1.07;105.91;70.84;-13.88 
8.256;-1.02;0.11;-0.32;-0.21;-0.63;-0.14;-67.89;3.83;129.00;1.07;106.29;70.91;-13.85 
8.286;-1.02;0.15;-0.30;-0.63;-1.04;-0.35;-68.88;0.00;128.00;1.07;106.67;70.96;-13.82 
8.317;-1.02;0.13;-0.31;-0.97;-1.74;-0.35;-66.89;2.87;128.00;1.07;107.13;71.04;-13.76 
8.347;-1.01;0.14;-0.30;-1.11;-1.88;-0.14;-66.89;5.74;131.00;1.06;107.46;71.12;-13.75 
8.377;-1.01;0.13;-0.28;-1.39;-1.46;-0.21;-65.89;4.79;128.00;1.06;107.79;71.22;-13.72 
8.408;-1.02;0.15;-0.30;-1.81;-1.53;-0.28;-66.89;3.83;124.00;1.07;108.13;71.31;-13.68 
8.438;-1.01;0.13;-0.30;-2.23;-1.46;-0.07;-67.89;6.70;126.00;1.06;108.49;71.40;-13.66 
8.468;-0.99;0.13;-0.28;-2.09;-1.18;-0.42;-66.89;5.74;127.00;1.04;108.92;71.47;-13.62 
8.498;-1.02;0.12;-0.29;-1.95;-1.39;-0.42;-62.89;6.70;128.00;1.07;109.31;71.58;-13.57 
8.527;-1.02;0.14;-0.28;-2.57;-1.67;-0.07;-65.89;5.74;128.00;1.07;109.73;71.69;-13.51 
8.557;-1.02;0.18;-0.28;-3.34;-1.32;-0.14;-67.89;5.74;128.00;1.07;110.09;71.79;-13.48 
8.587;-1.03;0.12;-0.30;-3.69;-2.16;-0.49;-64.89;5.74;126.00;1.08;110.52;71.88;-13.44 
8.618;-1.03;0.14;-0.30;-3.34;-3.90;-0.42;-62.89;4.79;125.00;1.08;110.86;72.01;-13.41 
8.648;-1.01;0.12;-0.29;-2.02;-4.10;-0.42;-65.89;7.66;125.00;1.06;111.13;72.15;-13.37 
8.678;-1.02;0.14;-0.30;-2.43;-4.94;-0.70;-63.89;4.79;124.00;1.07;111.32;72.29;-13.33 
8.708;-0.97;0.12;-0.28;-2.71;-3.62;-0.07;-66.89;8.62;123.00;1.02;111.48;72.44;-13.29 
8.738;-1.00;0.13;-0.29;-2.02;-2.64;0.00;-65.89;7.66;121.00;1.05;111.80;72.54;-13.25 
8.768;-1.00;0.13;-0.27;-1.60;-3.34;-0.49;-63.89;6.70;124.00;1.04;112.07;72.65;-13.20 
8.797;-1.00;0.14;-0.28;-1.88;-1.18;-0.07;-65.89;5.74;125.00;1.05;112.32;72.76;-13.17 
8.827;-1.02;0.14;-0.28;-2.78;0.14;-0.56;-65.89;7.66;124.00;1.07;112.81;72.84;-13.11 
8.857;-1.03;0.13;-0.26;-1.81;-0.83;-1.04;-64.89;3.83;123.00;1.07;113.32;72.92;-13.04 
8.887;-1.02;0.13;-0.26;-1.74;-2.09;-1.32;-65.89;5.74;124.00;1.06;113.76;73.02;-12.96 
8.918;-1.02;0.10;-0.30;-3.41;0.28;-0.63;-66.89;5.74;124.00;1.07;114.31;73.10;-12.98 
8.948;-1.03;0.14;-0.29;-2.43;-2.92;0.63;-64.89;4.79;123.00;1.08;114.78;73.18;-12.95 
8.978;-1.00;0.14;-0.26;2.92;-1.74;-1.39;-63.89;1.91;124.00;1.04;114.97;73.33;-12.85 
9.008;-0.99;0.12;-0.32;10.23;-0.90;-1.04;-64.89;8.62;120.00;1.05;115.06;73.45;-12.71 
9.038;-0.79;0.12;-0.40;-1.11;3.76;3.62;-66.89;0.96;120.00;0.89;115.33;73.49;-12.64 
9.067;-0.68;0.18;-0.18;12.17;-19.83;26.23;-65.89;8.62;117.00;0.73;114.18;73.44;-12.83 
9.097;-0.68;0.06;-0.17;3.20;-16.90;23.65;-61.90;11.49;119.00;0.70;113.46;73.03;-13.44 
9.128;-0.92;0.27;-0.35;-6.40;-22.33;-35.06;-57.90;8.62;113.00;1.02;113.25;73.27;-13.11 
9.158;-0.69;0.33;-0.20;-8.35;-5.63;18.64;-61.90;8.62;114.00;0.79;113.02;73.30;-13.43 
9.188;-0.85;0.13;-0.20;9.11;3.83;8.97;-50.91;11.49;116.00;0.88;112.65;73.03;-14.00 
9.219;-1.23;0.26;-0.27;10.99;20.73;-7.93;-53.91;12.45;118.00;1.29;115.20;72.95;-13.66 
9.249;-1.04;0.13;-0.28;28.87;-9.11;17.32;-56.90;7.66;119.00;1.08;114.43;72.95;-13.55 
9.279;-1.10;0.07;-0.34;26.23;-2.02;13.29;-54.91;12.45;117.00;1.15;113.27;72.74;-13.76 
9.308;-1.05;0.42;-0.32;46.89;14.82;39.44;-51.91;12.45;114.00;1.18;111.76;72.45;-13.94 
9.338;-1.10;0.14;-0.25;-60.03;-7.03;9.95;-46.92;15.32;110.00;1.14;112.28;72.31;-14.33 
9.368;-1.10;0.14;-0.24;-25.25;-33.25;6.12;-42.93;13.40;112.00;1.13;112.91;72.19;-15.02 
9.398;-1.02;0.34;-0.50;80.97;-60.73;-4.73;-42.93;20.10;101.00;1.19;104.54;73.33;-14.72 
9.429;-0.98;0.18;-0.08;57.88;-44.94;-2.50;-49.92;22.02;81.00;1.00;98.40;74.09;-14.33 
9.459;-1.42;0.19;-0.10;7.30;-78.68;-1.81;-46.92;21.06;71.00;1.44;93.05;75.04;-14.05 
9.489;-0.82;0.07;-0.14;19.55;-94.82;-42.02;-48.92;23.93;53.00;0.83;84.86;75.93;-13.81 
9.519;-0.82;0.16;-0.06;17.88;-116.87;-64.35;-54.91;18.19;33.00;0.84;77.64;77.91;-12.09 
9.548;-0.46;0.18;-0.09;-10.02;-42.92;-56.00;-79.87;9.57;9.00;0.50;72.80;79.80;-9.75 
9.578;-1.28;0.00;-0.06;-4.31;4.31;-19.90;-85.86;8.62;12.00;1.28;73.91;80.71;-8.81 
9.608;-1.04;0.25;0.02;4.45;-70.33;7.86;-85.86;7.66;12.00;1.07;72.12;80.79;-8.32 
9.638;-1.01;0.26;0.07;26.92;-112.77;26.30;-82.86;7.66;-13.00;1.05;66.02;78.80;-9.03 
9.668;-1.19;0.03;0.35;-2.99;-109.84;-13.15;-84.86;11.49;-33.00;1.24;60.21;76.52;-9.33 
9.698;-0.89;0.07;0.27;12.38;-186.85;-31.30;-88.85;-1.91;-68.00;0.93;53.84;73.30;-8.20 
9.729;-0.90;0.02;0.26;33.39;-168.90;-10.50;-88.85;-9.57;-100.00;0.94;48.53;68.60;-7.72 
9.759;-1.15;0.44;0.19;-2.92;-238.89;12.80;-91.85;-22.98;-130.00;1.25;43.28;62.56;-7.48 
9.789;-0.78;0.15;0.39;-12.38;-172.73;34.99;-91.85;-38.29;-160.00;0.88;38.50;56.81;-7.56 
9.819;-0.65;0.00;0.69;8.97;-75.34;42.71;-83.86;-52.65;-193.00;0.95;34.42;51.50;-8.17 
9.849;-0.82;0.28;0.11;16.49;25.74;47.58;-70.88;-44.99;-189.00;0.87;32.98;51.47;-9.77 
9.879;-0.70;0.20;0.34;15.44;33.11;-8.00;-63.89;-44.04;-188.00;0.80;33.38;52.07;-10.57 
9.909;-1.02;0.08;0.75;27.55;-41.04;-65.11;-61.90;-41.16;-188.00;1.27;34.97;51.86;-10.37 
9.940;-0.85;0.02;0.49;3.69;-67.48;-57.18;-80.86;-55.52;-200.00;0.98;36.72;50.61;-8.90 
9.970;-0.75;0.10;0.55;0.21;-42.50;18.50;-82.86;-59.35;-202.00;0.94;36.60;48.59;-8.11 
10.000;-0.87;0.35;0.54;5.77;-14.26;46.54;-78.87;-63.18;-211.00;1.08;35.58;47.40;-8.63 
10.031;-0.82;0.22;0.66;-5.43;-47.93;23.79;-72.88;-67.01;-213.00;1.08;34.36;45.86;-9.25 
10.061;-0.28;0.06;0.63;13.29;-30.82;46.33;-62.89;-67.97;-219.00;0.69;33.03;43.96;-9.71 
10.091;-0.65;0.09;0.53;15.03;-14.33;15.10;-58.90;-69.88;-226.00;0.84;32.19;42.41;-10.11 
10.121;-0.69;0.26;0.69;4.45;-63.30;20.03;-52.91;-70.84;-231.00;1.01;31.76;40.80;-10.49 
10.150;-0.74;0.30;0.95;-61.29;-130.50;7.17;-52.91;-72.76;-233.00;1.24;30.20;37.53;-10.09 
10.179;-0.70;-0.02;0.78;-64.35;-129.53;-5.77;-64.89;-102.43;-252.00;1.05;28.22;32.92;-8.07 
10.208;-0.57;0.00;0.82;-30.12;-80.70;0.90;-72.88;-117.75;-265.00;1.00;27.18;29.02;-6.29 
10.239;-0.37;0.21;0.92;-33.81;-96.21;19.06;-76.87;-120.62;-264.00;1.01;26.48;25.39;-5.25 
10.269;-0.42;0.00;0.77;-39.23;-93.08;52.87;-80.86;-139.77;-272.00;0.88;24.73;21.99;-4.30 
10.299;-0.38;0.31;0.69;-36.24;-95.37;44.73;-84.86;-143.60;-272.00;0.85;22.82;18.19;-3.34 
10.329;-0.34;-0.10;0.81;-19.76;-113.53;5.29;-86.85;-162.74;-283.00;0.88;21.82;14.62;-2.73 
10.359;-0.32;0.04;0.70;-18.99;-86.68;-14.96;-91.85;-176.15;-286.00;0.77;21.72;10.80;-1.61 
10.389;-0.23;-0.14;0.90;22.96;-33.53;-62.12;-96.84;-187.64;-292.00;0.94;22.85;8.36;-0.82 
10.419;-0.63;0.24;1.09;38.40;-26.02;-77.01;-100.83;-198.17;-297.00;1.28;25.45;6.77;-0.82 
10.450;-0.14;0.21;0.70;25.39;-51.62;-60.59;-99.83;-211.57;-306.00;0.74;28.14;5.22;-1.61 
10.480;-0.24;0.00;0.84;-3.97;-51.69;-65.18;-105.82;-226.89;-309.00;0.87;30.39;2.99;-1.68 
10.509;0.03;-0.09;1.26;-22.82;-36.73;-44.10;-106.82;-236.46;-313.00;1.26;32.49;1.16;-1.07 
10.539;0.01;0.74;1.09;-144.07;-21.63;-3.83;-118.80;-245.07;-312.00;1.32;33.74;-0.33;1.24 
10.568;-0.09;-0.11;0.37;-17.04;4.66;0.83;-147.75;-246.99;-290.00;0.40;33.83;-1.23;3.68 
10.598;0.17;-0.63;0.84;-9.18;0.21;-6.68;-149.75;-246.99;-293.00;1.06;34.61;-2.36;4.23 
10.628;-0.18;0.34;0.76;-18.23;32.56;8.28;-148.75;-246.03;-289.00;0.85;35.00;-2.93;5.18 
10.658;-0.21;-0.15;0.76;38.33;42.92;-27.97;-149.75;-240.29;-287.00;0.80;35.87;-2.35;4.65 
10.688;0.00;-0.18;0.93;77.01;71.58;-14.68;-143.76;-235.50;-298.00;0.95;37.28;-1.24;3.38 
10.718;-0.34;0.15;0.63;167.86;152.83;11.41;-116.80;-216.35;-306.00;0.73;37.16;0.78;0.75 
10.749;-0.26;0.60;0.74;108.94;152.70;57.11;-87.85;-192.42;-320.00;0.99;36.85;4.68;-3.99 
10.779;-0.48;0.36;0.82;-4.66;115.48;14.12;-65.89;-166.57;-318.00;1.02;36.22;7.94;-5.74 
10.809;-0.50;-0.06;0.55;2.09;112.77;-34.64;-64.89;-150.30;-310.00;0.75;36.62;10.87;-5.61 
10.840;-0.47;0.32;0.59;69.57;123.48;38.40;-57.90;-125.41;-298.00;0.82;37.05;13.87;-6.95 
10.870;-0.74;0.23;0.86;62.26;43.76;10.02;-40.93;-110.09;-292.00;1.16;37.05;16.40;-8.98 
10.900;-0.73;0.30;0.80;22.82;-4.94;-9.46;-33.94;-106.26;-298.00;1.12;37.48;16.38;-10.17 
10.930;-0.62;0.24;0.72;-8.70;-15.72;-22.47;-33.94;-106.26;-298.00;0.98;38.16;15.69;-10.35 
10.960;-0.81;1.47;0.25;-0.77;-22.75;-5.70;-32.94;-112.01;-301.00;1.70;38.73;14.74;-9.94 
10.989;-0.73;0.53;0.37;14.19;12.94;4.66;-32.94;-112.01;-302.00;0.98;37.84;13.70;-10.52 
11.018;-0.30;0.12;0.79;-26.85;29.98;-25.25;-33.94;-110.09;-299.00;0.85;38.51;13.81;-9.85 
11.048;-0.42;0.19;0.48;24.70;44.17;-8.49;-40.93;-109.13;-297.00;0.67;39.59;14.43;-9.26 
11.077;-0.70;0.51;0.77;13.43;51.83;4.80;-32.94;-101.48;-293.00;1.16;39.95;15.54;-10.11 
11.106;-0.59;0.31;0.58;-7.72;29.84;-15.65;-32.94;-94.77;-290.00;0.88;40.48;16.32;-10.06 
11.136;-0.69;0.17;0.62;1.11;30.19;-11.55;-32.94;-88.07;-282.00;0.94;41.14;16.94;-9.79 
11.166;-0.87;0.18;0.68;0.97;18.50;-34.30;-35.94;-86.16;-281.00;1.12;42.24;17.56;-9.24 
11.196;-0.77;0.30;0.90;-0.90;-34.92;-10.78;-36.94;-89.99;-280.00;1.22;43.25;17.15;-9.08 
11.226;-1.05;0.52;0.80;-26.23;-85.98;-8.63;-39.93;-99.56;-291.00;1.42;43.70;15.29;-8.67 
11.256;-0.45;0.14;0.74;4.45;-107.34;-19.41;-50.91;-112.96;-297.00;0.88;44.97;12.67;-8.31 
11.286;-0.38;0.38;0.66;-6.26;-92.66;50.09;-48.92;-127.32;-308.00;0.85;44.27;9.29;-8.21 
11.316;-0.97;0.26;0.62;-29.08;-97.25;12.17;-42.93;-137.85;-314.00;1.18;42.73;5.77;-7.96 
11.347;-0.46;0.29;0.58;-55.23;-82.85;-19.90;-55.91;-156.04;-323.00;0.80;44.54;2.31;-5.94 
11.377;-0.24;0.09;0.77;-53.98;-94.26;-17.32;-79.87;-181.89;-323.00;0.81;46.55;-1.72;-3.74 
11.406;-0.38;0.11;0.81;-27.76;-80.42;7.17;-84.86;-196.25;-326.00;0.90;47.37;-4.82;-2.57 
11.436;-0.23;0.22;0.87;-48.56;-92.10;15.58;-92.84;-205.82;-327.00;0.93;47.84;-7.63;-1.37 
11.465;-0.28;-0.10;1.08;-89.81;-131.27;48.70;-95.84;-213.48;-327.00;1.12;47.18;-11.20;0.78 
11.494;-0.51;0.32;0.38;-57.74;-88.83;63.10;-119.80;-236.46;-319.00;0.71;45.99;-14.47;3.31 
11.524;-0.22;0.21;0.70;21.43;12.94;11.41;-123.79;-242.20;-317.00;0.76;47.04;-16.03;4.51 
11.554;0.05;0.06;0.94;-50.23;38.54;35.34;-128.78;-240.29;-314.00;0.94;46.60;-16.64;5.83 
11.583;-0.51;-0.34;0.41;62.12;187.90;72.97;-127.79;-225.93;-309.00;0.74;46.14;-12.40;6.30 
11.613;-1.90;0.68;1.57;-41.88;-40.49;-113.18;-117.80;-203.91;-306.00;2.56;45.09;-11.83;5.97 
11.643;0.30;-0.68;0.42;28.03;-18.16;-49.04;-138.77;-227.84;-301.00;0.85;49.05;-13.70;6.34 
11.673;-0.38;0.08;0.78;89.39;4.03;6.54;-123.79;-228.80;-309.00;0.87;49.61;-14.78;4.66 
11.703;0.03;0.40;0.79;36.03;-19.97;44.45;-112.81;-225.93;-318.00;0.89;49.28;-15.10;2.73 
11.734;-0.15;0.05;0.76;20.52;-13.91;32.97;-107.82;-229.76;-323.00;0.78;48.79;-16.07;2.43 
11.764;-0.30;0.08;0.86;73.04;11.34;17.25;-89.85;-224.01;-328.00;0.91;47.93;-16.12;0.93 
11.794;-0.02;0.26;0.75;65.18;0.42;-0.83;-78.87;-221.14;-335.00;0.79;48.21;-15.64;-1.38 
11.823;-0.74;0.28;0.98;8.83;-42.43;-17.81;-71.88;-225.93;-344.00;1.26;48.31;-16.37;-2.67 
11.852;-0.26;-0.56;0.96;-0.14;-7.58;-19.55;-73.88;-231.67;-342.00;1.14;48.66;-17.58;-2.09 
11.882;-0.12;0.38;0.71;-0.63;-0.28;-10.85;-72.88;-237.42;-341.00;0.81;49.54;-17.82;-2.35 
11.912;-0.18;0.22;0.82;1.46;0.28;-10.30;-73.88;-235.50;-345.00;0.87;50.29;-17.83;-2.52 
11.942;-0.25;0.42;0.86;17.04;13.36;-24.90;-70.88;-234.54;-341.00;0.99;50.88;-17.63;-2.95 
11.972;-0.14;0.30;0.86;-3.62;5.77;-26.85;-72.88;-234.54;-342.00;0.92;51.75;-17.26;-3.44 
12.002;-0.85;0.50;0.86;-27.76;-46.19;43.41;-71.88;-232.63;-341.00;1.31;51.63;-18.24;-2.75 
12.033;-0.16;0.38;1.03;2.50;-16.77;-0.90;-74.87;-238.37;-345.00;1.11;51.35;-18.69;-2.91 
12.063;-0.28;0.26;0.77;-21.15;-12.66;2.92;-73.88;-239.33;-345.00;0.86;51.84;-19.42;-2.40 
12.093;-0.26;0.18;0.88;-53.50;-12.31;11.55;-80.86;-240.29;-341.00;0.94;52.27;-19.87;-1.24 
12.123;0.20;-0.70;0.77;-24.49;31.44;23.30;-92.84;-242.20;-332.00;1.06;52.42;-19.94;0.46 
12.153;-0.37;0.29;0.90;-27.41;4.10;25.88;-94.84;-230.71;-331.00;1.02;51.50;-19.30;1.61 
12.182;-0.26;0.32;1.06;-74.78;-11.55;1.25;-104.82;-228.80;-323.00;1.14;51.54;-19.34;3.00 
12.211;-0.18;-0.07;0.67;-23.37;6.33;-13.22;-113.81;-235.50;-315.00;0.70;52.11;-19.69;4.77 
12.240;-0.22;-0.46;0.75;49.04;73.60;-9.39;-113.81;-230.71;-312.00;0.91;52.47;-18.62;4.41 
12.270;-0.52;-0.04;0.94;10.50;-54.19;-83.76;-109.82;-226.89;-311.00;1.07;54.19;-18.27;3.81 
12.299;-0.14;0.26;0.79;-45.36;-79.58;-77.29;-117.80;-252.73;-316.00;0.84;57.42;-20.83;3.35 
12.329;-0.11;0.26;1.27;6.05;-93.77;2.50;-129.78;-269.96;-319.00;1.30;59.22;-24.14;3.62 
12.358;0.31;0.02;0.75;-9.39;-37.01;19.76;-129.78;-275.71;-315.00;0.81;59.58;-26.27;3.88 
12.387;-0.04;0.10;0.68;-6.47;-20.10;6.47;-129.78;-282.41;-311.00;0.69;59.78;-27.07;4.38 
12.417;-0.09;0.25;0.84;3.13;4.73;-5.63;-132.78;-281.45;-312.00;0.88;60.49;-26.98;4.32 
12.447;-0.10;0.26;1.00;19.13;4.87;9.11;-129.78;-280.50;-316.00;1.04;60.91;-26.74;3.85 
12.477;0.31;0.39;1.05;-39.72;14.68;21.57;-126.79;-279.54;-318.00;1.16;60.69;-26.93;3.97 
12.507;-0.02;0.25;0.84;-61.63;33.04;-8.00;-145.76;-277.62;-303.00;0.88;60.89;-26.32;5.52 
12.537;-0.23;-0.25;0.67;-85.63;125.50;3.41;-151.75;-271.88;-292.00;0.75;59.68;-26.75;8.30 
12.567;-0.29;-0.31;0.89;4.59;24.97;28.17;-163.73;-260.39;-276.00;0.99;59.96;-25.16;10.04 
12.597;-0.04;-0.03;0.85;16.35;58.02;-15.79;-155.74;-254.65;-278.00;0.85;59.85;-23.79;10.07 
12.628;-0.22;-0.09;1.13;18.30;26.64;-41.46;-157.74;-252.73;-279.00;1.15;61.23;-22.97;9.70 
12.658;-0.74;0.14;0.88;183.72;-121.39;-36.17;-155.74;-259.43;-291.00;1.16;62.51;-23.37;6.56 
12.688;-0.06;0.66;1.54;117.98;-188.94;-16.77;-113.81;-296.77;-326.00;1.68;63.91;-28.95;1.93 
12.718;2.13;-0.58;1.55;45.22;-139.55;-26.43;-100.83;-320.70;-339.00;2.70;65.68;-34.02;-1.05 
12.748;0.06;0.25;0.92;-17.67;-119.51;-30.68;-99.83;-342.72;-338.00;0.96;68.29;-38.33;-2.25 
12.778;0.05;-0.02;0.69;5.01;-91.34;-25.11;-107.82;-360.91;-334.00;0.69;70.45;-41.38;-2.61 
12.808;0.20;0.32;0.62;-6.82;-83.34;-7.72;-103.83;-373.36;-330.00;0.73;72.26;-43.76;-3.24 
12.838;0.15;0.35;0.64;-59.62;-49.88;11.20;-110.81;-390.59;-327.00;0.74;73.75;-45.85;-3.04 
12.868;0.37;0.26;0.66;-121.95;-7.93;12.52;-123.79;-395.37;-321.00;0.80;74.36;-46.69;-1.33 
12.898;0.40;-0.03;0.80;-203.62;27.69;16.49;-146.75;-393.46;-305.00;0.89;74.54;-46.52;2.23 
12.928;0.17;-0.26;0.99;-109.01;50.71;21.01;-177.70;-386.76;-278.00;1.04;74.48;-45.23;6.31 
12.958;0.31;-0.10;0.74;40.63;87.37;36.66;-184.69;-372.40;-274.00;0.81;73.08;-43.07;7.72 
12.988;0.21;0.02;0.86;53.77;96.28;-9.88;-177.70;-358.04;-281.00;0.89;72.82;-40.40;7.08 
13.018;0.00;-0.21;1.09;139.76;68.45;12.24;-166.72;-346.55;-293.00;1.11;72.74;-37.72;5.05 
13.048;0.06;-0.18;1.24;194.30;36.59;-15.30;-140.76;-340.81;-313.00;1.25;72.55;-36.26;0.80 
13.078;-0.33;0.41;0.80;112.70;10.64;18.99;-91.85;-335.06;-341.00;0.96;72.41;-35.11;-3.42 
13.108;0.05;0.12;0.50;-60.17;0.07;32.07;-91.85;-332.19;-343.00;0.52;72.10;-34.97;-3.62 
13.139;0.18;0.16;0.83;-94.89;68.80;1.67;-101.83;-322.62;-338.00;0.86;71.60;-33.58;-1.75 
13.169;-0.02;-0.03;0.92;-59.76;59.62;0.07;-119.80;-312.09;-326.00;0.92;71.72;-31.60;1.27 
13.199;-0.08;0.35;0.60;-35.06;87.44;18.16;-126.79;-299.64;-321.00;0.70;71.65;-29.97;1.90 
13.230;0.01;-0.08;1.03;-45.77;71.51;18.23;-136.77;-279.54;-313.00;1.03;71.09;-27.49;3.69 
13.260;-0.26;-0.18;1.30;31.86;-45.15;-6.26;-137.77;-277.62;-310.00;1.34;71.07;-26.64;4.31 
13.290;-0.20;0.19;1.27;7.86;-75.97;11.13;-134.77;-279.54;-313.00;1.30;71.18;-28.13;3.81 
13.320;-0.07;0.07;1.03;50.99;-60.31;-18.92;-128.78;-300.60;-318.00;1.03;72.17;-30.08;2.55 
13.350;-0.21;-0.21;0.74;34.57;-38.19;50.37;-120.80;-304.43;-319.00;0.80;72.17;-31.56;1.56 
13.380;0.35;0.32;0.74;15.93;34.78;23.79;-119.80;-300.60;-315.00;0.88;70.98;-31.86;1.81 
13.410;0.02;0.35;0.62;-58.23;120.14;-45.22;-122.79;-286.24;-310.00;0.71;71.71;-29.70;1.45 
13.441;-0.18;-0.24;0.66;-23.93;62.96;-6.26;-132.78;-270.92;-291.00;0.72;71.99;-26.65;2.69 
13.471;0.10;0.02;0.62;-8.63;22.68;-7.10;-136.77;-262.31;-292.00;0.63;72.13;-25.23;3.36 
13.501;-0.24;0.00;0.79;-45.57;10.30;-10.09;-138.77;-263.26;-292.00;0.83;72.91;-25.34;3.97 
13.531;-0.10;-0.13;0.88;-61.43;-0.77;0.14;-145.76;-259.43;-288.00;0.90;73.13;-25.01;5.69 
13.561;0.07;-0.02;0.86;-7.58;-31.51;26.23;-151.75;-263.26;-286.00;0.86;73.02;-25.38;6.81 
13.591;-0.03;0.29;1.04;7.37;-18.57;32.21;-148.75;-262.31;-295.00;1.08;72.20;-26.46;6.82 
13.621;-0.28;0.04;1.02;-28.52;-10.85;1.46;-146.75;-266.14;-293.00;1.06;72.28;-26.83;7.11 
13.652;-0.14;-0.17;1.02;-0.21;-51.69;-16.21;-153.74;-264.22;-292.00;1.04;72.87;-27.65;7.71 
13.682;-0.50;-0.59;1.02;-15.03;-162.99;3.62;-157.74;-282.41;-294.00;1.28;73.33;-30.38;8.23 
13.712;0.22;0.10;1.08;-40.35;-90.92;62.61;-161.73;-313.04;-294.00;1.11;74.31;-34.25;8.95 
13.743;0.14;-0.07;0.84;-10.23;-59.69;3.90;-167.72;-318.79;-297.00;0.85;74.41;-36.78;9.14 
13.773;-0.34;0.38;0.02;7.30;-8.83;10.85;-163.73;-322.62;-293.00;0.51;74.39;-37.43;8.88 
13.803;0.01;0.01;1.00;13.08;-7.58;29.43;-160.73;-322.62;-294.00;1.00;74.30;-37.42;8.96 
13.832;0.09;-0.26;0.94;42.92;2.37;13.01;-157.74;-317.83;-299.00;0.98;73.92;-37.47;8.58 
13.861;0.16;-0.06;0.99;-23.86;33.81;0.28;-154.74;-315.92;-300.00;1.00;73.92;-36.84;8.69 
13.890;0.02;0.00;0.75;-2.78;51.27;-5.43;-154.74;-311.13;-298.00;0.75;74.22;-35.62;8.94 
13.920;0.08;0.00;0.80;-9.39;53.50;4.17;-160.73;-302.51;-298.00;0.80;74.62;-33.99;8.93 
13.951;0.06;-0.05;1.02;15.65;22.47;22.68;-157.74;-294.86;-296.00;1.02;74.80;-32.45;8.94 
13.981;-0.03;0.00;1.02;29.08;10.85;32.21;-148.75;-291.98;-298.00;1.02;74.32;-31.48;8.69 
14.011;-0.18;0.18;0.94;-23.86;20.03;19.69;-148.75;-287.20;-297.00;0.97;73.96;-30.71;8.73 
14.041;-0.16;-0.14;1.00;-3.41;-15.37;-4.73;-150.75;-283.37;-294.00;1.02;73.97;-30.83;9.39 
14.071;0.08;-0.14;0.77;0.83;-1.74;-2.64;-155.74;-281.45;-295.00;0.79;74.39;-31.11;9.21 
14.101;-0.02;-0.03;1.06;-15.51;-24.35;-5.63;-154.74;-286.24;-294.00;1.06;74.85;-31.35;9.25 
14.131;0.17;0.00;0.91;0.07;-47.51;18.57;-159.73;-287.20;-293.00;0.93;75.09;-32.34;9.37 
14.162;0.17;-0.07;0.47;5.50;8.83;20.17;-161.73;-288.15;-288.00;0.50;74.76;-33.20;9.58 
14.192;0.02;-0.08;0.80;0.07;77.08;-3.62;-158.73;-281.45;-289.00;0.80;74.71;-31.72;9.78 
14.222;-0.17;-0.02;1.14;4.66;53.29;-0.63;-156.74;-272.84;-290.00;1.15;75.23;-29.59;9.66 
14.253;-0.13;-0.14;1.01;8.70;16.97;-12.45;-154.74;-268.05;-290.00;1.03;75.51;-28.57;9.44 
14.283;-0.06;0.20;0.91;-11.76;11.41;13.08;-152.74;-269.96;-294.00;0.93;75.79;-28.10;9.44 
14.313;-0.15;-0.32;1.00;-28.03;13.84;-1.74;-160.73;-263.26;-286.00;1.06;75.99;-27.96;10.02 
14.342;-0.09;-0.17;0.91;-9.53;-12.94;-20.03;-163.73;-262.31;-283.00;0.93;76.46;-27.66;10.64 
14.372;-0.09;0.00;0.78;2.57;-0.90;-32.56;-163.73;-266.14;-283.00;0.79;77.57;-28.10;10.32 
14.402;-0.10;0.00;0.92;-3.27;-0.14;-29.08;-166.72;-270.92;-282.00;0.93;78.74;-28.61;9.88 
14.432;0.23;-0.26;1.08;12.24;-2.99;-30.68;-167.72;-271.88;-280.00;1.13;79.83;-28.87;9.53 
14.462;-0.29;0.14;0.89;24.00;18.43;-21.98;-165.72;-279.54;-286.00;0.95;81.39;-29.19;8.44 
14.492;-0.08;-0.32;0.85;36.17;22.96;11.27;-162.73;-276.67;-285.00;0.91;81.73;-28.34;7.48 
14.522;-0.14;0.03;0.90;4.52;29.08;3.55;-158.73;-273.79;-285.00;0.91;82.03;-27.23;6.77 
