Time(s) acc_x(g) acc_y(g) acc_z(g) gyr_x(°/s) gyr_y(°/s) gyr_z(°/s) mag_x(G) mag_y(G) mag_z(G) SVM(g) yaw(°) pitch(°) roll(°)
0.000;-0.17;0.24;0.85;15.51;10.71;21.50;-54.68;-270.30;-363.00;0.90;165.44;-10.60;8.36 
0.030;-0.15;0.26;0.85;16.90;14.40;16.63;-50.70;-268.38;-363.00;0.90;164.94;-10.88;9.02 
0.060;-0.12;0.25;0.91;18.16;12.17;15.23;-47.72;-264.55;-362.00;0.95;164.47;-11.15;9.75 
0.089;-0.08;0.22;0.94;16.28;5.08;8.28;-44.74;-264.55;-364.00;0.97;164.18;-11.24;10.37 
0.118;-0.14;0.22;0.89;17.67;-11.83;3.55;-39.77;-261.67;-368.00;0.93;164.09;-11.08;10.92 
0.148;-0.06;0.21;0.94;11.90;-13.08;-2.99;-32.81;-262.63;-368.00;0.97;164.14;-10.75;11.38 
0.178;-0.07;0.19;0.85;2.37;-22.47;-6.61;-32.81;-267.42;-370.00;0.87;164.32;-10.17;11.65 
0.208;-0.10;0.22;0.74;-7.65;-15.79;-8.35;-33.80;-271.26;-372.00;0.78;164.51;-9.56;11.61 
0.239;-0.11;0.27;0.66;-17.95;-2.57;-11.48;-35.79;-275.09;-368.00;0.72;164.70;-9.22;11.28 
0.269;-0.08;0.24;0.73;-27.06;9.32;-14.40;-44.74;-274.13;-367.00;0.77;164.94;-9.30;10.67 
0.299;-0.19;0.26;0.79;-31.03;14.61;-15.17;-48.72;-272.22;-364.00;0.85;165.14;-9.67;9.82 
0.329;-0.22;0.22;0.94;-21.98;29.77;-15.51;-55.67;-273.17;-363.00;0.99;165.37;-10.41;8.99 
0.359;-0.24;0.22;0.99;-9.81;23.86;-11.13;-62.63;-266.46;-356.00;1.04;165.60;-11.40;8.50 
0.389;-0.22;0.32;0.97;-10.78;2.78;-2.02;-60.65;-266.46;-356.00;1.04;165.67;-11.85;8.21 
0.419;-0.15;0.26;0.99;-1.60;3.48;-2.92;-63.63;-264.55;-357.00;1.03;165.62;-11.93;8.08 
0.450;-0.12;0.00;1.06;10.16;-11.69;-12.10;-64.62;-264.55;-354.00;1.07;165.80;-11.84;8.11 
0.480;-0.16;0.01;0.94;8.97;-39.03;-17.67;-61.64;-273.17;-359.00;0.95;166.32;-11.12;8.20 
0.510;-0.18;0.14;0.68;-1.67;-34.71;-21.08;-61.64;-279.88;-359.00;0.72;166.92;-9.99;8.13 
0.541;-0.14;0.25;0.71;-6.96;7.10;-26.43;-64.62;-285.63;-363.00;0.77;167.58;-9.65;8.00 
0.571;-0.17;0.20;0.91;-11.55;13.43;-22.54;-67.60;-285.63;-360.00;0.95;168.22;-10.13;7.67 
0.601;-0.26;0.15;0.90;-12.31;-0.49;-16.56;-67.60;-287.55;-359.00;0.95;168.66;-10.39;7.23 
0.631;-0.23;0.13;0.85;-6.96;-0.35;-13.77;-73.57;-288.51;-357.00;0.89;168.96;-10.46;6.85 
0.661;-0.24;0.04;0.82;-2.43;3.27;-13.50;-73.57;-287.55;-357.00;0.86;169.28;-10.58;6.59 
0.691;-0.18;0.00;0.90;-5.15;5.77;-17.04;-74.56;-290.43;-357.00;0.92;169.62;-10.81;6.38 
0.721;-0.22;0.05;0.86;-8.77;0.97;-18.37;-75.56;-294.26;-354.00;0.89;170.01;-11.00;5.96 
0.752;-0.14;0.04;0.87;-9.04;5.01;-19.69;-80.53;-294.26;-353.00;0.88;170.46;-11.14;5.48 
0.782;-0.15;0.05;0.94;-8.42;6.61;-16.00;-80.53;-295.22;-354.00;0.95;170.87;-11.34;5.02 
0.812;-0.18;0.09;0.95;-8.14;-0.35;-11.13;-84.51;-296.18;-352.00;0.97;171.13;-11.46;4.62 
0.842;-0.14;0.09;0.90;-5.22;-4.66;-4.73;-87.49;-297.14;-352.00;0.92;171.23;-11.37;4.33 
0.872;-0.11;0.06;0.88;-2.92;-3.90;0.28;-87.49;-298.10;-350.00;0.89;171.18;-11.22;4.15 
0.902;-0.10;0.04;0.87;1.46;-6.82;5.22;-87.49;-300.01;-348.00;0.88;170.99;-10.99;4.06 
0.932;-0.14;0.02;0.80;9.25;-11.62;5.15;-86.49;-299.05;-349.00;0.81;170.77;-10.64;4.14 
0.963;-0.13;0.00;0.83;16.90;-6.33;6.89;-85.50;-300.97;-352.00;0.84;170.57;-10.29;4.46 
0.993;-0.17;0.02;0.92;14.61;3.20;3.34;-80.53;-302.89;-355.00;0.94;170.41;-10.19;4.92 
1.023;-0.19;0.15;1.01;5.70;2.02;1.39;-77.55;-301.93;-356.00;1.04;170.32;-10.31;5.17 
1.054;-0.18;0.16;0.98;2.50;-10.43;2.78;-76.55;-300.97;-354.00;1.01;170.19;-10.20;5.30 
1.084;-0.19;0.13;0.82;3.97;-14.68;5.29;-74.56;-302.89;-359.00;0.85;170.01;-9.80;5.44 
1.113;-0.14;0.10;0.78;4.80;-1.25;7.10;-71.58;-303.85;-355.00;0.80;169.78;-9.53;5.56 
1.142;-0.14;0.16;0.85;3.83;6.40;5.98;-73.57;-307.68;-357.00;0.88;169.53;-9.57;5.71 
1.172;-0.21;0.18;0.87;4.45;3.13;5.22;-72.58;-300.97;-357.00;0.91;169.30;-9.69;5.88 
1.202;-0.18;0.13;0.88;3.83;-0.21;5.91;-73.57;-303.85;-357.00;0.91;169.08;-9.77;6.04 
1.232;-0.19;0.08;0.87;2.57;-1.60;4.52;-72.58;-304.80;-360.00;0.89;168.86;-9.74;6.17 
1.263;-0.16;0.15;0.87;1.81;5.70;2.30;-69.59;-304.80;-361.00;0.90;168.69;-9.80;6.25 
1.293;-0.18;0.14;0.86;3.48;3.55;3.20;-70.59;-299.05;-360.00;0.89;168.53;-9.96;6.38 
1.323;-0.14;0.13;0.86;3.69;5.77;2.43;-67.60;-298.10;-359.00;0.88;168.39;-10.09;6.50 
1.352;-0.18;0.14;0.89;3.20;4.80;0.42;-68.60;-299.05;-360.00;0.92;168.28;-10.22;6.58 
1.381;-0.20;0.17;0.89;2.85;5.08;0.07;-68.60;-300.01;-362.00;0.93;168.23;-10.38;6.70 
1.411;-0.18;0.18;0.89;3.62;2.09;2.71;-64.62;-300.01;-362.00;0.93;168.17;-10.51;6.83 
1.441;-0.20;0.17;0.87;3.62;0.35;5.77;-66.61;-295.22;-360.00;0.91;167.99;-10.53;6.99 
1.471;-0.19;0.21;0.85;2.78;0.77;7.30;-63.63;-298.10;-364.00;0.90;167.77;-10.53;7.15 
1.501;-0.22;0.21;0.83;3.83;3.55;9.39;-60.65;-296.18;-362.00;0.88;167.48;-10.59;7.34 
1.531;-0.22;0.19;0.88;6.68;6.89;12.31;-60.65;-296.18;-360.00;0.93;167.13;-10.74;7.61 
1.562;-0.22;0.15;0.82;8.28;4.94;13.29;-58.66;-294.26;-361.00;0.86;166.72;-10.90;7.95 
1.592;-0.25;0.16;0.82;6.96;7.44;15.10;-56.67;-291.39;-360.00;0.87;166.28;-11.04;8.29 
1.622;-0.30;0.18;0.78;5.15;10.57;16.28;-56.67;-284.68;-364.00;0.85;165.79;-11.32;8.59 
1.652;-0.33;0.18;0.81;5.98;8.77;16.83;-54.68;-283.72;-364.00;0.89;165.28;-11.63;8.89 
1.682;-0.34;0.15;0.74;7.10;10.43;17.25;-49.71;-279.88;-360.00;0.83;164.76;-11.95;9.24 
1.712;-0.29;0.14;0.71;5.43;16.49;13.84;-48.72;-277.97;-360.00;0.78;164.31;-12.39;9.56 
1.742;-0.30;0.18;0.66;2.43;16.07;12.10;-47.72;-272.22;-365.00;0.75;163.89;-12.92;9.80 
1.773;-0.28;0.22;0.61;4.45;26.71;8.00;-44.74;-268.38;-358.00;0.71;163.55;-13.66;10.05 
1.803;-0.26;0.18;0.62;12.59;34.09;7.51;-44.74;-263.59;-361.00;0.70;163.31;-14.63;10.51 
1.833;-0.26;0.17;0.65;12.52;41.04;10.64;-38.77;-256.88;-362.00;0.72;163.08;-15.61;11.15 
1.864;-0.26;0.20;0.70;11.27;44.94;5.01;-34.80;-242.50;-360.00;0.77;162.76;-16.88;11.64 
1.894;-0.25;0.14;0.66;13.08;39.65;-1.39;-31.81;-239.63;-356.00;0.72;162.84;-17.84;12.26 
1.924;-0.18;0.12;0.68;12.10;33.88;-31.86;-31.81;-235.79;-354.00;0.71;163.32;-18.72;12.42 
1.953;-0.26;0.24;0.73;-1.67;58.71;-3.69;-32.81;-228.12;-354.00;0.81;163.50;-20.51;12.20 
1.982;-0.38;0.03;0.70;18.43;32.97;1.67;-31.81;-212.79;-347.00;0.80;163.45;-22.00;12.36 
2.012;-0.36;0.13;0.68;26.37;33.25;7.65;-27.84;-208.00;-350.00;0.78;163.51;-22.87;12.99 
2.042;-0.34;0.28;0.64;6.05;-8.70;11.20;-26.84;-206.08;-350.00;0.78;163.45;-23.01;13.46 
2.073;-0.26;0.31;0.62;3.90;-31.10;18.71;-23.86;-205.12;-348.00;0.74;163.10;-22.26;13.95 
2.103;-0.34;0.33;0.66;8.70;-40.49;16.56;-20.88;-212.79;-358.00;0.81;162.79;-21.15;14.34 
2.133;-0.23;0.26;0.61;4.52;-76.17;26.30;-17.90;-220.46;-358.00;0.70;162.43;-19.33;14.84 
2.164;-0.25;0.31;0.56;8.63;-92.87;21.22;-19.88;-237.71;-359.00;0.69;162.15;-16.67;15.21 
2.194;-0.22;0.26;0.66;11.20;-94.26;29.22;-19.88;-250.17;-365.00;0.74;161.69;-13.56;15.97 
2.224;-0.18;0.26;0.76;0.83;-76.03;23.51;-19.88;-270.30;-372.00;0.82;161.17;-10.98;16.31 
2.254;-0.15;0.38;0.71;-0.56;-91.62;28.24;-18.89;-286.59;-375.00;0.82;160.60;-8.55;16.68 
2.285;0.00;0.22;0.71;-11.90;-91.34;28.03;-18.89;-301.93;-375.00;0.74;159.94;-5.66;16.71 
2.315;-0.10;0.33;0.78;-14.26;-111.17;28.38;-23.86;-319.18;-377.00;0.85;159.28;-2.70;16.43 
2.345;0.07;0.25;0.78;-17.46;-112.00;33.32;-29.83;-347.94;-377.00;0.82;158.45;0.73;16.10 
2.376;-0.07;0.22;0.54;-18.23;-122.16;31.51;-38.77;-369.98;-370.00;0.59;157.49;4.70;15.44 
2.406;0.09;0.08;0.50;-22.82;-125.57;37.22;-43.74;-391.07;-366.00;0.51;156.42;8.61;14.64 
2.436;0.34;0.11;0.78;-31.30;-119.93;43.48;-50.70;-410.24;-363.00;0.86;155.12;12.54;13.68 
2.465;0.29;0.14;0.57;-45.98;-165.22;60.87;-69.59;-438.04;-351.00;0.65;153.49;16.91;12.21 
2.495;0.29;0.09;0.18;-34.57;-167.17;73.67;-85.50;-464.88;-333.00;0.35;151.04;22.74;10.36 
2.525;0.33;0.23;0.34;-8.28;-143.58;76.03;-92.46;-483.09;-325.00;0.53;148.04;28.24;8.93 
2.555;2.94;0.79;2.58;13.84;-56.35;55.79;-107.37;-499.38;-315.00;3.99;144.81;32.58;7.86 
2.586;2.79;0.54;3.30;-30.26;24.83;0.21;-104.39;-492.67;-322.00;4.35;146.19;28.97;9.16 
2.616;-0.28;0.48;1.79;-20.59;-219.76;92.87;-111.35;-502.26;-320.00;1.87;143.24;32.90;7.38 
2.645;0.66;0.01;0.58;-50.37;-161.95;39.23;-125.27;-519.51;-304.00;0.88;140.51;38.19;5.08 
2.675;-0.09;0.15;0.68;-28.31;-157.01;80.28;-135.21;-536.76;-283.00;0.70;137.50;42.52;3.00 
2.705;0.26;-0.08;0.01;-63.30;-208.83;97.60;-147.14;-551.14;-250.00;0.27;133.08;48.20;0.08 
2.735;0.28;-0.28;-0.25;-72.35;-224.56;108.80;-178.95;-572.23;-202.00;0.47;126.46;54.94;-3.88 
2.765;0.77;-0.54;-0.18;-40.83;-147.76;64.42;-186.91;-575.10;-186.00;0.96;119.05;60.18;-7.94 
2.795;1.54;-0.45;0.07;-64.00;-143.30;50.50;-206.79;-585.65;-149.00;1.61;112.57;64.08;-10.54 
2.825;1.29;-0.51;0.03;-73.46;-134.82;63.10;-217.73;-591.40;-122.00;1.39;106.61;66.78;-12.86 
2.855;1.22;-0.44;-0.15;-80.70;-132.73;63.03;-237.61;-587.56;-80.00;1.31;98.35;68.96;-15.50 
2.886;0.78;-0.26;-0.10;-68.73;-106.43;60.10;-243.58;-589.48;-67.00;0.83;90.29;69.61;-17.85 
2.916;0.87;-0.36;-0.15;-67.69;-123.83;56.70;-256.50;-582.77;-28.00;0.95;80.57;69.09;-20.19 
2.945;0.84;-0.50;-0.19;-65.81;-114.64;44.10;-264.45;-574.15;-5.00;1.00;71.22;68.14;-21.82 
2.975;0.75;-0.42;-0.30;-72.35;-122.71;48.07;-270.42;-564.56;31.00;0.91;61.06;66.56;-23.25 
3.005;0.91;-0.55;-0.43;-50.43;-102.89;31.65;-277.38;-556.89;57.00;1.15;50.83;64.43;-24.43 
3.035;0.80;-0.56;-0.55;-32.42;-90.64;18.43;-278.37;-553.06;75.00;1.12;43.58;62.59;-25.04 
3.065;0.72;-0.53;-0.78;-17.95;-50.30;8.35;-278.37;-548.27;85.00;1.19;38.26;60.88;-25.45 
3.096;0.70;-0.35;-0.62;1.32;11.97;-5.36;-280.36;-545.39;92.00;1.00;36.60;60.33;-25.50 
3.126;0.70;-0.47;-0.50;4.52;3.90;-4.03;-280.36;-546.35;90.00;0.98;36.87;60.45;-25.45 
3.156;0.77;-0.57;-0.48;-3.13;-3.06;-12.80;-278.37;-545.39;90.00;1.07;36.90;60.45;-25.43 
3.187;0.75;-0.49;-0.51;-11.62;-6.26;-20.17;-277.38;-553.06;88.00;1.03;36.71;60.68;-25.00 
3.217;0.89;-0.47;-0.62;-13.98;-1.95;-26.09;-275.39;-556.89;93.00;1.18;36.44;61.09;-24.27 
3.247;0.84;-0.55;-0.55;-14.26;6.33;-20.80;-269.43;-556.89;97.00;1.14;36.43;61.63;-23.45 
3.277;0.97;-0.44;-0.53;-8.35;15.79;-30.61;-266.44;-565.52;95.00;1.19;37.01;62.40;-22.66 
3.307;1.04;-0.46;-0.50;-3.69;27.69;-30.89;-265.45;-570.31;95.00;1.24;38.36;63.46;-21.80 
3.337;0.94;-0.26;-0.39;1.60;20.80;-35.97;-261.47;-577.98;93.00;1.05;40.33;64.73;-20.86 
3.367;0.92;-0.30;-0.34;3.97;6.82;-40.77;-253.52;-584.69;89.00;1.03;42.07;65.88;-19.80 
3.398;0.96;-0.31;-0.37;12.87;16.07;-43.97;-251.53;-588.52;88.00;1.07;44.00;67.09;-18.62 
3.428;0.99;-0.23;-0.31;18.23;24.70;-39.86;-247.55;-598.11;88.00;1.06;46.97;68.53;-17.49 
3.458;0.92;-0.22;-0.28;15.37;24.35;-35.62;-236.62;-606.73;74.00;0.99;50.07;69.89;-16.55 
3.488;1.00;-0.16;-0.24;10.64;23.86;-32.77;-233.63;-612.49;70.00;1.04;52.91;71.18;-15.62 
3.518;1.06;-0.09;-0.24;5.15;22.12;-23.17;-230.65;-615.36;66.00;1.09;55.60;72.43;-14.74 
3.548;1.06;-0.07;-0.33;2.23;12.73;-18.37;-224.69;-621.11;66.00;1.11;57.32;73.26;-14.15 
3.578;1.08;-0.14;-0.30;4.59;23.79;-16.35;-224.69;-625.90;57.00;1.13;58.82;73.99;-13.58 
3.609;1.05;-0.12;-0.21;5.43;31.10;-11.41;-222.70;-625.90;56.00;1.08;61.14;74.86;-13.14 
3.638;1.02;-0.15;-0.16;4.17;23.65;-4.66;-221.70;-631.66;50.00;1.04;63.29;75.48;-12.95 
3.667;1.05;-0.15;-0.11;3.69;10.99;-2.37;-218.72;-629.74;47.00;1.07;64.68;75.85;-12.83 
3.697;1.04;-0.17;-0.15;4.17;4.45;6.54;-221.70;-628.78;43.00;1.06;65.38;75.91;-12.93 
3.726;1.02;-0.21;-0.14;0.42;1.67;7.37;-224.69;-625.90;42.00;1.05;65.47;75.69;-13.23 
3.756;1.01;-0.20;-0.19;-4.10;1.04;5.08;-225.68;-625.90;44.00;1.05;65.35;75.49;-13.48 
3.786;1.02;-0.24;-0.15;-11.62;-5.84;8.28;-223.69;-624.95;39.00;1.06;65.00;75.28;-13.69 
3.816;1.02;-0.22;-0.22;-6.75;-6.61;0.63;-224.69;-624.95;48.00;1.07;64.35;75.06;-13.85 
3.846;1.02;-0.23;-0.24;-3.62;-11.06;-0.42;-222.70;-626.86;48.00;1.07;63.62;74.89;-13.92 
3.876;0.99;-0.18;-0.26;-2.64;-13.29;0.56;-225.68;-623.99;51.00;1.04;62.67;74.67;-13.97 
3.907;0.98;-0.23;-0.29;0.00;-5.63;-0.28;-222.70;-622.07;52.00;1.05;61.93;74.45;-14.04 
3.937;1.03;-0.23;-0.27;-3.06;-5.22;-3.20;-223.69;-623.03;54.00;1.09;61.47;74.35;-14.05 
3.967;1.02;-0.20;-0.29;-2.71;-5.70;0.14;-222.70;-624.95;51.00;1.08;61.01;74.25;-14.06 
3.998;1.01;-0.21;-0.27;-2.71;-0.70;-0.42;-224.69;-623.99;55.00;1.07;60.58;74.11;-14.13 
4.028;1.00;-0.22;-0.28;-1.67;-1.39;-1.46;-224.69;-623.99;55.00;1.06;60.41;74.08;-14.14 
4.058;1.01;-0.18;-0.34;1.74;-0.35;-1.25;-220.71;-624.95;56.00;1.08;60.16;74.01;-14.14 
4.088;1.03;-0.25;-0.31;2.92;7.58;-0.56;-224.69;-623.99;54.00;1.10;60.23;73.98;-14.21 
4.119;1.10;-0.27;-0.22;3.69;2.50;-9.46;-222.70;-624.95;51.00;1.15;60.85;74.19;-14.08 
4.149;1.02;-0.16;-0.21;6.40;-14.68;-1.67;-223.69;-627.82;52.00;1.05;60.74;74.15;-14.06 
4.179;0.98;-0.07;-0.40;14.47;-7.93;5.43;-223.69;-625.90;55.00;1.06;60.10;73.92;-14.09 
4.210;1.02;-0.23;-0.34;17.18;10.85;3.69;-224.69;-628.78;47.00;1.10;60.49;73.81;-14.28 
4.240;1.11;-0.16;-0.33;11.06;3.41;6.19;-222.70;-625.90;48.00;1.17;61.02;73.72;-14.51 
4.270;1.14;-0.16;-0.16;4.17;15.65;16.00;-225.68;-622.07;45.00;1.16;61.39;73.61;-14.77 
4.300;0.85;-0.19;0.00;10.43;3.41;27.55;-228.66;-623.03;41.00;0.87;61.82;73.18;-15.49 
4.330;0.94;-0.30;-0.26;16.00;-11.13;5.36;-234.63;-615.36;41.00;1.02;61.59;72.57;-16.19 
4.360;0.96;-0.28;-0.36;9.04;-14.47;4.38;-234.63;-619.20;42.00;1.06;60.90;72.22;-16.41 
4.390;0.82;-0.26;-0.51;17.81;0.14;0.28;-230.65;-617.28;41.00;1.00;60.36;71.92;-16.60 
4.421;0.94;-0.41;-0.55;25.46;37.91;-13.77;-232.64;-618.24;39.00;1.16;61.58;72.09;-16.66 
4.451;1.06;-0.34;-0.65;33.25;62.61;-18.50;-230.65;-620.15;21.00;1.29;64.63;72.81;-16.41 
4.481;1.00;-0.32;-0.56;41.53;92.31;-27.55;-224.69;-623.03;7.00;1.19;69.10;73.84;-15.88 
4.511;0.89;-0.19;-0.51;47.72;117.36;-27.90;-224.69;-624.95;-12.00;1.04;75.48;74.81;-15.19 
4.541;0.97;-0.38;0.00;58.09;119.72;-29.29;-216.73;-624.95;-40.00;1.04;83.22;75.01;-14.39 
4.571;0.94;-0.42;0.10;49.25;94.82;-32.70;-205.80;-622.07;-75.00;1.03;89.49;74.41;-13.50 
4.601;0.85;-0.38;-0.04;24.97;91.90;-41.53;-198.84;-624.95;-91.00;0.93;94.60;73.60;-12.47 
4.632;0.94;-0.30;-0.18;12.03;144.97;-60.38;-190.88;-627.82;-107.00;1.00;100.64;72.18;-11.15 
4.662;1.00;-0.02;0.17;18.09;173.57;-55.79;-181.94;-621.11;-129.00;1.01;109.10;69.11;-9.33 
4.692;0.85;0.17;0.34;-5.98;131.83;-26.23;-169.01;-610.57;-160.00;0.93;115.57;65.95;-7.83 
4.722;0.91;0.26;0.45;-20.80;139.34;-28.94;-168.02;-600.02;-172.00;1.05;121.22;62.65;-6.99 
4.752;0.58;0.26;0.47;-27.34;111.30;-33.74;-165.04;-590.44;-189.00;0.79;126.52;59.33;-6.21 
4.782;0.73;-0.14;0.76;-35.76;106.71;-48.14;-164.04;-584.69;-196.00;1.06;131.35;56.30;-5.61 
4.812;0.98;0.12;0.33;-63.79;87.44;-44.80;-166.03;-580.85;-202.00;1.04;135.90;54.04;-5.44 
4.842;0.65;0.62;1.12;-44.87;143.86;-15.65;-171.00;-568.39;-212.00;1.44;141.13;50.04;-5.49 
4.872;1.14;0.38;0.78;-45.01;85.29;19.69;-175.97;-554.02;-220.00;1.43;144.41;46.47;-6.11 
4.902;1.02;0.28;0.54;-7.93;39.37;42.16;-184.92;-544.43;-222.00;1.19;145.21;44.72;-7.11 
4.932;1.29;0.20;0.42;7.17;47.23;56.35;-187.90;-535.80;-229.00;1.37;144.43;43.54;-7.85 
4.961;1.26;-0.26;0.76;21.22;45.91;53.29;-189.89;-513.76;-238.00;1.49;143.05;42.15;-8.67 
4.991;0.73;-0.78;0.89;17.53;11.27;34.43;-187.90;-506.09;-241.00;1.39;141.77;41.16;-9.12 
5.022;1.02;-0.51;0.90;13.08;14.33;46.12;-188.90;-500.34;-249.00;1.45;140.56;40.36;-10.07 
5.052;1.01;-0.48;0.62;47.79;-15.65;45.84;-189.89;-494.59;-254.00;1.28;138.37;40.20;-10.30 
5.082;0.82;-0.34;0.67;37.77;-47.93;52.24;-186.91;-484.05;-261.00;1.11;135.41;40.79;-10.45 
5.112;0.75;-0.02;0.67;59.13;-54.26;40.14;-184.92;-485.96;-268.00;1.01;132.25;42.20;-10.42 
5.143;0.69;-0.15;0.69;89.53;-59.62;37.91;-177.96;-490.76;-273.00;0.99;128.78;43.69;-9.53 
5.173;0.93;-0.53;0.71;104.35;-77.22;20.73;-163.05;-502.26;-288.00;1.28;125.00;45.54;-8.26 
5.202;0.84;-0.19;0.56;92.80;-80.42;1.11;-136.20;-513.76;-297.00;1.03;121.84;47.90;-6.51 
5.232;0.77;-0.04;0.30;83.48;-61.77;-24.28;-119.30;-522.39;-301.00;0.83;119.75;50.21;-4.60 
5.262;0.97;-0.10;0.15;87.03;-34.92;-33.18;-101.41;-529.10;-305.00;0.99;118.70;52.12;-2.30 
5.292;0.61;-0.22;0.36;86.68;-33.04;-50.71;-82.52;-537.72;-310.00;0.74;118.29;53.39;0.17 
5.322;0.99;0.21;0.19;54.61;15.72;-49.81;-50.70;-548.27;-321.00;1.03;118.77;54.05;2.69 
5.352;0.63;0.56;0.00;-20.24;22.61;-0.77;-40.76;-543.47;-325.00;0.84;119.80;53.63;4.09 
5.382;0.36;0.75;-0.21;-15.93;14.68;37.22;-46.73;-536.76;-328.00;0.86;120.00;53.60;3.86 
5.412;0.41;0.22;0.04;36.94;39.03;69.91;-52.69;-528.14;-324.00;0.47;118.63;53.74;3.15 
5.443;0.03;-0.24;0.74;89.67;76.87;42.78;-37.78;-507.05;-341.00;0.78;117.34;51.40;2.88 
5.473;-0.09;0.17;0.39;84.52;88.83;38.89;-24.85;-493.63;-354.00;0.43;116.78;48.46;3.38 
5.503;0.12;0.29;0.56;101.22;81.81;23.17;-3.98;-477.34;-365.00;0.64;116.58;45.65;4.85 
5.534;0.30;0.80;1.38;78.40;71.03;1.74;12.92;-459.12;-373.00;1.62;116.73;42.14;7.05 
5.564;0.65;0.42;1.20;52.31;54.05;-20.80;39.77;-449.54;-388.00;1.43;117.23;40.22;8.65 
5.594;0.75;0.66;1.26;46.19;63.86;-44.52;51.70;-440.91;-391.00;1.61;118.60;38.28;10.74 
5.624;0.65;0.41;1.22;23.10;37.70;-43.90;60.65;-433.24;-397.00;1.44;120.19;36.46;12.60 
5.655;0.43;0.32;1.05;14.33;61.15;-64.07;64.62;-428.45;-400.00;1.18;122.01;34.59;14.10 
5.685;0.44;0.57;1.16;4.45;83.90;-71.10;74.56;-408.32;-405.00;1.37;124.41;31.69;15.81 
5.715;0.34;0.76;1.28;-26.71;81.74;-64.07;76.55;-390.11;-405.00;1.53;126.74;28.54;16.85 
5.746;0.50;0.62;1.29;-46.12;70.26;-66.16;67.60;-376.69;-407.00;1.52;129.01;25.50;17.06 
5.775;0.48;0.30;1.03;-58.30;39.17;-65.04;67.60;-374.78;-409.00;1.18;131.15;23.32;16.67 
5.804;0.45;0.32;0.94;-49.39;42.23;-61.63;45.73;-358.48;-408.00;1.09;133.04;21.82;15.86 
5.834;0.36;0.37;0.78;-29.98;57.11;-58.92;39.77;-350.81;-403.00;0.94;134.89;20.20;15.49 
5.864;0.41;0.48;0.90;-5.22;68.17;-61.63;33.80;-344.10;-404.00;1.10;136.91;17.87;15.77 
5.894;0.38;0.30;0.83;-12.59;45.91;-54.05;33.80;-337.39;-403.00;0.96;138.65;15.93;16.15 
5.924;0.35;0.40;0.82;-24.28;23.23;-46.82;27.84;-331.64;-402.00;0.98;140.18;14.67;16.12 
5.955;0.32;0.31;0.82;-18.30;17.39;-38.19;20.88;-331.64;-400.00;0.93;141.48;13.97;15.96 
5.985;0.24;0.14;0.87;-19.41;-4.52;-30.33;16.90;-330.68;-402.00;0.91;142.61;13.63;15.92 
6.015;0.29;0.21;0.82;-15.86;-4.52;-23.44;9.94;-331.64;-398.00;0.89;143.43;13.68;15.74 
6.046;0.28;0.22;0.79;-10.23;-9.81;-15.17;7.95;-334.52;-398.00;0.87;144.06;13.95;15.57 
6.076;0.21;0.24;0.63;13.98;35.90;-8.97;3.98;-336.44;-397.00;0.71;144.28;14.26;15.54 
6.106;0.18;0.30;0.85;18.85;49.04;-18.30;8.95;-326.85;-397.00;0.92;144.71;13.00;16.35 
6.136;0.19;0.19;0.86;17.81;56.42;-20.17;13.92;-319.18;-397.00;0.90;145.26;11.32;17.09 
6.167;0.18;0.25;0.86;17.67;43.48;-16.83;18.89;-307.68;-396.00;0.91;145.99;9.86;17.78 
6.197;0.21;0.12;0.97;15.86;40.90;-19.13;19.88;-300.01;-396.00;1.00;146.44;8.54;18.38 
6.227;0.14;0.19;0.86;12.24;37.29;-21.77;23.86;-292.34;-395.00;0.89;147.03;7.18;18.77 
6.258;0.12;0.00;0.89;15.03;5.70;-25.46;21.87;-285.63;-394.00;0.90;147.76;6.39;19.31 
6.288;0.17;0.15;0.94;1.11;-10.43;-23.58;25.85;-291.39;-395.00;0.97;148.54;6.33;19.58 
6.318;0.00;0.11;0.84;-22.82;-24.35;-15.23;23.86;-293.30;-395.00;0.85;148.97;6.76;19.14 
6.348;0.12;-0.04;0.92;-21.22;-21.63;-26.99;18.89;-301.93;-391.00;0.93;149.64;7.32;18.43 
6.378;0.00;-0.10;1.03;-36.03;-34.57;-16.77;11.93;-308.64;-389.00;1.03;150.35;8.11;17.51 
6.408;-0.15;0.18;0.86;-46.40;-44.73;-12.94;1.99;-322.06;-390.00;0.89;150.75;8.86;16.17 
6.438;0.09;0.16;0.73;-27.13;-42.02;-13.29;-5.97;-333.56;-387.00;0.75;151.14;9.80;15.13 
6.469;0.23;0.31;0.62;-19.34;-56.21;-5.98;-11.93;-346.02;-383.00;0.73;151.46;11.32;14.58 
6.499;0.12;0.54;0.43;-7.86;-60.10;-1.11;-16.90;-355.61;-385.00;0.70;151.52;13.17;14.57 
6.529;0.01;0.40;0.42;-10.23;-56.00;-2.85;-17.90;-370.94;-379.00;0.58;151.58;14.78;14.88 
6.559;0.07;0.36;0.39;-15.37;-46.68;3.48;-20.88;-383.40;-377.00;0.54;151.62;16.38;14.77 
6.589;0.20;0.41;0.31;0.42;-26.78;1.18;-20.88;-389.15;-377.00;0.55;151.57;17.69;15.13 
6.619;0.29;0.44;0.45;12.80;4.31;-7.10;-24.85;-394.90;-376.00;0.69;151.59;18.25;15.72 
6.649;0.26;0.42;0.77;15.79;25.46;-8.63;-19.88;-392.03;-380.00;0.91;151.74;17.88;16.50 
6.680;0.28;0.33;0.98;12.31;13.91;-14.26;-14.91;-387.24;-379.00;1.07;152.05;16.96;17.11 
6.710;0.44;0.36;1.09;-2.23;-19.76;-15.17;-9.94;-386.28;-380.00;1.23;152.60;16.67;17.51 
6.740;0.43;0.24;1.02;-8.90;-75.41;-3.97;-11.93;-393.95;-376.00;1.13;152.65;18.07;17.43 
6.771;0.51;0.12;0.82;-23.23;-95.37;-10.16;-11.93;-415.99;-375.00;0.97;152.65;20.59;16.97 
6.801;0.41;0.18;0.78;-34.16;-79.44;-3.97;-25.85;-435.16;-369.00;0.90;152.59;23.22;16.03 
6.831;0.39;0.10;0.64;-42.23;-61.84;-13.22;-26.84;-446.66;-359.00;0.76;152.75;25.30;15.01 
6.860;0.26;0.09;0.57;-44.45;-36.52;-14.05;-38.77;-458.17;-352.00;0.63;153.20;26.71;13.99 
6.890;0.26;0.07;0.52;-56.28;1.74;-21.22;-46.73;-465.83;-346.00;0.59;153.98;27.16;12.73 
6.920;0.25;0.35;0.67;-58.02;31.10;-21.63;-61.64;-463.92;-346.00;0.80;155.21;26.49;11.50 
6.950;0.31;0.69;0.94;-41.53;43.55;-44.17;-69.59;-461.04;-340.00;1.21;156.80;25.22;10.65 
6.981;0.28;0.49;1.13;-8.00;24.00;-24.70;-70.59;-457.21;-340.00;1.26;158.36;23.57;10.78 
7.011;0.31;0.15;0.79;-12.80;-9.46;-7.65;-75.56;-457.21;-340.00;0.86;158.96;23.37;10.68 
7.041;0.27;0.05;0.83;-17.04;24.90;-2.71;-77.55;-458.17;-340.00;0.87;159.14;23.22;10.24 
7.061;0.27;0.18;0.84;-6.05;46.33;4.45;-37.78;-423.66;-361.00;0.90;145.73;20.56;14.08 
7.091;0.24;0.20;0.87;-8.56;71.44;-4.10;-43.74;-413.12;-364.00;0.92;145.97;18.74;13.98 
7.121;0.25;0.26;0.88;-10.78;80.21;-0.77;-43.74;-396.82;-368.00;0.95;146.30;16.55;13.73 
7.151;0.26;0.18;0.90;-3.34;77.57;0.21;-43.74;-377.65;-371.00;0.95;146.56;13.93;13.56 
7.181;0.10;0.18;0.82;0.07;50.99;2.71;-44.74;-369.02;-371.00;0.85;146.70;11.90;13.46 
7.211;0.18;0.20;0.93;-1.39;32.00;2.64;-43.74;-359.44;-375.00;0.97;146.72;10.67;13.50 
7.242;0.05;0.19;0.96;-14.05;38.82;-1.25;-43.74;-349.85;-368.00;0.98;146.71;9.57;13.24 
7.271;0.00;0.18;0.87;-7.72;27.55;-0.83;-44.74;-341.23;-369.00;0.89;146.76;8.55;12.98 
7.301;0.08;0.22;0.85;-5.98;17.39;0.28;-49.71;-339.31;-372.00;0.88;146.82;7.79;12.79 
7.332;0.10;0.23;0.90;-3.90;46.68;4.10;-53.69;-332.60;-370.00;0.93;146.70;6.74;12.58 
7.362;0.00;0.19;0.71;3.48;45.15;3.41;-49.71;-324.93;-372.00;0.73;146.54;5.15;12.56 
7.392;-0.03;0.25;0.87;-3.41;43.20;7.37;-46.73;-311.51;-372.00;0.91;146.36;3.89;12.56 
7.422;-0.06;0.08;0.87;2.02;36.66;1.53;-53.69;-300.01;-371.00;0.88;146.19;2.69;12.55 
7.452;-0.10;0.30;0.87;0.07;48.56;-2.78;-46.73;-295.22;-369.00;0.93;146.20;1.49;12.64 
7.482;-0.10;0.24;0.90;8.70;38.61;-4.73;-47.72;-287.55;-369.00;0.94;146.31;0.13;12.93 
7.512;-0.03;1.14;1.26;8.28;64.00;-10.99;-45.73;-277.97;-367.00;1.70;146.44;-1.21;13.12 
7.543;-0.16;0.22;0.82;39.58;119.65;-28.59;-41.76;-258.80;-367.00;0.86;146.96;-4.41;13.88 
7.573;-0.38;0.23;0.70;14.54;31.37;-9.18;-33.80;-243.46;-367.00;0.83;147.48;-7.25;14.87 
7.603;-0.14;0.27;0.84;-3.76;-37.22;-2.99;-34.80;-242.50;-366.00;0.89;147.87;-7.40;15.13 
7.633;-0.16;0.15;0.81;-14.33;-83.41;5.29;-35.79;-253.05;-367.00;0.84;148.02;-5.70;14.98 
7.663;-0.23;0.10;0.80;-49.04;-113.74;9.95;-42.75;-271.26;-376.00;0.84;148.12;-3.18;14.28 
7.693;-0.08;0.10;0.73;-47.65;-109.15;4.45;-53.69;-293.30;-365.00;0.74;147.94;0.23;12.76 
7.723;0.00;0.14;0.89;-25.74;-75.69;4.59;-62.63;-311.51;-366.00;0.90;147.95;3.04;11.63 
7.754;0.13;0.23;0.97;-11.62;-35.55;4.66;-63.63;-323.98;-363.00;1.01;147.83;4.93;11.07 
7.784;0.03;0.11;0.87;5.29;-3.69;2.50;-68.60;-328.77;-362.00;0.88;147.72;5.64;10.91 
7.814;0.03;0.14;0.86;7.23;6.82;3.62;-65.62;-329.73;-364.00;0.87;147.67;5.58;11.12 
7.845;0.04;0.14;1.00;2.92;8.56;5.01;-63.63;-327.81;-367.00;1.01;147.61;5.39;11.36 
7.875;0.06;0.14;0.79;2.09;15.93;3.97;-62.63;-322.06;-364.00;0.80;147.51;5.13;11.44 
7.905;0.06;0.14;0.93;5.29;18.23;0.56;-62.63;-321.10;-366.00;0.94;147.47;4.56;11.52 
7.935;0.02;0.15;0.96;0.63;18.78;0.35;-63.63;-317.27;-364.00;0.97;147.45;3.90;11.48 
7.964;0.02;0.13;0.94;-2.85;7.58;1.88;-62.63;-314.39;-364.00;0.95;147.43;3.48;11.44 
7.993;0.02;0.16;0.90;-0.63;-1.67;3.48;-63.63;-313.43;-365.00;0.91;147.42;3.46;11.42 
8.023;0.02;0.13;0.88;0.07;1.95;3.41;-58.66;-312.47;-364.00;0.89;147.38;3.49;11.46 
8.054;0.00;0.11;0.86;1.67;5.63;1.53;-62.63;-312.47;-368.00;0.87;147.33;3.48;11.57 
8.084;0.00;0.14;0.85;2.85;9.25;3.62;-59.65;-310.56;-364.00;0.86;147.30;3.27;11.62 
8.113;0.03;0.18;0.82;4.24;21.15;1.32;-60.65;-310.56;-365.00;0.84;147.34;2.98;11.88 
8.142;-0.04;0.13;0.92;5.08;14.47;-4.03;-55.67;-303.85;-364.00;0.93;147.39;2.38;12.03 
8.171;-0.03;0.17;0.98;0.35;2.02;2.37;-61.64;-302.89;-366.00;1.00;147.41;1.98;12.06 
8.201;-0.03;0.13;0.87;0.07;2.85;0.63;-61.64;-301.93;-363.00;0.88;147.41;1.97;12.13 
8.231;0.00;0.14;0.90;-0.07;2.78;-0.97;-60.65;-304.80;-363.00;0.91;147.47;1.92;12.20 
8.261;-0.01;0.14;0.89;-0.56;-1.25;-0.90;-61.64;-301.93;-363.00;0.90;147.56;1.95;12.26 
8.291;-0.04;0.14;0.89;-0.35;1.04;-1.81;-58.66;-300.01;-366.00;0.90;147.66;1.95;12.29 
8.320;-0.02;0.14;0.91;0.35;1.53;-1.81;-60.65;-301.93;-362.00;0.92;147.77;1.90;12.34 
8.351;-0.04;0.15;0.92;-1.04;-1.46;-2.57;-57.66;-300.97;-363.00;0.93;147.88;1.87;12.36 
8.381;-0.04;0.14;0.84;-0.56;1.74;-2.30;-57.66;-304.80;-367.00;0.85;148.06;1.89;12.36 
8.411;-0.03;0.15;0.97;-0.35;-5.36;-9.60;-60.65;-300.97;-363.00;0.98;148.37;1.77;12.40 
8.442;0.00;0.14;0.86;-0.49;-27.55;-6.12;-63.63;-308.64;-365.00;0.87;148.67;2.24;12.40 
8.472;0.02;0.23;0.82;-0.35;-19.06;0.42;-62.63;-311.51;-365.00;0.85;148.83;2.96;12.44 
8.502;0.01;0.18;0.86;-1.32;-7.23;4.66;-60.65;-315.35;-365.00;0.88;148.81;3.42;12.49 
8.532;0.02;0.17;0.77;-1.11;9.39;7.03;-60.65;-316.31;-365.00;0.79;148.69;3.53;12.50 
8.561;-0.02;0.12;0.88;2.64;27.76;7.86;-60.65;-311.51;-365.00;0.89;148.46;3.03;12.58 
8.591;0.00;0.14;0.94;6.89;15.10;2.50;-59.65;-307.68;-366.00;0.95;148.33;2.40;12.66 
8.621;-0.05;0.13;0.97;-1.88;7.17;0.14;-59.65;-303.85;-363.00;0.98;148.25;2.00;12.59 
8.652;-0.06;0.14;0.89;-2.78;-5.63;0.07;-62.63;-301.93;-362.00;0.90;148.26;1.99;12.52 
8.682;-0.02;0.18;0.95;-0.42;-5.91;3.06;-61.64;-306.72;-365.00;0.97;148.31;2.23;12.49 
8.712;0.00;0.07;1.00;2.02;-33.11;8.14;-61.64;-306.72;-366.00;1.00;147.88;2.89;12.44 
8.742;0.08;0.11;0.89;-1.04;-41.53;-3.55;-59.65;-311.51;-366.00;0.90;147.90;4.03;12.47 
8.772;0.08;0.15;0.77;-0.49;-10.37;-2.43;-61.64;-321.10;-365.00;0.79;148.06;4.95;12.45 
8.802;0.04;0.14;0.77;-0.49;17.74;-4.03;-60.65;-323.98;-368.00;0.78;148.19;4.90;12.53 
8.832;0.00;0.15;0.93;-2.30;21.22;-8.14;-59.65;-318.22;-368.00;0.94;148.39;4.25;12.53 
8.862;-0.06;0.14;0.95;-0.77;4.10;-13.63;-62.63;-315.35;-364.00;0.96;148.82;3.67;12.46 
8.891;-0.05;0.17;0.93;3.97;-9.88;-4.73;-57.66;-317.27;-363.00;0.95;149.10;3.67;12.53 
8.921;-0.01;0.20;0.88;9.11;-8.07;9.25;-61.64;-322.06;-365.00;0.90;149.14;3.92;12.75 
8.952;0.04;0.15;0.89;6.05;-11.27;-1.95;-59.65;-322.06;-366.00;0.90;149.08;4.31;13.01 
8.982;0.00;0.08;0.86;3.97;-12.66;-11.90;-58.66;-323.02;-367.00;0.86;149.29;4.68;13.23 
9.012;0.01;0.13;0.80;3.90;-7.37;-17.74;-55.67;-329.73;-365.00;0.81;149.82;4.91;13.40 
9.042;0.06;0.14;0.83;8.21;4.80;-12.59;-54.68;-329.73;-365.00;0.84;150.33;4.90;13.62 
9.072;0.06;0.17;0.90;9.25;5.36;-11.48;-53.69;-327.81;-368.00;0.92;150.74;4.65;13.92 
9.102;0.05;0.20;0.87;9.04;-1.46;-9.95;-52.69;-330.68;-369.00;0.89;151.10;4.50;14.25 
9.132;0.09;0.18;0.82;4.59;1.74;-9.60;-49.71;-332.60;-370.00;0.84;151.43;4.50;14.51 
9.163;0.06;0.15;0.86;4.94;5.91;-10.43;-49.71;-331.64;-372.00;0.88;151.76;4.30;14.69 
9.193;0.06;0.18;0.98;4.52;-1.74;-6.82;-46.73;-331.64;-372.00;1.00;152.09;4.11;14.83 
9.222;0.08;0.23;0.85;2.78;-3.69;-7.10;-49.71;-335.48;-371.00;0.88;152.29;4.25;14.94 
9.251;0.06;0.22;0.86;2.43;3.48;-7.65;-44.74;-335.48;-372.00;0.89;152.56;4.21;15.07 
9.281;0.04;0.19;0.83;0.90;-1.60;-2.64;-45.73;-336.44;-370.00;0.85;152.76;4.15;15.15 
9.311;0.04;0.18;0.86;0.63;-1.04;-1.11;-44.74;-336.44;-371.00;0.88;152.84;4.18;15.15 
9.341;0.02;0.19;0.89;0.56;1.32;-0.14;-49.71;-336.44;-371.00;0.91;152.88;4.17;15.18 
9.371;0.02;0.19;0.90;-1.32;-0.83;-0.90;-44.74;-334.52;-370.00;0.92;152.93;4.12;15.17 
9.401;0.02;0.20;0.82;-2.30;0.28;0.90;-46.73;-333.56;-374.00;0.84;152.95;4.16;15.12 
9.431;0.02;0.19;0.88;-2.09;4.94;1.95;-46.73;-336.44;-369.00;0.90;152.94;4.09;15.07 
9.462;0.04;0.23;0.86;-2.43;2.43;2.78;-45.73;-336.44;-372.00;0.89;152.88;3.97;15.02 
9.492;0.00;0.20;0.88;-2.71;2.71;2.92;-50.70;-334.52;-373.00;0.90;152.81;3.90;14.97 
9.522;0.01;0.19;0.83;-2.92;2.99;2.02;-49.71;-335.48;-372.00;0.85;152.77;3.87;14.88 
9.552;0.03;0.23;0.86;-3.34;8.70;3.48;-46.73;-332.60;-373.00;0.89;152.71;3.73;14.76 
9.582;0.03;0.20;0.91;-2.78;9.11;3.20;-45.73;-330.68;-372.00;0.93;152.62;3.46;14.65 
