Time(s) acc_x(g) acc_y(g) acc_z(g) gyr_x(°/s) gyr_y(°/s) gyr_z(°/s) mag_x(G) mag_y(G) mag_z(G) SVM(g) yaw(°) pitch(°) roll(°)
0.000;-0.50;0.26;0.71;1.67;6.05;-4.94;-21.82;-216.73;-397.00;0.91;174.24;-26.78;15.12 
0.030;-0.54;0.27;0.74;1.32;8.14;-2.23;-15.87;-217.68;-395.00;0.96;174.33;-27.14;15.09 
0.059;-0.54;0.28;0.77;0.00;6.96;1.11;-18.85;-213.89;-393.00;0.98;174.29;-27.47;15.05 
0.089;-0.54;0.27;0.73;-1.67;3.48;3.27;-13.89;-212.95;-393.00;0.95;174.18;-27.71;15.03 
0.120;-0.51;0.28;0.74;-2.99;-0.56;5.77;-17.85;-212.95;-392.00;0.94;173.97;-27.81;14.99 
0.150;-0.47;0.26;0.70;-2.85;0.00;8.21;-20.83;-212.95;-392.00;0.88;173.66;-27.81;14.99 
0.180;-0.51;0.26;0.69;-2.50;5.63;7.44;-19.84;-211.05;-391.00;0.90;173.34;-27.91;15.02 
0.210;-0.51;0.26;0.75;-2.09;7.51;6.68;-16.86;-209.16;-393.00;0.94;173.04;-28.13;15.03 
0.240;-0.51;0.24;0.77;-1.67;3.97;6.40;-15.87;-204.43;-392.00;0.95;172.74;-28.32;15.04 
0.270;-0.51;0.24;0.73;-1.32;1.74;5.84;-17.85;-210.11;-391.00;0.92;172.50;-28.40;15.06 
0.300;-0.51;0.26;0.78;-0.70;3.48;4.59;-17.85;-205.38;-392.00;0.97;172.28;-28.50;15.06 
0.331;-0.51;0.26;0.76;-1.11;0.77;5.43;-17.85;-206.32;-390.00;0.95;172.08;-28.59;15.08 
0.361;-0.46;0.24;0.75;-0.70;-2.99;6.12;-15.87;-204.43;-391.00;0.91;171.85;-28.54;15.11 
0.391;-0.44;0.21;0.71;-0.21;-0.63;3.83;-14.88;-206.32;-394.00;0.86;171.67;-28.51;15.15 
0.421;-0.44;0.22;0.71;0.35;1.67;2.71;-19.84;-205.38;-389.00;0.86;171.54;-28.54;15.13 
0.451;-0.44;0.26;0.74;0.83;3.27;2.85;-15.87;-206.32;-390.00;0.90;171.44;-28.62;15.16 
0.481;-0.44;0.30;0.75;-0.77;4.94;4.45;-15.87;-204.43;-387.00;0.92;171.30;-28.69;15.21 
0.511;-0.42;0.36;0.78;-3.27;6.47;8.70;-14.88;-204.43;-391.00;0.96;171.05;-28.80;15.29 
0.542;-0.42;0.34;0.77;-4.94;4.38;16.42;-13.89;-200.64;-389.00;0.94;170.57;-28.80;15.44 
0.571;-0.39;0.33;0.75;-6.12;7.10;21.36;-16.86;-200.64;-389.00;0.91;169.83;-28.73;15.61 
0.601;-0.41;0.31;0.78;-7.17;9.04;25.67;-13.89;-196.86;-389.00;0.93;169.00;-28.71;15.82 
0.632;-0.44;0.34;0.82;-8.49;5.63;30.82;-15.87;-194.02;-387.00;0.99;167.96;-28.65;16.08 
0.661;-0.42;0.35;0.75;-10.64;1.88;37.63;-10.91;-192.13;-389.00;0.93;166.71;-28.39;16.43 
0.691;-0.36;0.29;0.75;-12.52;3.62;40.90;-9.92;-187.39;-386.00;0.88;165.38;-28.03;16.75 
0.721;-0.40;0.30;0.73;-13.36;8.21;42.92;-8.93;-186.45;-385.00;0.88;163.90;-27.73;17.07 
0.751;-0.40;0.32;0.74;-13.77;10.30;46.40;-8.93;-180.77;-382.00;0.90;162.27;-27.52;17.41 
0.781;-0.42;0.28;0.74;-14.33;12.38;47.93;-8.93;-176.98;-383.00;0.90;160.59;-27.34;17.77 
0.811;-0.40;0.26;0.74;-14.12;14.12;45.84;-4.96;-173.20;-381.00;0.88;158.90;-27.19;18.10 
0.842;-0.42;0.24;0.77;-13.01;13.43;41.11;-1.98;-169.41;-377.00;0.91;157.28;-27.11;18.36 
0.872;-0.42;0.23;0.79;-11.55;10.78;35.20;-1.98;-159.95;-377.00;0.92;155.85;-27.00;18.58 
0.902;-0.41;0.23;0.78;-9.81;7.51;26.99;0.99;-157.11;-375.00;0.91;154.67;-26.93;18.66 
0.932;-0.42;0.22;0.81;-7.23;5.08;18.92;0.99;-154.27;-376.00;0.94;153.85;-26.82;18.74 
0.961;-0.41;0.23;0.77;-4.66;2.16;12.24;0.99;-155.21;-375.00;0.90;153.34;-26.74;18.78 
0.991;-0.41;0.22;0.77;-2.50;-0.35;6.40;0.99;-153.32;-372.00;0.90;153.09;-26.61;18.81 
1.021;-0.42;0.25;0.78;-0.07;0.77;-0.56;-2.98;-153.32;-374.00;0.92;153.08;-26.53;18.81 
1.051;-0.42;0.24;0.78;1.74;-3.13;-8.42;1.98;-153.32;-377.00;0.92;153.34;-26.53;18.77 
1.081;-0.41;0.24;0.78;3.83;-5.22;-13.98;0.99;-151.43;-374.00;0.91;153.85;-26.51;18.68 
1.111;-0.42;0.26;0.77;4.73;-5.43;-17.88;-1.98;-155.21;-376.00;0.91;154.54;-26.52;18.57 
1.142;-0.40;0.29;0.77;5.70;-6.54;-19.27;-1.98;-159.95;-375.00;0.91;155.37;-26.52;18.47 
1.172;-0.39;0.30;0.74;5.29;-6.47;-18.99;-5.95;-161.84;-374.00;0.89;156.21;-26.52;18.41 
1.202;-0.40;0.34;0.73;4.45;-5.84;-16.56;-0.99;-163.73;-381.00;0.90;156.98;-26.49;18.36 
1.232;-0.43;0.35;0.74;3.48;-3.76;-12.94;-3.97;-164.68;-381.00;0.92;157.62;-26.47;18.35 
1.262;-0.39;0.35;0.77;1.67;-3.69;-8.14;-2.98;-167.52;-377.00;0.93;158.12;-26.46;18.35 
1.291;-0.41;0.33;0.77;0.21;-2.50;-4.17;-7.94;-171.30;-378.00;0.93;158.43;-26.42;18.36 
1.320;-0.42;0.34;0.77;-1.04;-0.21;-1.25;-4.96;-169.41;-380.00;0.94;158.59;-26.40;18.39 
1.351;-0.44;0.33;0.77;-2.09;-0.63;2.23;-3.97;-172.25;-377.00;0.95;158.63;-26.37;18.41 
1.381;-0.44;0.32;0.78;-2.99;-1.25;3.97;-7.94;-168.46;-378.00;0.95;158.58;-26.34;18.44 
1.411;-0.46;0.30;0.77;-3.62;-1.53;4.38;-7.94;-170.36;-379.00;0.95;158.49;-26.29;18.44 
1.442;-0.50;0.27;0.78;-3.97;-4.73;3.90;-8.93;-168.46;-380.00;0.97;158.39;-26.17;18.41 
1.472;-0.50;0.26;0.78;-3.13;-8.77;2.43;-4.96;-171.30;-379.00;0.96;158.35;-25.99;18.36 
1.502;-0.51;0.26;0.79;-2.99;-15.72;-0.21;-8.93;-174.14;-382.00;0.98;158.41;-25.69;18.28 
1.531;-0.49;0.23;0.74;-2.30;-17.74;-3.69;-8.93;-177.93;-381.00;0.92;158.61;-25.30;18.16 
1.560;-0.49;0.24;0.73;-1.60;-16.07;-7.86;-10.91;-180.77;-385.00;0.91;158.93;-24.94;18.03 
1.589;-0.51;0.26;0.75;-1.18;-16.28;-11.20;-10.91;-183.61;-385.00;0.94;159.33;-24.71;17.87 
1.619;-0.52;0.26;0.76;-2.57;-20.52;-12.87;-11.90;-189.29;-383.00;0.96;159.83;-24.44;17.67 
1.650;-0.53;0.26;0.76;-3.20;-26.71;-14.82;-16.86;-195.91;-385.00;0.96;160.43;-24.07;17.41 
1.680;-0.46;0.26;0.69;-5.77;-34.85;-16.35;-16.86;-202.54;-388.00;0.87;161.08;-23.48;17.10 
1.710;-0.41;0.19;0.54;-8.28;-34.64;-19.27;-22.81;-212.00;-389.00;0.70;161.75;-22.79;16.72 
1.741;-0.41;0.14;0.40;-7.79;-14.68;-30.47;-24.80;-218.63;-387.00;0.59;162.55;-22.44;16.16 
1.771;-0.33;0.15;0.29;2.37;7.93;-40.49;-31.74;-222.41;-388.00;0.46;163.71;-22.99;15.67 
1.801;-0.12;0.18;0.23;10.85;29.43;-41.25;-32.73;-225.25;-390.00;0.32;165.00;-23.96;15.42 
1.831;-0.20;0.27;0.32;10.85;53.43;-33.32;-33.72;-216.73;-386.00;0.46;166.18;-25.44;15.50 
1.861;-0.32;0.39;0.47;7.93;60.10;-18.99;-35.71;-211.05;-381.00;0.69;166.98;-27.47;15.63 
1.891;-0.30;0.21;0.77;8.90;31.51;1.39;-30.75;-196.86;-377.00;0.85;167.19;-28.95;15.87 
1.921;-0.38;0.14;0.75;6.61;-18.64;0.90;-30.75;-194.96;-377.00;0.85;167.25;-29.13;16.08 
1.952;-0.17;0.22;0.62;-3.62;-50.57;-2.71;-29.76;-201.59;-377.00;0.68;167.46;-27.96;16.01 
1.982;-0.11;0.30;0.54;-4.66;-46.47;10.71;-35.71;-210.11;-380.00;0.63;167.45;-26.22;16.12 
2.012;-0.22;0.23;0.50;2.09;-39.23;29.22;-31.74;-223.36;-380.00;0.59;166.96;-24.72;16.52 
2.042;-0.16;0.03;0.44;-3.20;-5.08;15.17;-32.73;-225.25;-383.00;0.47;166.24;-23.42;16.71 
2.072;-0.30;0.11;0.89;-4.03;42.50;4.31;-31.74;-224.30;-381.00;0.95;165.72;-23.97;16.47 
2.102;-0.44;0.26;1.00;-7.44;15.65;-18.50;-35.71;-216.73;-377.00;1.12;165.73;-24.85;16.22 
2.132;-0.26;0.24;0.66;-6.75;14.26;-14.68;-40.67;-212.95;-373.00;0.75;166.05;-25.19;15.77 
2.163;-0.44;0.36;0.82;-10.16;47.44;-19.97;-41.66;-212.95;-370.00;1.00;166.35;-26.39;15.16 
2.192;-0.86;0.35;1.05;-5.84;13.57;7.30;-48.60;-204.43;-367.00;1.40;166.22;-27.62;14.78 
2.221;-0.72;0.19;0.96;-24.14;-62.68;-14.54;-48.60;-203.48;-367.00;1.21;166.14;-27.44;14.47 
2.252;-0.46;0.19;0.52;-45.98;-27.48;7.93;-58.52;-216.73;-370.00;0.72;165.92;-25.94;13.59 
2.282;-0.70;0.13;0.85;-87.10;-76.80;-40.07;-79.35;-224.30;-364.00;1.11;165.26;-25.01;11.52 
2.312;-0.26;0.02;0.66;-56.56;-69.84;-7.58;-96.21;-246.07;-360.00;0.71;165.45;-22.76;8.93 
2.342;-0.22;0.14;0.65;7.65;-82.57;18.64;-104.15;-255.54;-358.00;0.70;165.24;-20.63;8.51 
2.372;-0.13;0.15;0.50;18.02;-93.29;28.52;-102.16;-265.95;-364.00;0.54;164.84;-18.06;9.05 
2.402;0.13;0.22;0.32;18.85;-79.72;24.77;-95.22;-284.88;-372.00;0.41;164.52;-14.84;9.86 
2.432;-0.58;0.24;0.69;42.50;-96.83;64.77;-93.24;-289.61;-371.00;0.93;163.52;-12.30;10.97 
2.463;0.02;0.53;2.60;136.14;-92.73;31.93;-78.36;-306.64;-382.00;2.65;162.65;-9.41;13.59 
2.492;1.45;1.62;3.78;177.25;-838.40;143.37;-47.61;-344.50;-397.00;4.36;160.45;4.48;18.62 
2.522;1.59;0.72;1.40;-28.94;-442.71;104.83;-17.85;-459.96;-396.00;2.24;157.47;9.25;22.77 
2.553;0.00;0.00;-0.05;-96.28;-674.50;161.53;-31.74;-499.71;-370.00;0.05;152.57;26.66;18.85 
2.583;-0.22;-0.05;-0.18;53.08;-349.08;104.35;-80.34;-622.75;-254.00;0.29;145.14;43.22;16.13 
2.613;-0.42;-0.16;-0.82;-15.30;-81.88;79.72;-87.29;-647.36;-211.00;0.94;139.09;50.31;14.74 
2.643;0.56;-0.38;-0.67;30.05;13.22;-6.33;-103.16;-648.30;-195.00;0.95;136.90;52.68;13.50 
2.674;2.02;0.11;0.09;14.05;205.57;-0.07;-98.20;-636.00;-214.00;2.02;137.67;50.32;13.90 
2.704;1.66;0.39;1.02;53.57;178.16;29.70;-98.20;-609.50;-252.00;1.99;139.75;43.92;14.07 
2.734;1.18;0.07;1.18;50.78;-155.76;81.81;-89.27;-595.30;-271.00;1.67;137.13;44.28;14.48 
2.765;0.70;-0.16;0.46;-21.36;-289.11;62.96;-105.14;-622.75;-233.00;0.85;131.33;51.86;12.20 
2.795;0.74;0.00;-0.30;-35.27;-213.57;15.37;-117.04;-647.36;-187.00;0.80;125.36;60.67;10.39 
2.824;1.01;-0.14;-0.65;-4.38;-49.53;0.07;-121.01;-659.66;-161.00;1.21;122.08;65.14;9.86 
2.854;1.13;-0.07;-0.26;16.56;48.49;15.10;-122.00;-659.66;-154.00;1.16;121.27;65.66;9.56 
2.884;1.14;-0.02;0.11;2.23;25.46;-0.70;-122.00;-653.04;-166.00;1.15;121.14;65.09;9.18 
2.914;1.07;0.14;0.10;-6.68;-1.81;0.63;-121.01;-653.98;-169.00;1.08;121.18;65.04;9.08 
2.943;1.02;0.02;0.02;-2.02;14.68;7.44;-121.01;-653.98;-168.00;1.02;121.07;64.99;8.79 
2.974;0.90;0.01;0.11;-5.08;30.12;-1.32;-124.98;-653.04;-170.00;0.91;121.40;64.43;8.57 
3.004;0.98;0.02;0.17;-6.26;27.69;-8.90;-122.00;-648.30;-180.00;0.99;122.24;63.47;8.57 
3.033;1.06;0.08;0.11;-8.00;24.42;-12.38;-118.03;-649.25;-180.00;1.07;122.85;62.89;8.61 
3.063;0.98;0.12;0.21;-5.84;32.90;-9.04;-122.00;-646.41;-185.00;1.01;123.62;62.16;8.71 
3.092;0.98;0.07;0.19;-7.79;28.52;-10.85;-118.03;-643.57;-191.00;1.00;124.37;61.38;8.75 
3.122;1.00;0.06;0.17;-7.23;32.21;-13.43;-117.04;-641.68;-190.00;1.02;125.10;60.69;8.82 
3.152;0.98;0.17;0.27;-7.79;43.83;-12.45;-114.07;-637.89;-200.00;1.03;126.03;59.76;8.95 
3.182;0.94;0.13;0.37;-4.52;53.70;-8.97;-112.08;-635.05;-209.00;1.02;127.20;58.36;9.06 
3.212;0.97;0.08;0.37;-6.47;35.13;-12.24;-111.09;-631.27;-213.00;1.04;128.23;57.10;9.15 
3.242;0.95;0.10;0.28;-5.36;28.38;-10.71;-112.08;-629.38;-217.00;1.00;128.92;56.35;9.22 
3.273;0.93;0.06;0.31;-2.16;40.00;-11.83;-111.09;-625.59;-226.00;0.98;129.65;55.51;9.35 
3.303;0.92;0.11;0.40;-0.70;40.90;-10.85;-105.14;-620.86;-229.00;1.01;130.51;54.37;9.51 
3.333;0.92;0.06;0.39;-2.64;28.45;-13.63;-103.16;-618.96;-239.00;1.00;131.22;53.45;9.65 
3.364;0.89;0.12;0.37;-2.50;26.16;-15.10;-106.13;-615.18;-238.00;0.97;131.93;52.73;9.87 
3.394;0.87;0.14;0.40;-3.27;25.11;-13.29;-99.19;-612.34;-243.00;0.97;132.60;52.01;10.08 
3.424;0.86;0.19;0.42;-3.83;19.97;-12.80;-97.20;-614.23;-249.00;0.98;133.23;51.41;10.29 
3.454;0.87;0.18;0.41;-2.09;20.73;-9.67;-99.19;-613.29;-248.00;0.98;133.74;50.88;10.44 
3.485;0.87;0.14;0.44;-1.88;18.92;-11.13;-95.22;-612.34;-250.00;0.98;134.22;50.36;10.61 
3.515;0.85;0.13;0.49;-2.92;17.25;-9.88;-95.22;-606.66;-258.00;0.99;134.70;49.88;10.78 
3.545;0.85;0.16;0.43;-1.60;18.43;-7.93;-95.22;-607.61;-259.00;0.97;135.08;49.47;10.88 
3.576;0.82;0.18;0.49;-2.23;12.52;-8.14;-90.26;-606.66;-258.00;0.97;135.41;49.07;10.95 
3.606;0.87;0.15;0.45;-2.50;9.95;-8.28;-92.25;-601.93;-260.00;0.99;135.66;48.85;11.01 
3.636;0.85;0.17;0.46;-2.02;12.73;-6.54;-93.24;-603.82;-262.00;0.98;135.91;48.62;11.09 
3.666;0.85;0.17;0.46;-2.02;11.76;-5.98;-93.24;-602.88;-263.00;0.98;136.11;48.38;11.12 
3.696;0.85;0.17;0.47;-0.97;9.18;-4.31;-89.27;-601.93;-267.00;0.99;136.28;48.17;11.15 
3.725;0.82;0.17;0.46;-1.67;10.78;-4.10;-86.29;-600.04;-262.00;0.96;136.39;48.04;11.16 
3.754;0.81;0.18;0.48;-1.25;9.81;-3.48;-89.27;-599.09;-269.00;0.96;136.50;47.88;11.17 
3.784;0.78;0.18;0.49;-0.70;6.82;-3.55;-87.29;-600.04;-271.00;0.94;136.59;47.74;11.18 
3.814;0.84;0.18;0.48;-1.74;4.94;-3.06;-89.27;-600.98;-270.00;0.98;136.63;47.69;11.20 
3.844;0.82;0.22;0.49;-0.77;6.96;-1.39;-90.26;-598.14;-272.00;0.98;136.62;47.70;11.19 
3.875;0.82;0.17;0.50;-0.14;3.62;0.00;-86.29;-598.14;-269.00;0.98;136.56;47.67;11.12 
3.905;0.78;0.20;0.47;-1.46;1.67;-0.28;-89.27;-600.04;-271.00;0.93;136.43;47.79;11.07 
3.935;0.82;0.17;0.50;-0.70;4.80;0.49;-85.30;-595.30;-268.00;0.98;136.34;47.84;11.02 
3.965;0.82;0.17;0.54;-0.49;1.39;1.18;-87.29;-597.20;-272.00;1.00;136.23;47.89;10.95 
3.995;0.81;0.18;0.50;-0.83;0.00;1.04;-88.28;-595.30;-273.00;0.97;136.06;48.04;10.85 
4.025;0.83;0.18;0.46;-1.11;1.11;1.60;-86.29;-598.14;-271.00;0.97;135.88;48.21;10.72 
4.054;0.81;0.18;0.49;-0.90;0.35;1.74;-88.28;-596.25;-274.00;0.96;135.68;48.36;10.59 
4.084;0.84;0.16;0.47;-0.90;-0.35;2.37;-86.29;-595.30;-270.00;0.98;135.47;48.54;10.49 
4.114;0.82;0.16;0.49;-0.97;0.56;0.63;-89.27;-596.25;-275.00;0.97;135.27;48.73;10.37 
4.144;0.83;0.15;0.51;-1.25;0.90;0.83;-91.25;-597.20;-273.00;0.99;135.11;48.86;10.27 
4.174;0.83;0.18;0.45;-1.32;0.63;0.77;-89.27;-595.30;-270.00;0.96;134.93;49.03;10.16 
4.204;0.79;0.17;0.47;-0.70;2.71;0.63;-89.27;-596.25;-274.00;0.93;134.79;49.15;10.08 
4.234;0.81;0.17;0.49;-0.70;0.00;0.70;-89.27;-595.30;-271.00;0.96;134.66;49.24;9.99 
4.264;0.79;0.15;0.48;-0.49;-1.74;0.83;-88.28;-594.36;-268.00;0.94;134.49;49.42;9.92 
4.295;0.82;0.17;0.50;-0.21;3.34;-0.07;-90.26;-596.25;-273.00;0.98;134.33;49.57;9.83 
4.325;0.82;0.19;0.48;-0.70;-1.32;0.70;-92.25;-594.36;-271.00;0.97;134.20;49.68;9.76 
4.354;0.82;0.14;0.47;-0.56;-1.81;0.70;-89.27;-594.36;-272.00;0.96;134.02;49.89;9.68 
4.385;0.85;0.18;0.45;-0.56;0.49;0.70;-93.24;-595.30;-272.00;0.98;133.84;50.04;9.60 
4.415;0.82;0.15;0.50;-0.07;0.28;0.28;-91.25;-595.30;-272.00;0.97;133.69;50.18;9.53 
4.445;0.83;0.16;0.50;-0.97;-0.63;-0.28;-90.26;-595.30;-269.00;0.98;133.54;50.33;9.46 
4.475;0.85;0.14;0.49;-0.07;-0.63;0.21;-95.22;-595.30;-270.00;0.99;133.40;50.49;9.39 
4.505;0.82;0.14;0.46;-0.42;-0.28;0.70;-91.25;-598.14;-270.00;0.95;133.23;50.66;9.32 
4.535;0.82;0.14;0.50;-0.56;-0.97;0.56;-92.25;-596.25;-269.00;0.97;133.07;50.80;9.26 
4.565;0.85;0.14;0.49;-0.35;-0.70;0.07;-93.24;-596.25;-269.00;0.99;132.88;50.99;9.18 
4.595;0.82;0.18;0.48;-0.63;-1.04;0.28;-90.26;-598.14;-269.00;0.97;132.69;51.18;9.09 
4.625;0.80;0.16;0.49;-0.21;-0.14;0.35;-93.24;-598.14;-269.00;0.95;132.53;51.35;9.05 
4.655;0.79;0.14;0.44;-0.07;-0.28;0.63;-94.23;-598.14;-269.00;0.92;132.38;51.47;9.00 
4.686;0.83;0.16;0.49;-0.35;-1.74;0.42;-90.26;-594.36;-267.00;0.98;132.21;51.64;8.93 
4.716;0.83;0.17;0.45;-0.14;-0.28;0.70;-93.24;-598.14;-267.00;0.96;132.01;51.83;8.86 
4.746;0.83;0.17;0.47;0.00;-0.14;1.04;-90.26;-596.25;-270.00;0.97;131.84;51.99;8.81 
4.775;0.84;0.21;0.50;-0.49;-0.63;0.49;-93.24;-597.20;-266.00;1.00;131.67;52.14;8.73 
4.804;0.83;0.16;0.46;-0.49;-0.63;0.49;-93.24;-597.20;-267.00;0.96;131.50;52.30;8.66 
4.834;0.78;0.17;0.46;0.14;0.83;0.00;-90.26;-597.20;-268.00;0.92;131.35;52.41;8.59 
4.864;0.82;0.14;0.50;-0.07;-0.63;-0.07;-90.26;-600.98;-267.00;0.97;131.21;52.54;8.54 
4.895;0.82;0.16;0.46;-0.14;0.00;0.14;-93.24;-598.14;-270.00;0.95;131.03;52.72;8.47 
4.925;0.81;0.18;0.48;0.07;0.35;0.00;-92.25;-598.14;-267.00;0.96;130.90;52.83;8.43 
4.955;0.84;0.14;0.51;0.07;0.07;0.21;-91.25;-595.30;-270.00;0.99;130.75;52.95;8.37 
4.986;0.83;0.18;0.44;0.21;-0.83;0.07;-94.23;-600.04;-267.00;0.96;130.61;53.07;8.34 
5.016;0.80;0.14;0.47;0.00;-0.42;0.35;-96.21;-598.14;-266.00;0.94;130.46;53.21;8.29 
5.046;0.82;0.17;0.46;0.49;-0.14;0.56;-94.23;-598.14;-267.00;0.96;130.34;53.29;8.24 
5.076;0.82;0.18;0.46;-0.14;-1.25;0.00;-90.26;-596.25;-266.00;0.96;130.17;53.44;8.17 
5.107;0.83;0.17;0.44;0.00;-0.42;0.35;-91.25;-599.09;-265.00;0.95;130.04;53.54;8.13 
5.136;0.84;0.14;0.46;0.49;-0.42;0.00;-93.24;-599.09;-265.00;0.97;129.89;53.66;8.09 
5.166;0.84;0.15;0.47;0.21;0.07;-0.14;-89.27;-598.14;-266.00;0.97;129.75;53.77;8.04 
5.197;0.85;0.15;0.47;0.07;-0.83;-0.14;-91.25;-597.20;-264.00;0.98;129.61;53.90;8.00 
5.227;0.85;0.17;0.46;-0.28;0.35;-0.07;-93.24;-600.98;-267.00;0.98;129.49;53.99;7.96 
5.257;0.84;0.14;0.53;-0.07;-0.97;0.07;-93.24;-598.14;-268.00;1.00;129.37;54.10;7.95 
5.287;0.85;0.17;0.46;-0.21;0.21;0.14;-91.25;-600.04;-269.00;0.98;129.25;54.20;7.90 
5.316;0.82;0.16;0.46;0.00;-0.21;0.21;-93.24;-597.20;-266.00;0.95;129.10;54.31;7.83 
5.346;0.86;0.15;0.50;-0.14;0.35;-0.14;-92.25;-598.14;-267.00;1.01;128.97;54.42;7.78 
5.376;0.86;0.15;0.48;0.35;0.49;-0.21;-91.25;-596.25;-266.00;1.00;128.86;54.50;7.73 
5.407;0.82;0.17;0.49;0.28;0.49;-0.21;-91.25;-600.04;-269.00;0.97;128.76;54.57;7.71 
5.437;0.84;0.15;0.49;0.00;0.70;-0.07;-91.25;-601.93;-265.00;0.98;128.66;54.63;7.68 
5.467;0.82;0.17;0.46;-0.07;0.63;0.00;-90.26;-601.93;-268.00;0.96;128.53;54.73;7.64 
5.496;0.84;0.17;0.48;-0.35;1.11;0.00;-90.26;-599.09;-265.00;0.98;128.43;54.81;7.60 
5.526;0.82;0.18;0.46;-0.28;0.14;0.14;-91.25;-600.04;-266.00;0.96;128.32;54.89;7.57 
5.556;0.82;0.15;0.50;-0.21;0.42;0.35;-95.22;-598.14;-267.00;0.97;128.20;54.99;7.52 
5.586;0.82;0.17;0.47;-0.21;0.07;0.42;-94.23;-600.04;-268.00;0.96;128.09;55.06;7.48 
5.616;0.85;0.15;0.47;0.00;0.49;-0.21;-92.25;-596.25;-269.00;0.98;127.97;55.13;7.43 
5.646;0.88;0.17;0.51;0.00;2.92;-0.63;-90.26;-601.93;-265.00;1.03;127.86;55.21;7.40 
5.676;0.85;0.16;0.48;0.07;2.92;-1.04;-93.24;-598.14;-268.00;0.99;127.81;55.21;7.38 
5.706;0.83;0.17;0.42;0.63;2.50;-1.04;-89.27;-599.09;-269.00;0.95;127.75;55.23;7.37 
5.736;0.82;0.17;0.46;0.97;3.55;-1.18;-91.25;-600.98;-269.00;0.96;127.71;55.23;7.37 
5.766;0.81;0.16;0.45;0.49;2.43;-0.63;-89.27;-599.09;-268.00;0.94;127.65;55.23;7.36 
5.796;0.80;0.18;0.51;0.28;3.20;-0.35;-93.24;-600.04;-271.00;0.97;127.64;55.20;7.39 
5.826;0.82;0.18;0.50;0.35;0.21;0.90;-90.26;-598.14;-269.00;0.98;127.56;55.21;7.38 
5.856;0.83;0.17;0.48;0.00;-1.25;0.90;-89.27;-599.09;-269.00;0.97;127.42;55.31;7.33 
5.886;0.82;0.15;0.50;-0.77;-0.63;0.77;-93.24;-598.14;-269.00;0.97;127.29;55.40;7.28 
5.917;0.82;0.17;0.48;-0.77;-1.04;0.90;-88.28;-599.09;-266.00;0.97;127.15;55.54;7.23 
5.946;0.82;0.16;0.50;-0.56;-1.18;1.25;-91.25;-600.04;-266.00;0.97;126.99;55.65;7.17 
5.976;0.86;0.16;0.47;-0.14;-0.35;0.49;-92.25;-598.14;-269.00;0.99;126.83;55.79;7.11 
6.007;0.83;0.16;0.47;0.00;0.90;0.56;-91.25;-598.14;-268.00;0.97;126.70;55.88;7.06 
6.037;0.85;0.16;0.46;-0.28;0.07;0.07;-92.25;-599.09;-268.00;0.98;126.59;55.96;7.01 
6.067;0.85;0.15;0.46;0.21;0.70;0.56;-92.25;-600.04;-267.00;0.98;126.48;56.03;6.97 
6.097;0.85;0.14;0.46;0.07;2.30;-0.77;-91.25;-598.14;-267.00;0.98;126.39;56.08;6.95 
6.126;0.83;0.15;0.49;0.21;0.83;-0.14;-94.23;-599.09;-269.00;0.98;126.33;56.09;6.93 
6.156;0.82;0.18;0.50;0.21;1.53;-0.21;-90.26;-600.04;-269.00;0.98;126.25;56.13;6.90 
6.186;0.81;0.15;0.45;0.14;2.02;-0.56;-91.25;-597.20;-269.00;0.94;126.19;56.13;6.88 
6.217;0.82;0.17;0.47;0.21;1.25;-0.35;-92.25;-598.14;-270.00;0.96;126.13;56.15;6.87 
6.247;0.83;0.14;0.46;-0.07;1.32;-0.83;-90.26;-597.20;-272.00;0.96;126.06;56.19;6.85 
6.277;0.81;0.19;0.46;-0.28;1.95;-0.42;-89.27;-597.20;-269.00;0.95;126.01;56.20;6.83 
6.307;0.83;0.16;0.47;-0.07;0.63;-0.42;-89.27;-599.09;-269.00;0.97;125.96;56.22;6.82 
6.337;0.83;0.14;0.47;-0.14;1.67;-0.56;-90.26;-596.25;-269.00;0.96;125.88;56.27;6.81 
6.367;0.82;0.17;0.48;-0.35;-0.35;-0.28;-91.25;-597.20;-270.00;0.97;125.81;56.30;6.81 
6.397;0.83;0.16;0.45;0.07;0.28;0.14;-91.25;-599.09;-268.00;0.96;125.73;56.35;6.80 
6.427;0.86;0.16;0.47;0.00;1.88;-0.63;-88.28;-598.14;-270.00;0.99;125.63;56.41;6.76 
6.457;0.82;0.16;0.48;0.07;0.83;-0.21;-87.29;-599.09;-269.00;0.96;125.56;56.43;6.72 
6.486;0.82;0.17;0.47;-0.07;-0.07;0.35;-91.25;-598.14;-269.00;0.96;125.47;56.47;6.67 
6.517;0.83;0.16;0.45;-0.14;0.90;-0.21;-91.25;-598.14;-269.00;0.96;125.38;56.52;6.63 
6.547;0.82;0.18;0.46;0.00;0.21;0.00;-87.29;-597.20;-269.00;0.96;125.30;56.56;6.62 
6.577;0.85;0.14;0.46;0.07;0.70;-0.21;-90.26;-596.25;-267.00;0.98;125.23;56.60;6.59 
6.607;0.82;0.16;0.47;-0.14;1.11;-0.70;-87.29;-597.20;-268.00;0.96;125.15;56.65;6.57 
6.637;0.82;0.18;0.50;0.28;1.04;0.00;-88.28;-599.09;-270.00;0.98;125.10;56.69;6.60 
6.667;0.82;0.15;0.47;-0.07;0.42;-0.49;-89.27;-600.04;-271.00;0.96;125.04;56.72;6.60 
6.697;0.86;0.14;0.49;-0.49;1.53;-0.28;-90.26;-597.20;-268.00;1.00;124.95;56.77;6.57 
6.728;0.85;0.15;0.48;-0.07;0.28;-0.28;-88.28;-598.14;-270.00;0.99;124.91;56.79;6.57 
6.758;0.81;0.15;0.47;-0.14;1.11;0.21;-88.28;-593.41;-271.00;0.95;124.82;56.84;6.54 
6.788;0.83;0.16;0.47;-0.42;0.28;-0.07;-88.28;-598.14;-267.00;0.97;124.75;56.86;6.52 
6.818;0.81;0.18;0.43;-0.70;0.07;0.07;-87.29;-597.20;-268.00;0.93;124.68;56.91;6.51 
6.848;0.83;0.18;0.46;-0.42;1.04;-0.14;-91.25;-600.04;-270.00;0.97;124.61;56.93;6.48 
6.878;0.82;0.19;0.47;-0.14;0.28;0.21;-87.29;-597.20;-269.00;0.96;124.51;56.99;6.44 
6.908;0.82;0.17;0.50;0.14;0.70;0.56;-89.27;-597.20;-267.00;0.98;124.41;57.04;6.41 
6.938;0.82;0.18;0.48;-0.07;0.07;0.49;-90.26;-595.30;-268.00;0.97;124.31;57.11;6.38 
6.968;0.83;0.14;0.46;0.42;0.63;0.00;-92.25;-600.98;-268.00;0.96;124.22;57.15;6.35 
6.998;0.83;0.15;0.49;0.21;-0.97;0.14;-93.24;-600.04;-270.00;0.98;124.15;57.18;6.34 
7.029;0.85;0.15;0.46;0.07;-0.07;0.14;-88.28;-599.09;-267.00;0.98;124.05;57.25;6.31 
7.059;0.82;0.18;0.46;-0.35;1.53;-0.28;-89.27;-600.04;-271.00;0.96;123.98;57.28;6.30 
7.089;0.83;0.18;0.50;-0.63;0.21;0.28;-89.27;-596.25;-268.00;0.99;123.94;57.29;6.29 
7.118;0.82;0.16;0.48;-0.07;1.74;-0.28;-89.27;-598.14;-265.00;0.96;123.89;57.29;6.26 
7.148;0.82;0.17;0.47;-0.21;0.35;0.28;-90.26;-597.20;-268.00;0.96;123.85;57.28;6.25 
7.178;0.84;0.17;0.50;-0.70;0.35;0.14;-91.25;-597.20;-268.00;0.99;123.78;57.31;6.21 
7.208;0.82;0.18;0.45;-0.42;0.70;0.42;-90.26;-598.14;-270.00;0.95;123.70;57.36;6.18 
7.239;0.81;0.18;0.52;-0.28;0.56;0.00;-87.29;-599.09;-268.00;0.98;123.59;57.41;6.13 
7.269;0.83;0.18;0.47;-0.21;0.35;0.14;-89.27;-598.14;-270.00;0.97;123.55;57.42;6.13 
7.299;0.83;0.17;0.48;-0.14;0.35;0.21;-91.25;-597.20;-266.00;0.97;123.49;57.43;6.11 
7.330;0.82;0.18;0.47;-0.28;1.11;-0.42;-92.25;-599.09;-269.00;0.96;123.42;57.45;6.09 
7.360;0.82;0.17;0.45;-0.28;0.83;0.07;-91.25;-598.14;-268.00;0.95;123.37;57.47;6.08 
7.390;0.84;0.16;0.49;-0.28;1.11;-0.70;-90.26;-599.09;-267.00;0.99;123.33;57.48;6.08 
7.420;0.83;0.16;0.51;-0.42;0.77;-0.42;-91.25;-598.14;-269.00;0.99;123.30;57.49;6.10 
7.450;0.86;0.14;0.48;-0.14;1.32;-0.07;-92.25;-599.09;-269.00;0.99;123.25;57.52;6.09 
7.480;0.83;0.14;0.48;-0.21;0.90;-0.14;-91.25;-596.25;-270.00;0.97;123.21;57.53;6.10 
7.509;0.83;0.18;0.47;0.00;0.07;0.21;-92.25;-597.20;-268.00;0.97;123.17;57.55;6.12 
7.540;0.84;0.16;0.46;0.21;0.70;0.28;-93.24;-599.09;-269.00;0.97;123.10;57.59;6.12 
7.570;0.84;0.15;0.46;-0.14;0.42;0.42;-89.27;-596.25;-269.00;0.97;123.04;57.60;6.11 
7.600;0.83;0.18;0.46;-0.21;-0.07;0.07;-89.27;-597.20;-269.00;0.97;122.97;57.63;6.09 
7.630;0.84;0.16;0.48;-0.21;0.14;0.14;-88.28;-598.14;-270.00;0.98;122.90;57.68;6.06 
7.659;0.83;0.18;0.47;0.14;1.25;0.21;-91.25;-600.04;-268.00;0.97;122.85;57.69;6.06 
7.689;0.82;0.18;0.47;-0.49;-0.83;0.35;-91.25;-596.25;-268.00;0.96;122.76;57.74;6.04 
7.719;0.83;0.18;0.46;-0.35;-0.35;0.14;-88.28;-600.04;-268.00;0.97;122.67;57.80;6.02 
7.749;0.82;0.17;0.44;-0.35;0.42;-0.42;-92.25;-596.25;-268.00;0.95;122.61;57.83;6.01 
7.779;0.82;0.16;0.45;-0.14;0.42;0.21;-89.27;-597.20;-269.00;0.95;122.55;57.86;6.00 
7.809;0.86;0.16;0.46;-0.07;0.00;0.07;-91.25;-598.14;-269.00;0.99;122.49;57.88;5.98 
7.839;0.83;0.17;0.48;0.28;-0.35;0.49;-94.23;-599.09;-266.00;0.97;122.41;57.93;5.95 
7.869;0.85;0.15;0.48;0.00;0.35;0.28;-89.27;-600.98;-268.00;0.99;122.31;58.01;5.96 
7.899;0.84;0.18;0.48;-0.28;-0.14;0.28;-92.25;-598.14;-268.00;0.98;122.26;58.04;5.96 
7.929;0.82;0.18;0.48;-0.35;0.77;0.00;-90.26;-596.25;-265.00;0.97;122.21;58.07;5.96 
7.959;0.83;0.16;0.47;-0.14;-0.63;0.14;-90.26;-598.14;-266.00;0.97;122.15;58.10;5.95 
7.989;0.82;0.16;0.49;-0.35;0.00;0.49;-90.26;-598.14;-270.00;0.97;122.04;58.16;5.92 
8.018;0.85;0.17;0.46;-0.42;0.28;0.14;-91.25;-598.14;-268.00;0.98;121.97;58.20;5.89 
8.048;0.83;0.15;0.46;-0.28;0.97;0.21;-94.23;-600.04;-270.00;0.96;121.91;58.21;5.88 
8.078;0.82;0.15;0.48;-0.56;0.14;-0.35;-88.28;-598.14;-268.00;0.96;121.87;58.21;5.87 
8.108;0.83;0.18;0.43;-0.49;0.77;-0.21;-91.25;-597.20;-267.00;0.95;121.81;58.23;5.83 
8.139;0.82;0.16;0.46;-0.35;0.90;-0.49;-91.25;-600.98;-267.00;0.95;121.77;58.23;5.82 
8.169;0.86;0.14;0.46;0.07;-0.14;0.21;-88.28;-599.09;-266.00;0.99;121.70;58.26;5.81 
8.198;0.82;0.20;0.46;-0.35;0.07;0.00;-90.26;-600.04;-268.00;0.96;121.62;58.31;5.79 
8.228;0.84;0.17;0.46;-0.28;0.49;0.14;-92.25;-600.98;-269.00;0.97;121.58;58.32;5.78 
8.258;0.82;0.18;0.47;-0.28;-0.07;0.00;-89.27;-600.04;-266.00;0.96;121.51;58.36;5.77 
8.288;0.83;0.18;0.48;-0.49;0.07;0.21;-90.26;-600.04;-265.00;0.98;121.44;58.39;5.75 
8.318;0.82;0.16;0.48;-0.28;0.63;0.42;-89.27;-597.20;-268.00;0.96;121.38;58.41;5.74 
8.347;0.82;0.17;0.46;-0.49;0.77;-0.14;-91.25;-599.09;-268.00;0.96;121.32;58.43;5.72 
8.377;0.83;0.16;0.46;-0.35;-0.35;0.21;-89.27;-597.20;-267.00;0.96;121.27;58.45;5.71 
8.407;0.83;0.17;0.48;-0.07;0.14;0.21;-92.25;-599.09;-267.00;0.97;121.20;58.49;5.70 
8.438;0.82;0.14;0.46;-0.42;0.21;-0.07;-91.25;-597.20;-267.00;0.95;121.14;58.53;5.69 
8.468;0.84;0.17;0.47;-0.07;0.97;-0.07;-92.25;-599.09;-268.00;0.98;121.08;58.55;5.69 
8.498;0.84;0.15;0.45;0.14;1.53;-0.07;-91.25;-598.14;-266.00;0.96;121.04;58.55;5.69 
8.528;0.84;0.15;0.46;0.00;-0.21;0.07;-90.26;-597.20;-264.00;0.97;120.97;58.59;5.69 
8.558;0.84;0.17;0.49;-0.14;0.56;-0.07;-87.29;-603.82;-267.00;0.99;120.91;58.62;5.68 
8.588;0.84;0.18;0.49;-0.07;1.46;0.14;-92.25;-596.25;-268.00;0.99;120.88;58.60;5.69 
8.618;0.82;0.16;0.47;-0.07;0.14;-0.21;-89.27;-598.14;-268.00;0.96;120.86;58.58;5.69 
8.649;0.82;0.18;0.47;0.35;1.74;-0.35;-91.25;-598.14;-268.00;0.96;120.84;58.56;5.71 
8.678;0.85;0.15;0.48;-0.07;0.77;-0.42;-92.25;-600.04;-268.00;0.99;120.82;58.53;5.72 
8.707;0.82;0.15;0.47;-0.28;1.25;-0.70;-92.25;-600.04;-268.00;0.96;120.80;58.52;5.72 
8.738;0.82;0.17;0.46;-0.14;1.74;-0.07;-88.28;-601.93;-266.00;0.96;120.78;58.49;5.72 
8.768;0.82;0.17;0.49;-0.35;1.32;-0.35;-90.26;-598.14;-266.00;0.97;120.78;58.45;5.73 
8.798;0.82;0.15;0.48;-0.49;1.11;-0.07;-91.25;-600.04;-266.00;0.96;120.74;58.45;5.73 
8.828;0.84;0.14;0.50;-0.35;1.25;0.00;-90.26;-599.09;-268.00;0.99;120.72;58.44;5.74 
8.858;0.84;0.16;0.47;-0.07;1.18;-0.07;-91.25;-598.14;-269.00;0.98;120.69;58.41;5.73 
8.887;0.82;0.16;0.47;-0.28;1.04;-0.07;-91.25;-600.04;-268.00;0.96;120.65;58.41;5.73 
8.917;0.82;0.17;0.48;0.28;0.49;0.00;-88.28;-600.04;-268.00;0.97;120.61;58.43;5.74 
8.948;0.82;0.16;0.46;-0.07;1.25;-0.07;-93.24;-596.25;-266.00;0.95;120.58;58.43;5.76 
8.978;0.82;0.15;0.46;-0.49;-0.63;0.21;-90.26;-597.20;-268.00;0.95;120.53;58.45;5.75 
9.008;0.82;0.16;0.48;0.49;-0.83;1.04;-89.27;-597.20;-267.00;0.96;120.46;58.49;5.76 
9.038;0.82;0.15;0.48;-0.56;-3.20;0.83;-91.25;-599.09;-267.00;0.96;120.37;58.54;5.74 
9.067;0.87;0.14;0.44;-0.07;-3.97;0.14;-90.26;-600.04;-267.00;0.98;120.22;58.70;5.72 
9.097;0.85;0.15;0.44;0.83;-5.36;-0.42;-93.24;-599.09;-267.00;0.97;120.09;58.86;5.73 
9.127;0.86;0.12;0.44;0.97;-2.43;-1.60;-90.26;-599.09;-267.00;0.97;119.95;59.01;5.75 
9.157;0.81;0.14;0.50;-0.70;3.34;-4.03;-91.25;-600.98;-265.00;0.96;119.97;59.02;5.80 
9.187;0.82;0.17;0.46;-1.11;2.37;-4.66;-91.25;-600.04;-267.00;0.96;120.12;58.91;5.89 
9.217;0.84;0.22;0.47;0.56;4.45;-3.97;-90.26;-600.04;-269.00;0.99;120.28;58.79;6.02 
9.248;0.85;0.16;0.45;1.60;8.00;-3.62;-89.27;-600.98;-271.00;0.97;120.45;58.62;6.17 
9.277;0.80;0.17;0.48;-1.74;12.03;-6.05;-89.27;-600.04;-271.00;0.95;120.68;58.31;6.27 
9.307;0.82;0.19;0.43;-4.31;10.43;-6.96;-89.27;-598.14;-269.00;0.95;121.02;57.99;6.39 
9.337;0.82;0.24;0.47;-0.70;17.74;-4.66;-86.29;-595.30;-273.00;0.98;121.42;57.61;6.55 
9.367;0.85;0.24;0.46;-0.90;20.87;0.56;-88.28;-593.41;-272.00;1.00;121.77;57.11;6.69 
