Time(s) acc_x(g) acc_y(g) acc_z(g) gyr_x(°/s) gyr_y(°/s) gyr_z(°/s) mag_x(G) mag_y(G) mag_z(G) SVM(g) yaw(°) pitch(°) roll(°)
0.000;-0.30;0.37;0.58;28.59;126.47;-66.23;259.71;-444.84;-393.00;0.75;-156.15;-22.73;18.52 
0.030;-0.34;0.42;0.70;18.09;135.86;-75.27;269.66;-415.24;-396.00;0.88;-153.25;-27.27;18.48 
0.060;-0.62;0.40;0.79;25.11;134.19;-49.95;271.65;-385.65;-402.00;1.08;-150.24;-32.17;18.11 
0.091;-0.58;0.39;1.17;-0.14;14.47;-6.89;280.60;-366.56;-403.00;1.36;-149.12;-34.42;17.90 
0.121;-0.46;0.36;0.83;-0.21;-41.74;7.03;276.62;-368.47;-403.00;1.01;-149.34;-33.72;17.87 
0.151;-0.40;0.32;0.56;0.97;-15.79;2.92;279.61;-372.29;-406.00;0.76;-149.79;-32.67;18.02 
0.181;-0.45;0.33;0.63;2.92;14.68;-2.85;278.61;-374.20;-401.00;0.84;-149.80;-32.67;18.13 
0.211;-0.48;0.34;0.75;2.16;7.10;0.49;279.61;-368.47;-400.00;0.95;-149.71;-32.99;18.22 
0.241;-0.46;0.34;0.77;1.39;-1.81;4.03;281.60;-373.24;-402.00;0.96;-149.80;-32.97;18.31 
0.271;-0.44;0.30;0.74;1.46;5.08;2.50;283.59;-371.33;-399.00;0.91;-149.95;-32.89;18.37 
0.302;-0.49;0.34;0.73;1.11;0.70;3.41;281.60;-370.38;-403.00;0.94;-150.06;-32.87;18.46 
0.332;-0.42;0.33;0.67;-0.90;1.32;2.78;282.59;-371.33;-400.00;0.86;-150.22;-32.76;18.56 
0.362;-0.44;0.38;0.73;-1.32;3.55;3.69;283.59;-370.38;-403.00;0.93;-150.32;-32.81;18.60 
0.393;-0.50;0.34;0.71;-1.81;0.14;5.98;281.60;-370.38;-403.00;0.93;-150.53;-32.76;18.67 
0.423;-0.46;0.30;0.73;-2.16;-1.60;5.36;285.58;-369.42;-402.00;0.91;-150.76;-32.65;18.72 
0.453;-0.44;0.31;0.68;-1.18;-1.53;4.31;284.58;-371.33;-404.00;0.87;-150.97;-32.49;18.76 
0.483;-0.44;0.30;0.73;1.04;2.64;2.64;284.58;-372.29;-404.00;0.90;-151.10;-32.43;18.79 
0.513;-0.46;0.30;0.78;1.60;2.78;-0.42;280.60;-371.33;-402.00;0.95;-151.15;-32.44;18.84 
0.543;-0.47;0.33;0.78;0.21;-6.68;-1.18;280.60;-369.42;-406.00;0.97;-151.14;-32.39;18.83 
0.573;-0.45;0.32;0.68;-0.90;-9.04;-2.16;280.60;-370.38;-402.00;0.88;-151.19;-32.13;18.79 
0.603;-0.43;0.33;0.71;0.70;-3.69;-1.88;279.61;-373.24;-400.00;0.89;-151.21;-31.93;18.77 
0.632;-0.48;0.36;0.73;1.53;-2.50;-1.74;280.60;-372.29;-405.00;0.94;-151.19;-31.85;18.75 
0.661;-0.45;0.34;0.74;1.53;-4.87;-0.49;278.61;-372.29;-401.00;0.93;-151.21;-31.70;18.79 
0.690;-0.44;0.33;0.74;0.90;-5.57;-0.63;281.60;-374.20;-407.00;0.92;-151.26;-31.51;18.82 
0.719;-0.45;0.32;0.70;1.67;-3.83;-2.30;279.61;-378.01;-403.00;0.89;-151.28;-31.34;18.82 
0.748;-0.42;0.33;0.74;2.09;-2.23;-2.09;282.59;-377.06;-403.00;0.91;-151.27;-31.21;18.80 
0.777;-0.43;0.33;0.72;1.32;-1.81;-3.41;281.60;-377.06;-403.00;0.90;-151.24;-31.13;18.81 
0.806;-0.46;0.33;0.74;0.83;-0.42;-4.45;277.62;-377.06;-406.00;0.93;-151.16;-31.09;18.77 
0.836;-0.48;0.34;0.73;0.21;-1.53;-3.20;275.63;-377.06;-406.00;0.94;-151.08;-31.09;18.75 
0.866;-0.46;0.34;0.71;-0.28;0.35;-2.43;280.60;-378.01;-405.00;0.91;-151.05;-31.07;18.71 
0.896;-0.42;0.34;0.64;-0.14;1.18;-1.81;279.61;-373.24;-404.00;0.84;-151.02;-31.07;18.66 
0.926;-0.41;0.36;0.67;-0.14;6.33;-1.18;277.62;-376.11;-403.00;0.86;-151.02;-31.11;18.66 
0.956;-0.41;0.41;0.66;-2.02;11.41;0.97;275.63;-374.20;-402.00;0.88;-151.05;-31.29;18.71 
0.987;-0.41;0.40;0.66;-3.20;18.85;3.13;278.61;-371.33;-403.00;0.87;-151.12;-31.63;18.77 
1.017;-0.46;0.38;0.72;-4.31;23.10;6.75;275.63;-366.56;-402.00;0.94;-151.25;-32.12;18.83 
1.047;-0.50;0.36;0.78;-6.19;13.84;14.40;276.62;-364.65;-400.00;0.99;-151.54;-32.50;18.91 
1.077;-0.48;0.32;0.77;-7.03;7.44;16.35;276.62;-362.74;-403.00;0.96;-152.06;-32.56;19.02 
1.107;-0.47;0.30;0.72;-6.54;6.33;15.17;272.64;-360.83;-402.00;0.91;-152.63;-32.49;19.13 
1.137;-0.48;0.26;0.74;-6.12;7.10;12.10;270.65;-362.74;-400.00;0.92;-153.12;-32.46;19.16 
1.167;-0.47;0.26;0.78;-4.66;3.55;9.46;270.65;-362.74;-403.00;0.95;-153.50;-32.46;19.16 
1.198;-0.47;0.27;0.73;-3.06;-0.56;5.91;268.66;-360.83;-404.00;0.91;-153.79;-32.37;19.13 
1.228;-0.46;0.32;0.74;-2.02;-1.04;2.92;268.66;-360.83;-404.00;0.93;-153.97;-32.27;19.09 
1.258;-0.46;0.32;0.70;-1.32;-2.30;1.81;266.67;-360.83;-406.00;0.90;-154.10;-32.15;19.08 
1.289;-0.46;0.31;0.70;-0.70;-3.41;1.39;266.67;-363.70;-406.00;0.89;-154.21;-32.00;19.09 
1.319;-0.46;0.31;0.71;0.14;-2.30;-0.77;266.67;-365.61;-404.00;0.90;-154.26;-31.87;19.07 
1.349;-0.48;0.34;0.70;-0.63;-1.88;-0.97;270.65;-364.65;-406.00;0.91;-154.27;-31.80;19.06 
1.379;-0.49;0.34;0.73;0.28;-3.62;1.53;269.66;-365.61;-404.00;0.94;-154.32;-31.68;19.09 
1.409;-0.49;0.30;0.69;0.70;-2.85;2.37;263.69;-366.56;-407.00;0.90;-154.43;-31.52;19.14 
1.439;-0.47;0.33;0.70;0.70;-0.21;2.02;268.66;-367.51;-406.00;0.91;-154.51;-31.43;19.19 
1.469;-0.46;0.30;0.70;-0.07;-0.49;4.03;268.66;-368.47;-403.00;0.89;-154.61;-31.36;19.26 
1.500;-0.46;0.32;0.72;-1.32;2.85;2.50;268.66;-367.51;-408.00;0.91;-154.75;-31.33;19.30 
1.530;-0.50;0.34;0.75;-1.04;2.02;2.16;268.66;-366.56;-408.00;0.96;-154.81;-31.39;19.29 
1.560;-0.45;0.30;0.72;-1.53;1.53;1.95;269.66;-367.51;-408.00;0.90;-154.90;-31.37;19.27 
1.590;-0.48;0.29;0.74;-0.97;0.35;0.63;270.65;-368.47;-405.00;0.93;-154.96;-31.35;19.25 
1.620;-0.50;0.30;0.70;0.14;0.56;-0.42;270.65;-370.38;-405.00;0.91;-154.96;-31.37;19.20 
1.650;-0.47;0.32;0.73;0.70;1.88;-2.43;269.66;-367.51;-404.00;0.93;-154.94;-31.35;19.19 
1.680;-0.49;0.33;0.71;1.46;2.02;-3.13;266.67;-366.56;-402.00;0.92;-154.85;-31.40;19.18 
1.711;-0.48;0.33;0.74;1.32;-2.16;-3.97;267.67;-365.61;-407.00;0.94;-154.75;-31.39;19.17 
1.741;-0.48;0.30;0.73;2.02;-1.46;-5.08;268.66;-368.47;-403.00;0.92;-154.63;-31.35;19.13 
1.771;-0.46;0.31;0.75;3.13;0.28;-7.37;268.66;-363.70;-404.00;0.93;-154.43;-31.37;19.09 
1.802;-0.48;0.34;0.71;2.92;-1.67;-7.10;270.65;-364.65;-403.00;0.92;-154.20;-31.40;19.03 
1.832;-0.46;0.38;0.72;2.43;-2.71;-6.26;271.65;-365.61;-406.00;0.94;-154.01;-31.37;19.01 
1.862;-0.46;0.34;0.71;2.02;-2.57;-5.43;273.64;-364.65;-405.00;0.91;-153.85;-31.32;19.01 
1.892;-0.46;0.33;0.70;3.41;4.66;-7.51;273.64;-365.61;-407.00;0.90;-153.66;-31.40;18.99 
1.923;-0.48;0.34;0.77;2.99;1.81;-7.23;275.63;-362.74;-405.00;0.97;-153.39;-31.57;18.93 
1.953;-0.49;0.31;0.71;2.99;-3.62;-5.36;274.63;-364.65;-406.00;0.92;-153.19;-31.60;18.92 
1.983;-0.50;0.30;0.67;2.99;-3.48;-7.72;278.61;-362.74;-403.00;0.89;-153.01;-31.56;18.88 
2.013;-0.46;0.31;0.66;3.06;-1.95;-8.14;278.61;-365.61;-404.00;0.86;-152.77;-31.57;18.82 
2.042;-0.49;0.34;0.69;3.13;2.09;-8.21;281.60;-363.70;-405.00;0.91;-152.52;-31.65;18.80 
2.071;-0.50;0.33;0.72;1.88;1.32;-8.14;275.63;-362.74;-403.00;0.94;-152.27;-31.78;18.76 
2.100;-0.48;0.32;0.77;2.30;-0.63;-7.37;278.61;-363.70;-407.00;0.96;-152.06;-31.85;18.68 
2.129;-0.50;0.30;0.74;1.81;-4.24;-8.28;280.60;-362.74;-405.00;0.94;-151.87;-31.83;18.60 
2.158;-0.48;0.26;0.74;2.71;-7.23;-10.92;279.61;-362.74;-404.00;0.92;-151.64;-31.76;18.46 
2.188;-0.48;0.26;0.74;5.15;-7.23;-15.37;280.60;-361.79;-404.00;0.92;-151.28;-31.72;18.29 
2.218;-0.47;0.24;0.75;6.26;-11.69;-17.74;281.60;-362.74;-403.00;0.92;-150.81;-31.61;18.09 
2.248;-0.42;0.28;0.67;3.20;-6.33;-16.63;281.60;-366.56;-403.00;0.84;-150.32;-31.37;17.92 
2.278;-0.35;0.40;0.62;4.03;1.74;-29.43;284.58;-363.70;-402.00;0.82;-149.62;-31.39;17.63 
2.309;-0.39;0.42;0.57;-2.92;39.65;-28.94;283.59;-357.97;-401.00;0.81;-148.79;-32.12;17.38 
2.339;-0.53;0.35;0.74;-5.43;55.10;-31.44;286.57;-349.38;-406.00;0.98;-147.68;-33.81;16.86 
2.369;-0.64;0.34;0.82;-3.13;22.75;-35.83;285.58;-338.88;-401.00;1.09;-146.56;-35.26;16.22 
2.399;-0.60;0.46;0.70;7.86;-9.81;-7.37;284.58;-332.19;-404.00;1.03;-145.73;-35.69;15.77 
2.429;-0.50;0.41;0.59;9.46;-2.64;24.35;288.56;-334.10;-402.00;0.88;-146.07;-35.32;16.34 
2.459;-0.48;0.37;0.63;9.74;15.79;18.85;292.54;-337.92;-403.00;0.87;-146.68;-35.25;17.10 
2.489;-0.50;0.37;0.75;0.90;16.63;20.73;292.54;-332.19;-401.00;0.97;-147.16;-35.48;17.69 
2.520;-0.56;0.21;0.67;-7.93;8.07;21.50;290.55;-333.15;-403.00;0.90;-147.86;-35.52;17.99 
2.550;-0.52;0.14;0.62;-6.12;12.45;7.58;289.56;-330.29;-403.00;0.82;-148.38;-35.60;17.98 
2.580;-0.53;0.23;0.67;-3.13;21.77;0.63;286.57;-328.38;-405.00;0.88;-148.42;-36.03;17.82 
2.611;-0.61;0.26;0.78;-0.70;20.59;-1.60;287.57;-325.51;-406.00;1.02;-148.31;-36.65;17.71 
2.641;-0.62;0.26;0.78;0.49;2.78;-5.08;283.59;-323.60;-402.00;1.03;-148.16;-37.03;17.56 
2.671;-0.57;0.25;0.66;2.37;-5.63;-5.84;289.56;-320.74;-404.00;0.91;-148.05;-37.00;17.45 
2.701;-0.54;0.21;0.63;8.07;1.46;-10.50;287.57;-323.60;-402.00;0.86;-147.81;-37.02;17.38 
2.731;-0.56;0.27;0.65;12.59;5.91;-14.47;290.55;-321.69;-399.00;0.90;-147.24;-37.32;17.27 
2.761;-0.53;0.30;0.64;14.12;6.05;-7.58;293.54;-317.88;-399.00;0.88;-146.75;-37.58;17.38 
2.791;-0.53;0.40;0.71;11.34;9.32;-5.91;301.50;-315.97;-398.00;0.97;-146.41;-37.79;17.62 
2.822;-0.54;0.42;0.74;5.77;6.12;-1.88;299.51;-316.92;-398.00;1.01;-146.23;-38.00;17.82 
2.852;-0.51;0.34;0.70;0.97;-4.80;3.97;303.49;-316.92;-399.00;0.93;-146.33;-37.89;18.03 
2.882;-0.56;0.37;0.60;-2.64;-4.73;4.59;300.50;-316.92;-398.00;0.90;-146.60;-37.58;18.07 
2.912;-0.56;0.44;0.67;-4.38;1.39;4.24;296.52;-318.83;-401.00;0.98;-146.84;-37.46;18.04 
2.942;-0.57;0.35;0.70;-4.73;-3.34;5.63;300.50;-316.92;-399.00;0.97;-147.11;-37.33;18.05 
2.972;-0.55;0.30;0.64;-3.62;-7.23;5.36;297.52;-319.79;-397.00;0.90;-147.44;-37.06;18.10 
3.002;-0.57;0.26;0.64;-0.21;-6.26;2.50;297.52;-323.60;-398.00;0.90;-147.66;-36.82;18.11 
3.033;-0.54;0.29;0.64;3.97;-1.53;-0.83;299.51;-321.69;-399.00;0.89;-147.73;-36.69;18.15 
3.063;-0.58;0.34;0.70;4.10;-0.90;-2.57;297.52;-326.47;-397.00;0.97;-147.66;-36.71;18.23 
3.093;-0.58;0.39;0.69;2.57;-6.82;0.14;297.52;-322.65;-398.00;0.98;-147.65;-36.61;18.33 
3.124;-0.54;0.32;0.62;0.83;-10.43;1.18;299.51;-324.56;-397.00;0.88;-147.77;-36.31;18.42 
3.154;-0.51;0.30;0.61;0.42;-2.30;-0.97;300.50;-326.47;-399.00;0.85;-147.88;-36.08;18.45 
3.184;-0.54;0.34;0.64;-0.83;5.57;-2.23;301.50;-326.47;-397.00;0.90;-147.86;-36.14;18.44 
3.214;-0.58;0.38;0.66;-2.37;6.12;1.67;301.50;-325.51;-400.00;0.96;-147.87;-36.28;18.44 
3.245;-0.60;0.30;0.67;-4.45;3.27;5.29;300.50;-320.74;-401.00;0.95;-148.04;-36.36;18.48 
3.275;-0.61;0.28;0.66;-4.03;3.62;5.84;296.52;-322.65;-399.00;0.94;-148.26;-36.38;18.48 
3.305;-0.58;0.26;0.64;-3.83;3.55;6.68;301.50;-322.65;-398.00;0.90;-148.47;-36.43;18.47 
3.336;-0.60;0.27;0.62;-2.92;2.50;8.07;297.52;-323.60;-399.00;0.90;-148.72;-36.45;18.49 
3.366;-0.63;0.22;0.61;-2.85;3.34;11.20;296.52;-325.51;-400.00;0.90;-148.99;-36.49;18.53 
3.396;-0.65;0.14;0.56;-0.97;0.97;10.78;296.52;-325.51;-396.00;0.87;-149.29;-36.51;18.61 
3.426;-0.66;0.06;0.46;6.33;13.98;9.53;296.52;-324.56;-399.00;0.81;-149.44;-36.72;18.67 
3.456;-0.54;0.09;0.38;22.05;25.67;10.23;301.50;-323.60;-400.00;0.67;-149.22;-37.39;18.96 
3.486;-0.53;0.20;0.35;29.91;45.77;17.39;308.46;-316.92;-397.00;0.67;-148.87;-38.36;19.67 
3.516;-0.64;0.42;0.50;30.68;75.97;34.02;313.44;-306.42;-394.00;0.91;-148.63;-39.76;20.88 
3.547;-0.76;0.51;0.70;11.83;75.76;48.42;318.41;-297.83;-388.00;1.15;-148.80;-41.35;22.31 
3.577;-0.70;0.38;0.71;-18.23;26.78;58.30;321.40;-291.15;-389.00;1.07;-150.04;-41.84;23.54 
3.607;-0.44;0.25;0.38;-32.21;2.37;62.12;315.43;-293.06;-390.00;0.63;-152.04;-41.21;24.24 
3.637;-0.20;-0.04;0.20;-32.49;23.10;54.12;310.45;-295.92;-388.00;0.29;-154.25;-40.48;24.82 
3.667;-0.30;-0.19;0.11;-22.12;70.68;16.00;300.50;-292.10;-386.00;0.37;-155.19;-41.36;24.40 
3.697;-0.54;-0.06;0.45;-5.15;109.29;-1.04;302.49;-279.69;-385.00;0.71;-154.44;-43.87;23.73 
3.727;-0.67;0.10;0.81;4.31;97.11;3.83;294.53;-251.06;-383.00;1.06;-153.20;-46.65;23.44 
3.758;-0.66;0.22;0.86;-13.22;26.23;9.53;296.52;-239.60;-379.00;1.11;-152.67;-48.11;23.31 
3.787;-0.50;0.09;0.54;-24.21;-25.25;14.54;293.54;-236.74;-380.00;0.74;-153.47;-47.78;23.15 
3.817;-0.25;-0.07;0.24;-24.63;-26.78;8.35;285.58;-239.60;-385.00;0.35;-154.64;-46.87;22.99 
3.847;-0.31;-0.09;0.14;-19.41;2.16;-12.24;276.62;-246.28;-384.00;0.35;-155.02;-46.74;22.02 
3.877;-0.53;0.06;0.40;-16.90;28.24;-24.07;271.65;-243.42;-385.00;0.67;-154.47;-47.59;21.10 
3.906;-0.61;0.18;0.66;-27.62;5.63;-22.05;264.68;-238.65;-384.00;0.92;-153.95;-48.46;20.01 
3.936;-0.59;0.38;0.71;-32.00;-29.63;-16.14;257.72;-238.65;-389.00;1.00;-154.14;-48.41;18.94 
3.966;-0.58;0.44;0.62;-45.01;-32.14;33.60;246.77;-237.69;-394.00;0.96;-155.70;-47.29;18.43 
3.996;-0.62;0.38;0.46;-50.85;-31.79;43.34;227.87;-246.28;-395.00;0.86;-158.49;-45.77;18.59 
4.026;-0.57;0.40;0.62;-10.02;12.52;26.71;222.89;-253.92;-396.00;0.93;-160.32;-44.99;18.60 
4.057;-0.63;0.13;0.82;3.06;-7.65;78.61;220.90;-255.83;-399.00;1.04;-162.17;-44.24;19.75 
4.087;-0.90;0.12;0.55;35.48;-34.78;83.20;225.88;-260.60;-398.00;1.06;-164.22;-42.49;21.72 
4.116;-0.66;0.26;0.35;93.57;-42.50;61.91;242.79;-277.78;-396.00;0.79;-164.91;-40.71;24.22 
4.147;-0.53;0.55;0.51;115.69;-34.50;96.00;264.68;-291.15;-395.00;0.92;-164.79;-38.57;28.07 
4.177;-0.78;0.79;0.78;126.96;-40.42;149.57;288.56;-309.28;-387.00;1.36;-165.77;-35.41;33.50 
4.207;-1.87;3.28;2.35;107.41;-208.14;328.07;299.51;-319.79;-379.00;4.45;-169.57;-30.02;39.79 
4.237;-1.98;1.29;0.79;296.83;-265.11;381.84;301.50;-421.93;-253.00;2.49;-177.26;-18.10;50.21 
4.267;-0.83;0.64;0.65;198.26;54.68;-30.75;342.30;-466.79;-222.00;1.23;-179.14;-12.89;59.84 
4.297;-0.20;0.72;0.35;161.11;-88.28;-46.47;388.07;-477.29;-209.00;0.83;-174.19;-14.60;64.66 
4.327;0.62;0.20;0.13;42.64;-101.29;37.70;418.91;-483.97;-211.00;0.66;-173.12;-13.93;66.13 
4.358;0.50;0.14;-0.25;139.48;-144.97;79.72;435.83;-516.43;-203.00;0.58;-174.82;-9.90;70.64 
4.388;0.50;0.64;-0.51;118.75;-90.71;58.43;445.78;-539.34;-177.00;0.96;-176.27;-6.36;76.03 
4.418;0.50;0.86;-0.26;101.22;-2.02;39.51;450.76;-558.43;-162.00;1.03;-177.47;-4.17;80.16 
4.448;0.50;1.15;0.06;156.80;2.43;87.93;460.71;-565.11;-143.00;1.26;-178.70;-2.23;84.50 
4.478;0.63;1.42;0.06;161.18;-40.21;130.57;456.73;-591.84;-107.00;1.55;178.39;1.62;88.37 
4.508;0.33;1.27;-0.19;166.05;-73.25;132.73;441.80;-615.71;-77.00;1.33;174.92;5.84;82.41 
4.538;0.13;1.05;-0.39;201.53;-130.43;114.30;428.86;-635.75;-36.00;1.13;172.08;9.09;76.01 
4.569;0.72;0.90;-1.18;257.53;-147.13;100.17;405.98;-653.89;16.00;1.65;169.20;11.51;67.96 
4.599;0.22;0.62;-1.87;208.97;-89.67;12.10;371.15;-659.62;101.00;1.98;167.60;11.84;59.90 
4.629;0.00;0.81;-1.94;64.56;36.24;-5.77;364.19;-657.71;121.00;2.10;167.87;11.21;55.78 
4.660;-0.05;1.12;-1.37;-34.57;142.26;23.51;363.19;-663.44;111.00;1.77;167.80;12.68;55.26 
4.690;0.16;1.09;-0.62;-16.83;154.85;7.65;361.20;-673.94;96.00;1.26;167.42;15.36;55.67 
4.720;0.26;0.81;-0.18;-36.10;112.21;31.79;362.20;-682.53;38.00;0.87;166.79;17.72;56.27 
4.750;0.54;0.63;0.12;-3.34;51.55;53.01;354.24;-692.07;25.00;0.84;164.86;20.44;56.28 
4.781;0.58;0.50;-0.19;2.09;-41.25;41.95;342.30;-696.85;16.00;0.79;163.44;21.78;55.41 
4.811;0.72;0.48;-0.58;6.61;-50.16;35.48;338.32;-701.62;29.00;1.04;162.02;22.57;54.22 
4.841;0.70;0.63;-0.86;-4.38;-29.29;4.24;332.35;-704.48;41.00;1.28;161.33;22.75;53.40 
4.872;0.63;0.70;-0.82;-20.66;9.11;-26.99;332.35;-703.53;43.00;1.25;161.49;22.45;53.63 
4.902;0.55;0.74;-0.56;-32.56;26.78;-44.52;335.33;-697.80;37.00;1.08;162.30;21.89;54.81 
4.931;0.51;0.76;-0.30;-30.33;14.12;-50.57;345.28;-692.07;31.00;0.96;163.34;21.08;56.40 
4.961;0.51;0.76;-0.10;-18.16;-7.93;-53.36;361.20;-690.16;16.00;0.92;164.49;19.98;57.99 
4.991;0.46;0.82;-0.12;1.04;-49.39;-57.32;369.16;-678.71;24.00;0.95;165.95;18.33;59.37 
5.021;0.34;0.92;-0.42;3.13;-85.08;-67.90;380.11;-674.89;31.00;1.07;167.86;15.88;60.52 
5.051;0.23;0.95;-0.67;6.47;-84.94;-70.05;388.07;-663.44;44.00;1.19;170.06;12.89;61.40 
5.082;0.08;0.97;-0.85;-5.01;-49.11;-64.49;404.98;-651.03;61.00;1.29;172.27;10.01;62.06 
5.112;0.08;1.11;-0.79;-20.24;-21.15;-66.71;418.91;-641.48;67.00;1.36;174.38;7.62;62.99 
5.142;0.05;1.09;-0.57;-21.57;-15.93;-64.83;424.88;-631.93;62.00;1.23;176.37;5.58;64.05 
5.172;0.02;1.08;-0.49;-16.00;-15.10;-56.14;435.83;-620.48;61.00;1.19;178.26;3.61;65.12 
5.201;0.03;1.05;-0.45;1.11;-21.91;-46.33;447.77;-611.89;60.00;1.14;179.86;1.96;65.56 
5.231;0.02;1.05;-0.53;4.10;-30.33;-41.11;453.74;-603.30;65.00;1.18;-178.84;0.48;65.58 
5.261;-0.07;1.06;-0.62;4.80;-22.40;-41.32;457.72;-597.57;68.00;1.23;-177.57;-0.99;65.46 
5.290;-0.11;1.07;-0.62;-3.13;-15.03;-31.72;465.68;-588.98;69.00;1.24;-176.32;-2.35;65.27 
5.320;-0.13;1.09;-0.54;-10.02;-12.87;-22.61;469.66;-583.25;73.00;1.22;-175.44;-3.32;65.33 
5.350;-0.10;1.10;-0.54;-4.87;-1.32;-5.43;471.65;-582.30;69.00;1.23;-174.88;-3.95;65.50 
5.381;-0.09;1.07;-0.50;2.23;4.17;12.94;471.65;-582.30;68.00;1.18;-174.93;-3.83;65.55 
5.411;0.01;0.96;-0.55;-1.32;-1.74;15.03;471.65;-585.16;71.00;1.11;-175.35;-3.42;65.58 
5.441;0.10;0.86;-0.52;-4.24;6.75;4.73;466.68;-586.11;66.00;1.01;-175.72;-3.03;65.64 
5.471;0.07;0.94;-0.46;-5.98;4.66;-4.24;469.66;-588.98;69.00;1.05;-175.79;-2.83;65.77 
5.501;-0.04;1.03;-0.51;-3.20;-5.98;0.00;469.66;-584.20;64.00;1.15;-175.74;-2.86;65.94 
5.530;-0.06;1.06;-0.56;1.60;-0.49;5.15;470.66;-584.20;67.00;1.20;-175.76;-2.88;65.97 
5.559;0.00;1.02;-0.57;5.84;11.69;8.63;465.68;-585.16;70.00;1.17;-175.90;-2.66;65.87 
5.588;0.06;0.97;-0.49;6.47;12.10;8.21;467.67;-589.93;71.00;1.09;-176.15;-2.24;65.68 
5.617;0.08;0.90;-0.48;7.17;6.96;5.01;463.69;-589.93;64.00;1.02;-176.37;-1.86;65.50 
5.646;0.07;0.91;-0.51;6.26;1.18;-3.13;469.66;-589.93;70.00;1.05;-176.45;-1.68;65.27 
5.675;0.02;0.98;-0.53;0.70;-3.90;-6.89;467.67;-591.84;69.00;1.11;-176.29;-1.80;65.11 
5.705;-0.03;1.03;-0.54;-3.20;-4.45;-2.85;469.66;-588.98;72.00;1.16;-176.10;-2.00;65.10 
5.735;0.00;1.05;-0.54;-4.31;-1.60;4.03;466.68;-587.07;69.00;1.18;-176.07;-2.06;65.21 
5.766;0.01;0.98;-0.55;-2.23;0.97;3.13;466.68;-588.98;69.00;1.12;-176.15;-1.97;65.33 
5.796;0.05;0.96;-0.49;-1.74;-0.77;-1.95;468.67;-588.98;70.00;1.08;-176.21;-1.87;65.37 
5.826;0.03;0.98;-0.51;-0.49;-1.60;-3.90;465.68;-587.07;69.00;1.11;-176.10;-1.95;65.38 
5.856;0.02;0.99;-0.53;1.32;1.04;-2.92;464.69;-587.07;65.00;1.12;-175.97;-2.06;65.39 
5.886;0.01;0.98;-0.52;2.64;2.92;-2.99;469.66;-588.02;69.00;1.11;-175.84;-2.12;65.33 
5.916;0.03;0.96;-0.53;3.13;3.27;-4.31;469.66;-588.98;71.00;1.10;-175.74;-2.14;65.20 
5.946;0.02;0.99;-0.53;1.46;1.11;-4.87;466.68;-586.11;67.00;1.12;-175.55;-2.25;65.12 
5.977;0.01;0.99;-0.55;-0.07;0.28;-5.84;467.67;-587.07;68.00;1.13;-175.36;-2.39;65.07 
6.007;0.00;0.97;-0.55;0.83;1.74;-2.30;470.66;-583.25;69.00;1.12;-175.22;-2.48;65.06 
6.037;0.00;0.98;-0.54;2.85;2.78;-1.81;470.66;-588.02;69.00;1.12;-175.11;-2.53;65.01 
6.067;0.03;0.96;-0.57;3.41;2.43;-3.41;469.66;-584.20;69.00;1.12;-175.03;-2.53;64.88 
6.096;0.01;0.97;-0.54;0.90;0.21;-4.38;472.65;-586.11;67.00;1.11;-174.92;-2.57;64.75 
6.126;0.00;0.98;-0.53;0.49;-0.63;-4.59;471.65;-584.20;67.00;1.11;-174.76;-2.69;64.72 
6.156;-0.02;0.98;-0.54;0.70;-0.21;-3.97;470.66;-582.30;70.00;1.12;-174.59;-2.83;64.70 
6.185;0.00;0.99;-0.56;1.04;0.00;-2.57;474.64;-582.30;73.00;1.14;-174.47;-2.90;64.65 
6.215;0.02;0.98;-0.53;0.70;0.00;-1.95;470.66;-583.25;74.00;1.11;-174.37;-2.97;64.64 
6.245;-0.02;0.97;-0.54;0.42;0.63;-2.71;472.65;-581.34;69.00;1.11;-174.28;-3.02;64.62 
6.276;0.01;0.98;-0.54;-0.56;-0.90;-4.17;471.65;-579.43;72.00;1.12;-174.15;-3.12;64.61 
6.306;0.00;0.98;-0.54;0.83;-0.83;-4.38;473.64;-582.30;74.00;1.12;-174.01;-3.23;64.57 
6.336;-0.02;1.01;-0.57;0.49;-0.77;-4.59;474.64;-582.30;74.00;1.16;-173.83;-3.39;64.54 
6.367;0.00;0.98;-0.54;0.90;0.07;-4.17;472.65;-581.34;74.00;1.12;-173.65;-3.54;64.50 
6.397;-0.06;0.99;-0.54;1.18;0.35;-2.71;478.62;-572.75;71.00;1.13;-173.53;-3.60;64.43 
6.427;-0.04;0.99;-0.54;0.97;0.28;-0.97;478.62;-580.39;75.00;1.13;-173.46;-3.63;64.35 
6.457;-0.02;0.98;-0.54;0.49;0.77;-0.07;476.63;-577.52;70.00;1.12;-173.43;-3.61;64.30 
6.486;0.00;0.97;-0.54;0.07;0.90;-0.35;476.63;-578.48;72.00;1.11;-173.42;-3.59;64.28 
6.516;-0.02;0.99;-0.55;-0.42;-0.14;-0.07;475.63;-575.61;74.00;1.13;-173.40;-3.57;64.26 
6.546;-0.02;0.98;-0.55;-0.56;0.49;0.14;475.63;-578.48;72.00;1.12;-173.41;-3.54;64.23 
6.577;0.00;0.96;-0.55;-0.70;0.56;0.42;480.61;-577.52;74.00;1.11;-173.38;-3.53;64.25 
6.607;0.00;0.98;-0.54;-0.56;0.07;-0.07;475.63;-578.48;72.00;1.12;-173.35;-3.54;64.28 
6.637;-0.04;0.98;-0.51;-0.90;0.21;0.07;476.63;-575.61;71.00;1.11;-173.31;-3.56;64.31 
6.667;-0.03;0.97;-0.52;-1.11;-0.35;1.11;476.63;-576.57;71.00;1.10;-173.31;-3.54;64.31 
6.697;-0.04;0.99;-0.55;-0.77;0.56;1.53;478.62;-576.57;70.00;1.13;-173.33;-3.49;64.30 
6.726;-0.02;0.96;-0.54;-0.90;0.70;1.11;476.63;-578.48;71.00;1.10;-173.35;-3.45;64.33 
6.756;0.01;1.02;-0.54;-0.63;1.04;1.25;475.63;-578.48;74.00;1.15;-173.37;-3.40;64.34 
6.787;-0.02;0.93;-0.53;-0.49;0.35;0.35;477.62;-577.52;73.00;1.07;-173.35;-3.39;64.36 
6.817;0.00;0.98;-0.53;-0.49;0.42;-0.28;474.64;-579.43;73.00;1.11;-173.33;-3.37;64.33 
6.847;-0.02;0.98;-0.53;-0.07;0.83;-0.83;476.63;-579.43;69.00;1.11;-173.31;-3.36;64.31 
6.878;0.00;1.01;-0.56;0.21;0.77;-0.28;476.63;-578.48;73.00;1.15;-173.26;-3.37;64.27 
6.908;-0.02;0.99;-0.54;-0.07;0.49;-0.83;477.62;-573.70;73.00;1.13;-173.21;-3.39;64.26 
6.938;0.00;0.99;-0.53;0.21;-0.28;-0.83;475.63;-576.57;71.00;1.12;-173.15;-3.43;64.27 
6.967;-0.02;0.98;-0.52;0.28;0.14;-0.56;475.63;-577.52;72.00;1.11;-173.12;-3.42;64.24 
6.997;0.00;0.98;-0.52;0.28;0.83;-0.70;476.63;-579.43;77.00;1.11;-173.09;-3.41;64.21 
7.027;0.00;0.98;-0.51;-0.21;0.77;-0.42;470.66;-577.52;75.00;1.10;-173.05;-3.41;64.15 
7.057;-0.02;0.98;-0.55;0.00;0.07;-1.25;476.63;-576.57;68.00;1.12;-173.02;-3.41;64.12 
7.088;0.00;0.98;-0.51;-0.35;0.28;-1.39;477.62;-578.48;73.00;1.10;-172.96;-3.44;64.13 
7.118;-0.02;0.99;-0.54;-0.21;-0.14;-0.83;474.64;-578.48;70.00;1.13;-172.89;-3.48;64.13 
7.147;0.00;0.95;-0.54;-0.14;0.00;-1.46;474.64;-576.57;75.00;1.09;-172.88;-3.47;64.10 
7.178;-0.02;0.99;-0.54;0.28;0.90;-2.71;477.62;-575.61;72.00;1.13;-172.78;-3.53;64.09 
7.207;0.00;0.97;-0.54;0.70;-0.42;-3.20;477.62;-577.52;72.00;1.11;-172.67;-3.61;64.05 
7.237;-0.04;0.98;-0.55;1.11;0.07;-2.02;473.64;-576.57;70.00;1.12;-172.60;-3.64;64.00 
7.267;-0.04;1.00;-0.56;1.04;0.28;-0.97;474.64;-573.70;73.00;1.15;-172.55;-3.66;63.94 
7.297;-0.03;0.98;-0.54;0.07;1.25;-0.63;479.61;-576.57;71.00;1.12;-172.52;-3.64;63.86 
7.327;0.00;0.97;-0.54;0.07;0.63;-0.49;476.63;-573.70;74.00;1.11;-172.50;-3.61;63.85 
7.357;0.00;0.97;-0.54;0.35;0.49;-1.32;477.62;-573.70;71.00;1.11;-172.44;-3.64;63.84 
7.388;-0.02;0.97;-0.57;0.49;0.49;-3.27;476.63;-574.66;76.00;1.13;-172.36;-3.68;63.79 
7.418;-0.04;0.97;-0.53;1.11;0.90;-3.97;477.62;-573.70;75.00;1.11;-172.24;-3.74;63.73 
7.448;-0.04;0.99;-0.53;1.81;0.21;-3.90;478.62;-574.66;76.00;1.12;-172.13;-3.80;63.64 
7.478;-0.01;0.97;-0.53;1.53;0.49;-3.48;476.63;-570.84;76.00;1.11;-172.00;-3.88;63.54 
7.508;-0.03;0.97;-0.55;1.11;0.21;-2.64;480.61;-573.70;75.00;1.12;-171.89;-3.93;63.43 
7.537;-0.02;0.98;-0.54;0.90;0.35;-1.53;480.61;-573.70;73.00;1.12;-171.83;-3.96;63.36 
7.566;-0.02;0.98;-0.54;0.70;0.14;-0.90;476.63;-570.84;76.00;1.12;-171.77;-3.98;63.29 
7.597;-0.05;0.99;-0.58;0.00;0.00;0.14;481.60;-571.80;74.00;1.15;-171.75;-3.96;63.24 
7.627;-0.02;0.96;-0.54;-0.14;0.90;0.77;480.61;-572.75;73.00;1.10;-171.77;-3.91;63.22 
7.657;-0.04;0.98;-0.55;-0.21;0.90;1.25;478.62;-574.66;77.00;1.12;-171.79;-3.85;63.19 
7.688;-0.02;0.98;-0.54;-0.14;0.63;1.04;479.61;-568.93;77.00;1.12;-171.82;-3.79;63.16 
7.718;-0.04;0.98;-0.52;-0.63;0.77;0.83;479.61;-572.75;74.00;1.11;-171.85;-3.72;63.13 
7.748;-0.02;0.98;-0.52;-1.25;0.00;1.11;479.61;-571.80;77.00;1.11;-171.88;-3.66;63.13 
7.778;-0.04;0.99;-0.53;-0.77;0.35;0.77;478.62;-570.84;72.00;1.12;-171.89;-3.64;63.16 
7.807;-0.03;0.96;-0.54;-0.77;-0.35;-0.14;481.60;-573.70;73.00;1.10;-171.91;-3.60;63.16 
7.837;-0.02;0.99;-0.55;-0.35;-0.56;-1.04;480.61;-571.80;77.00;1.13;-171.89;-3.59;63.14 
7.867;-0.03;0.99;-0.53;-0.21;-0.14;-1.04;475.63;-568.93;74.00;1.12;-171.86;-3.60;63.12 
7.898;-0.02;0.98;-0.54;0.07;-0.42;-0.07;479.61;-572.75;73.00;1.12;-171.83;-3.61;63.09 
7.928;-0.06;0.98;-0.53;0.63;0.49;-0.63;481.60;-571.80;77.00;1.12;-171.81;-3.60;63.03 
7.958;-0.02;0.98;-0.57;0.14;0.28;-1.11;479.61;-572.75;74.00;1.13;-171.78;-3.60;62.98 
7.988;-0.05;0.98;-0.53;0.63;-0.07;-0.63;478.62;-571.80;76.00;1.12;-171.74;-3.60;62.94 
8.018;-0.02;0.98;-0.54;0.14;-0.77;-0.14;479.61;-572.75;75.00;1.12;-171.71;-3.60;62.90 
8.048;-0.04;0.99;-0.53;-0.28;-0.35;-0.77;479.61;-575.61;76.00;1.12;-171.69;-3.60;62.86 
8.078;-0.04;0.98;-0.55;-0.35;0.00;-0.49;477.62;-571.80;75.00;1.12;-171.67;-3.59;62.83 
8.109;-0.06;0.98;-0.57;0.00;0.49;1.04;478.62;-568.93;74.00;1.14;-171.67;-3.56;62.81 
8.139;-0.03;0.98;-0.55;-0.07;0.56;0.14;479.61;-572.75;77.00;1.12;-171.66;-3.54;62.76 
8.169;-0.06;0.98;-0.54;-0.83;-0.14;-0.21;479.61;-571.80;76.00;1.12;-171.65;-3.50;62.71 
8.200;-0.04;1.00;-0.53;-0.90;-0.35;0.28;478.62;-573.70;76.00;1.13;-171.64;-3.50;62.70 
8.229;-0.02;0.96;-0.53;-0.90;0.35;0.00;480.61;-574.66;75.00;1.10;-171.63;-3.49;62.68 
8.259;-0.04;0.99;-0.53;-1.11;-0.70;0.83;482.60;-570.84;75.00;1.12;-171.63;-3.47;62.69 
8.289;-0.06;0.99;-0.55;-0.90;-0.42;0.21;478.62;-571.80;75.00;1.13;-171.64;-3.45;62.70 
8.319;-0.02;0.98;-0.54;-0.56;-0.07;0.63;480.61;-570.84;76.00;1.12;-171.63;-3.42;62.68 
8.349;-0.03;0.98;-0.55;-0.21;0.28;0.90;478.62;-571.80;74.00;1.12;-171.66;-3.38;62.68 
8.379;-0.06;1.00;-0.53;-0.35;1.11;1.18;480.61;-571.80;78.00;1.13;-171.67;-3.33;62.66 
8.410;-0.06;0.97;-0.54;-0.63;0.14;1.53;479.61;-570.84;74.00;1.11;-171.72;-3.26;62.65 
8.440;-0.03;0.98;-0.55;-0.35;0.49;0.70;480.61;-570.84;76.00;1.12;-171.74;-3.21;62.64 
8.470;-0.03;0.98;-0.54;-0.63;-0.56;0.70;477.62;-569.89;76.00;1.12;-171.74;-3.18;62.64 
8.500;-0.06;1.01;-0.58;-1.46;0.42;0.49;477.62;-572.75;75.00;1.17;-171.76;-3.14;62.64 
8.530;-0.04;0.95;-0.53;-0.49;0.35;0.83;477.62;-573.70;76.00;1.09;-171.79;-3.08;62.67 
8.560;-0.04;0.98;-0.54;-0.14;-0.14;0.07;478.62;-568.93;78.00;1.12;-171.79;-3.07;62.66 
8.590;-0.05;0.98;-0.54;-0.70;0.49;0.07;479.61;-573.70;75.00;1.12;-171.78;-3.05;62.63 
8.619;-0.02;0.98;-0.56;-0.35;0.77;0.77;480.61;-573.70;77.00;1.13;-171.78;-3.02;62.60 
8.648;-0.04;0.97;-0.55;-0.63;0.14;0.21;476.63;-572.75;75.00;1.12;-171.77;-3.00;62.61 
8.678;0.00;0.98;-0.54;-0.90;-0.49;-0.97;476.63;-571.80;75.00;1.12;-171.76;-2.99;62.60 
8.709;-0.04;0.98;-0.57;-0.42;0.21;0.28;477.62;-571.80;75.00;1.13;-171.73;-2.99;62.58 
8.739;-0.05;0.98;-0.53;-0.42;1.04;0.90;477.62;-569.89;75.00;1.12;-171.73;-2.97;62.56 
8.769;-0.03;0.98;-0.51;-0.63;0.14;0.90;478.62;-569.89;75.00;1.11;-171.75;-2.91;62.56 
8.799;-0.02;0.96;-0.54;-0.49;0.14;-0.14;482.60;-572.75;75.00;1.10;-171.74;-2.91;62.57 
8.829;-0.02;0.96;-0.53;-0.56;0.21;0.07;477.62;-572.75;75.00;1.10;-171.72;-2.88;62.55 
8.859;-0.03;0.96;-0.52;-0.70;0.49;0.07;477.62;-573.70;78.00;1.09;-171.72;-2.86;62.53 
8.889;-0.02;0.98;-0.54;-0.49;0.63;-0.42;476.63;-571.80;78.00;1.12;-171.70;-2.85;62.50 
8.920;-0.02;0.98;-0.57;-0.21;-0.42;-0.14;480.61;-571.80;76.00;1.13;-171.66;-2.85;62.47 
8.950;-0.05;0.99;-0.53;-0.63;0.77;-0.28;476.63;-569.89;77.00;1.12;-171.65;-2.84;62.45 
8.979;-0.04;0.96;-0.52;-0.14;0.63;0.56;478.62;-572.75;77.00;1.09;-171.67;-2.78;62.45 
9.010;-0.02;0.95;-0.54;0.49;1.04;-0.14;481.60;-576.57;75.00;1.09;-171.65;-2.77;62.43 
9.040;-0.03;0.97;-0.57;0.07;0.56;-0.21;479.61;-570.84;74.00;1.13;-171.59;-2.79;62.41 
9.069;-0.04;0.99;-0.55;-0.07;1.04;-0.21;480.61;-574.66;76.00;1.13;-171.57;-2.77;62.38 
9.098;-0.03;0.98;-0.52;-0.28;0.21;-0.63;476.63;-570.84;75.00;1.11;-171.57;-2.74;62.36 
9.127;-0.04;1.01;-0.54;-0.83;-0.14;-1.25;476.63;-569.89;75.00;1.15;-171.52;-2.76;62.36 
9.157;-0.02;1.00;-0.58;-0.49;0.42;0.28;481.60;-573.70;76.00;1.16;-171.48;-2.78;62.33 
9.187;-0.02;0.96;-0.58;-0.83;1.04;1.32;481.60;-568.93;73.00;1.12;-171.50;-2.74;62.32 
9.217;-0.04;0.97;-0.54;-1.11;0.63;0.83;477.62;-573.70;72.00;1.11;-171.53;-2.68;62.34 
9.247;-0.06;1.01;-0.51;-0.90;0.21;1.18;479.61;-570.84;77.00;1.13;-171.56;-2.63;62.36 
9.277;0.00;0.98;-0.55;-0.70;1.18;1.25;477.62;-571.80;76.00;1.12;-171.59;-2.57;62.35 
9.308;0.00;0.97;-0.53;-0.83;1.46;0.49;480.61;-569.89;74.00;1.11;-171.61;-2.50;62.33 
9.338;-0.02;0.96;-0.52;-0.21;0.56;-0.35;480.61;-571.80;79.00;1.09;-171.60;-2.48;62.32 
9.368;-0.03;0.98;-0.53;0.21;0.35;-0.77;479.61;-575.61;76.00;1.11;-171.58;-2.47;62.31 
9.398;-0.06;0.99;-0.54;-0.42;0.49;-0.70;480.61;-570.84;76.00;1.13;-171.55;-2.46;62.28 
9.428;-0.03;0.94;-0.56;0.28;1.11;-0.35;480.61;-571.80;76.00;1.09;-171.51;-2.47;62.26 
9.458;-0.02;0.96;-0.57;0.49;0.14;-2.16;480.61;-571.80;75.00;1.12;-171.45;-2.49;62.21 
9.488;-0.03;0.97;-0.54;0.14;0.14;-2.23;479.61;-572.75;73.00;1.11;-171.37;-2.52;62.15 
9.519;-0.04;0.99;-0.58;0.14;0.70;-1.53;479.61;-572.75;75.00;1.15;-171.31;-2.55;62.11 
9.549;-0.04;0.96;-0.55;-0.28;0.70;-0.90;476.63;-572.75;74.00;1.11;-171.24;-2.58;62.09 
9.579;-0.04;0.98;-0.55;-0.28;0.63;-0.90;479.61;-570.84;75.00;1.12;-171.20;-2.60;62.08 
9.609;-0.06;0.98;-0.55;-0.28;0.42;-0.56;480.61;-574.66;74.00;1.13;-171.15;-2.62;62.06 
9.638;-0.07;0.99;-0.56;-0.35;0.42;0.35;479.61;-571.80;76.00;1.14;-171.12;-2.62;62.05 
9.667;-0.05;0.98;-0.54;-0.42;0.90;0.35;482.60;-569.89;73.00;1.12;-171.12;-2.60;62.03 
9.697;-0.03;1.00;-0.53;-0.63;1.04;0.49;476.63;-570.84;77.00;1.13;-171.12;-2.56;62.03 
9.727;-0.05;0.98;-0.55;-0.35;0.70;0.00;480.61;-569.89;73.00;1.12;-171.13;-2.53;62.00 
9.757;-0.02;0.97;-0.53;-0.28;0.97;-0.28;475.63;-570.84;75.00;1.11;-171.12;-2.50;62.00 
9.787;-0.03;0.99;-0.53;0.07;0.63;-0.70;477.62;-571.80;76.00;1.12;-171.11;-2.48;61.97 
9.818;-0.03;1.00;-0.51;0.49;0.77;-1.11;478.62;-572.75;76.00;1.12;-171.06;-2.48;61.93 
9.848;-0.03;0.98;-0.54;0.49;0.14;-1.25;478.62;-570.84;75.00;1.12;-171.01;-2.49;61.87 
9.878;-0.05;0.98;-0.54;0.28;0.56;-1.95;484.59;-571.80;74.00;1.12;-170.96;-2.51;61.85 
9.908;-0.01;0.98;-0.51;0.00;0.21;-2.02;480.61;-569.89;78.00;1.10;-170.89;-2.54;61.82 
9.938;-0.03;0.96;-0.58;0.49;0.63;-1.74;479.61;-567.98;77.00;1.12;-170.80;-2.59;61.76 
9.968;-0.04;0.98;-0.55;0.42;0.56;-1.39;480.61;-570.84;75.00;1.12;-170.72;-2.63;61.70 
9.998;-0.05;0.99;-0.54;0.42;0.77;-1.04;482.60;-569.89;78.00;1.13;-170.69;-2.63;61.67 
10.027;-0.02;0.98;-0.56;-0.21;0.56;-0.70;481.60;-568.93;78.00;1.13;-170.63;-2.65;61.64 
10.056;-0.05;0.96;-0.54;-0.35;0.35;-0.42;482.60;-569.89;73.00;1.10;-170.62;-2.63;61.64 
10.085;-0.03;0.98;-0.52;-0.42;-0.14;0.07;480.61;-567.02;73.00;1.11;-170.59;-2.64;61.63 
10.116;-0.04;0.95;-0.58;-0.56;0.63;0.49;482.60;-569.89;77.00;1.11;-170.59;-2.62;61.61 
10.146;-0.03;0.98;-0.55;-0.56;0.97;0.28;479.61;-570.84;75.00;1.12;-170.60;-2.58;61.60 
10.176;-0.05;0.98;-0.55;-0.07;0.70;0.42;482.60;-568.93;76.00;1.12;-170.60;-2.55;61.59 
10.207;-0.04;0.97;-0.54;-0.28;0.77;0.21;483.59;-568.93;77.00;1.11;-170.60;-2.53;61.56 
10.237;-0.06;1.00;-0.55;-0.21;0.97;-0.07;483.59;-569.89;75.00;1.14;-170.59;-2.49;61.55 
10.267;-0.02;0.96;-0.53;-0.14;0.70;-0.14;482.60;-568.93;73.00;1.10;-170.59;-2.46;61.52 
10.297;-0.03;0.97;-0.51;-0.35;0.28;-0.63;480.61;-567.98;73.00;1.10;-170.58;-2.44;61.49 
10.328;-0.05;0.98;-0.59;0.07;0.56;-0.83;482.60;-568.93;76.00;1.14;-170.53;-2.46;61.47 
10.358;-0.05;0.98;-0.53;0.14;0.70;-0.35;481.60;-568.93;76.00;1.12;-170.51;-2.45;61.44 
10.388;-0.04;0.97;-0.54;0.14;0.63;-0.77;480.61;-567.98;76.00;1.11;-170.47;-2.46;61.41 
10.418;-0.04;0.98;-0.54;0.42;0.83;-0.83;480.61;-567.98;73.00;1.12;-170.44;-2.46;61.38 
10.447;-0.06;1.00;-0.58;0.56;1.11;-0.07;483.59;-569.89;76.00;1.16;-170.41;-2.44;61.32 
10.476;-0.05;0.98;-0.54;0.56;0.70;-0.28;481.60;-567.98;76.00;1.12;-170.39;-2.43;61.28 
10.506;-0.06;0.98;-0.51;-0.21;0.35;-0.83;481.60;-569.89;75.00;1.11;-170.36;-2.42;61.24 
10.536;-0.06;0.99;-0.54;-0.35;0.07;-0.77;481.60;-569.89;78.00;1.13;-170.32;-2.44;61.22 
10.566;-0.03;0.98;-0.55;-0.42;-0.28;-0.63;482.60;-567.02;76.00;1.12;-170.30;-2.44;61.21 
10.596;-0.05;0.97;-0.54;-0.56;-0.21;-0.42;480.61;-567.02;76.00;1.11;-170.28;-2.45;61.20 
10.627;-0.07;0.98;-0.55;-0.63;-0.49;-0.28;483.59;-567.98;75.00;1.13;-170.27;-2.45;61.19 
10.657;-0.06;0.98;-0.55;-0.35;0.35;0.49;483.59;-567.98;78.00;1.13;-170.25;-2.44;61.17 
10.687;-0.06;0.98;-0.53;0.07;0.49;0.90;482.60;-567.98;78.00;1.12;-170.26;-2.41;61.14 
10.718;-0.03;0.97;-0.55;-0.21;0.97;0.70;481.60;-567.02;76.00;1.12;-170.28;-2.37;61.12 
10.748;-0.02;0.98;-0.54;0.14;0.63;0.35;482.60;-567.02;75.00;1.12;-170.29;-2.33;61.10 
10.778;-0.05;0.98;-0.56;0.28;0.21;-0.35;484.59;-567.98;77.00;1.13;-170.29;-2.30;61.08 
10.808;-0.05;0.99;-0.54;0.07;-0.21;-0.56;481.60;-569.89;75.00;1.13;-170.25;-2.32;61.04 
10.838;-0.05;0.93;-0.52;0.42;0.42;-0.83;480.61;-568.93;75.00;1.07;-170.21;-2.33;61.01 
10.867;-0.03;1.00;-0.54;0.49;-0.63;-0.83;481.60;-570.84;74.00;1.14;-170.17;-2.35;60.97 
10.896;-0.06;1.00;-0.56;-0.83;-0.35;-0.70;480.61;-568.93;74.00;1.15;-170.16;-2.35;60.96 
10.926;-0.08;0.98;-0.55;-0.56;-0.21;0.63;483.59;-568.93;77.00;1.13;-170.16;-2.35;60.95 
10.955;-0.06;0.97;-0.55;-0.28;0.07;0.70;480.61;-567.98;81.00;1.12;-170.17;-2.34;60.99 
10.984;-0.02;1.01;-0.55;-0.35;0.07;0.90;482.60;-566.07;77.00;1.15;-170.18;-2.32;60.98 
11.015;-0.06;0.98;-0.54;-0.28;0.63;1.60;482.60;-567.98;80.00;1.12;-170.20;-2.28;60.95 
11.045;-0.02;0.98;-0.54;-0.83;0.97;1.53;479.61;-569.89;78.00;1.12;-170.24;-2.22;60.95 
11.075;-0.04;0.98;-0.54;-0.83;0.21;0.49;481.60;-567.02;76.00;1.12;-170.26;-2.18;60.94 
11.105;-0.03;0.98;-0.52;-0.97;-0.21;0.07;482.60;-569.89;75.00;1.11;-170.28;-2.16;60.94 
11.135;-0.04;0.99;-0.55;-0.70;0.28;0.49;481.60;-568.93;76.00;1.13;-170.28;-2.13;60.93 
11.165;-0.06;1.01;-0.54;-0.28;0.42;0.14;481.60;-569.89;76.00;1.15;-170.29;-2.11;60.93 
11.195;-0.05;0.96;-0.54;0.07;0.00;0.07;483.59;-567.98;77.00;1.10;-170.29;-2.09;60.92 
11.226;-0.06;0.98;-0.51;-0.07;0.14;0.28;481.60;-567.98;73.00;1.11;-170.29;-2.08;60.90 
11.256;-0.03;0.99;-0.54;-0.21;0.56;0.28;481.60;-566.07;79.00;1.13;-170.27;-2.07;60.85 
11.286;-0.05;0.98;-0.51;-0.21;0.35;0.63;482.60;-567.98;76.00;1.11;-170.27;-2.04;60.84 
11.316;-0.06;0.98;-0.54;-0.07;0.21;0.28;482.60;-567.02;75.00;1.12;-170.28;-2.01;60.83 
11.345;-0.05;0.97;-0.52;-0.14;0.49;0.70;479.61;-569.89;76.00;1.10;-170.27;-2.00;60.81 
11.374;-0.06;0.96;-0.55;0.28;0.70;0.21;482.60;-568.93;77.00;1.11;-170.28;-1.98;60.81 
11.403;-0.04;0.97;-0.55;-0.49;-0.35;0.49;482.60;-571.80;77.00;1.12;-170.28;-1.97;60.80 
11.433;-0.03;0.98;-0.55;-0.63;1.32;0.28;480.61;-571.80;77.00;1.12;-170.26;-1.97;60.80 
11.463;-0.03;0.97;-0.54;-0.28;-0.07;-0.14;480.61;-568.93;75.00;1.11;-170.28;-1.94;60.81 
11.493;-0.02;0.97;-0.56;-0.07;0.21;-0.49;482.60;-570.84;78.00;1.12;-170.26;-1.93;60.75 
11.524;-0.07;1.00;-0.56;-0.70;1.04;0.35;478.62;-567.98;77.00;1.15;-170.26;-1.91;60.74 
11.554;-0.03;1.00;-0.53;-0.35;0.90;0.83;477.62;-567.02;78.00;1.13;-170.25;-1.89;60.73 
11.584;-0.04;0.98;-0.53;-0.77;0.42;-0.56;479.61;-569.89;77.00;1.11;-170.27;-1.85;60.72 
11.615;-0.06;0.97;-0.56;-0.49;0.21;0.00;482.60;-567.02;78.00;1.12;-170.24;-1.86;60.72 
11.645;-0.05;0.98;-0.58;0.28;0.90;1.18;480.61;-567.98;76.00;1.14;-170.22;-1.86;60.69 
11.675;-0.05;0.98;-0.58;0.00;0.83;0.56;478.62;-570.84;76.00;1.14;-170.23;-1.82;60.65 
11.705;-0.02;0.98;-0.55;-0.28;0.70;0.28;482.60;-569.89;77.00;1.12;-170.22;-1.80;60.65 
11.736;-0.04;0.98;-0.57;-0.49;0.56;0.28;481.60;-571.80;78.00;1.13;-170.20;-1.80;60.64 
11.766;-0.02;0.98;-0.54;-0.49;0.63;0.42;482.60;-568.93;77.00;1.12;-170.20;-1.78;60.62 
11.796;-0.02;0.98;-0.54;-0.42;0.00;0.00;481.60;-570.84;78.00;1.12;-170.20;-1.76;60.63 
11.827;-0.05;0.98;-0.56;-0.49;0.56;0.07;478.62;-570.84;76.00;1.13;-170.18;-1.77;60.61 
11.857;-0.04;1.00;-0.52;-0.56;0.83;0.42;478.62;-570.84;78.00;1.13;-170.17;-1.76;60.59 
11.886;-0.05;0.98;-0.54;-0.42;0.35;0.14;480.61;-569.89;79.00;1.12;-170.16;-1.74;60.57 
11.915;-0.05;0.98;-0.54;-0.42;0.83;0.07;480.61;-568.93;75.00;1.12;-170.15;-1.73;60.57 
11.944;-0.02;0.96;-0.56;0.14;0.90;0.28;481.60;-568.93;76.00;1.11;-170.15;-1.71;60.56 
11.974;-0.01;0.95;-0.55;0.14;0.63;-0.90;480.61;-572.75;80.00;1.10;-170.12;-1.71;60.51 
12.004;-0.05;0.96;-0.57;-0.21;0.07;-1.18;477.62;-570.84;78.00;1.12;-170.06;-1.74;60.47 
12.035;-0.06;0.99;-0.52;0.35;0.97;0.28;480.61;-569.89;74.00;1.12;-170.05;-1.73;60.45 
12.065;-0.03;0.97;-0.54;-1.11;0.49;0.97;479.61;-567.98;75.00;1.11;-170.05;-1.70;60.45 
12.095;-0.05;0.99;-0.56;-2.16;1.39;2.78;481.60;-569.89;75.00;1.14;-170.07;-1.67;60.47 
12.126;-0.13;1.02;-0.56;-5.57;4.24;11.83;480.61;-571.80;77.00;1.17;-170.26;-1.48;60.58 
