Time(s) acc_x(g) acc_y(g) acc_z(g) gyr_x(°/s) gyr_y(°/s) gyr_z(°/s) mag_x(G) mag_y(G) mag_z(G) SVM(g) yaw(°) pitch(°) roll(°)
0.000;-0.20;0.26;0.77;10.78;21.63;14.05;284.67;-503.50;-363.00;0.84;-135.13;4.09;9.96 
0.030;-0.17;0.35;0.90;16.56;15.03;15.03;286.65;-500.66;-364.00;0.98;-135.78;3.47;10.32 
0.061;-0.15;0.38;0.91;18.71;4.94;17.74;286.65;-500.66;-362.00;1.00;-136.51;3.24;10.86 
0.091;-0.11;0.33;0.90;13.63;-1.81;7.79;290.62;-498.77;-366.00;0.96;-137.10;3.22;11.35 
0.121;-0.12;0.35;0.86;11.90;-7.03;-1.18;296.57;-502.55;-361.00;0.94;-137.35;3.36;11.69 
0.152;-0.11;0.40;0.86;12.17;-14.47;-5.43;294.59;-504.45;-361.00;0.95;-137.35;3.64;12.09 
0.182;-0.05;0.41;0.82;5.57;-27.83;-8.63;295.58;-505.39;-359.00;0.92;-137.23;4.22;12.45 
0.212;-0.04;0.33;0.75;-2.92;-32.97;-16.21;305.50;-508.23;-354.00;0.82;-136.86;5.08;12.53 
0.241;-0.04;0.35;0.68;-7.03;-25.25;-23.79;300.54;-513.91;-354.00;0.77;-136.19;5.86;12.43 
0.270;-0.05;0.41;0.72;-15.51;-14.68;-26.23;300.54;-517.70;-352.00;0.83;-135.39;6.30;12.26 
0.300;-0.06;0.48;0.83;-18.30;-15.17;-22.05;297.56;-517.70;-348.00;0.96;-134.64;6.58;11.91 
0.330;-0.10;0.58;0.93;-5.84;-9.95;-11.20;299.55;-514.86;-350.00;1.10;-134.08;6.86;11.67 
0.361;-0.13;0.54;0.84;7.03;-13.29;12.45;300.54;-519.59;-349.00;1.01;-134.15;7.16;11.87 
0.391;-0.08;0.32;0.70;2.09;-11.20;10.78;299.55;-519.59;-350.00;0.77;-134.64;7.66;12.07 
0.421;-0.05;0.30;0.78;-4.17;-4.10;-4.10;299.55;-527.16;-348.00;0.84;-134.81;7.89;11.98 
0.452;-0.06;0.43;0.86;-4.31;-4.45;-1.74;302.52;-525.27;-343.00;0.96;-134.76;7.98;11.90 
0.482;0.00;0.50;0.80;-1.95;-9.53;10.02;301.53;-529.05;-347.00;0.94;-134.91;8.33;11.66 
0.512;-0.02;0.45;0.77;1.25;-3.34;22.89;299.55;-534.73;-345.00;0.89;-135.50;8.65;11.71 
0.542;-0.06;0.43;0.77;2.37;7.44;21.84;295.58;-530.00;-345.00;0.88;-136.29;8.76;11.78 
0.573;-0.06;0.38;0.85;2.37;11.83;22.75;292.61;-531.89;-345.00;0.93;-137.16;8.58;11.85 
0.603;-0.05;0.38;0.83;3.48;6.26;20.66;291.61;-531.89;-346.00;0.91;-137.98;8.43;11.87 
0.633;-0.03;0.38;0.83;4.31;3.41;19.06;287.65;-532.84;-344.00;0.91;-138.73;8.52;11.80 
0.664;0.00;0.35;0.80;1.32;2.50;14.05;290.62;-535.68;-342.00;0.87;-139.38;8.52;11.87 
0.694;-0.02;0.36;0.80;-1.11;2.16;9.18;285.66;-535.68;-344.00;0.88;-139.85;8.52;11.84 
0.724;-0.02;0.36;0.76;-2.37;4.24;6.47;284.67;-534.73;-345.00;0.84;-140.18;8.46;11.83 
0.754;-0.04;0.35;0.82;-3.20;5.43;4.59;282.69;-536.63;-347.00;0.89;-140.45;8.45;11.63 
0.784;-0.04;0.39;0.85;-3.69;5.36;1.18;283.68;-533.79;-348.00;0.94;-140.64;8.27;11.55 
0.814;-0.01;0.34;0.84;-3.83;0.77;1.04;281.69;-530.95;-346.00;0.91;-140.76;8.14;11.48 
0.844;-0.02;0.29;0.84;-4.31;-1.25;-3.76;281.69;-534.73;-344.00;0.89;-140.80;8.12;11.38 
0.875;-0.02;0.29;0.81;-6.33;-1.39;-8.56;281.69;-534.73;-348.00;0.86;-140.67;8.08;11.29 
0.905;-0.04;0.32;0.84;-6.47;-0.63;-13.77;283.68;-534.73;-347.00;0.90;-140.37;8.02;11.15 
0.935;0.00;0.45;0.84;-1.53;-1.32;-9.39;282.69;-532.84;-349.00;0.95;-140.07;8.05;10.97 
0.965;-0.02;0.42;0.82;1.74;-3.83;-1.04;283.68;-534.73;-347.00;0.92;-140.00;8.05;11.09 
0.994;-0.03;0.37;0.80;2.64;-1.53;1.88;282.69;-534.73;-346.00;0.88;-140.11;8.16;11.20 
1.024;-0.03;0.38;0.80;2.09;4.10;1.04;282.69;-533.79;-347.00;0.89;-140.28;8.09;11.36 
1.054;-0.02;0.38;0.85;3.69;2.85;2.99;281.69;-534.73;-345.00;0.93;-140.46;7.98;11.52 
1.085;-0.06;0.38;0.82;3.20;1.95;2.99;285.66;-533.79;-346.00;0.91;-140.70;7.88;11.67 
1.115;-0.06;0.38;0.80;1.46;3.27;1.60;281.69;-530.95;-346.00;0.89;-140.89;7.75;11.82 
1.145;-0.04;0.39;0.84;-0.21;1.74;1.25;286.65;-534.73;-346.00;0.93;-141.05;7.61;11.91 
1.176;-0.06;0.40;0.77;-0.35;1.11;2.43;285.66;-534.73;-344.00;0.87;-141.21;7.54;11.98 
1.206;-0.04;0.42;0.77;0.49;2.78;2.85;281.69;-534.73;-349.00;0.88;-141.40;7.48;12.07 
1.236;-0.04;0.40;0.82;0.07;3.55;2.85;281.69;-533.79;-347.00;0.91;-141.61;7.37;12.17 
1.266;-0.04;0.38;0.84;-0.07;2.71;1.18;282.69;-536.63;-346.00;0.92;-141.79;7.26;12.22 
1.295;-0.06;0.38;0.85;0.28;1.18;-0.90;279.71;-534.73;-345.00;0.93;-141.92;7.17;12.29 
1.324;-0.05;0.39;0.84;0.14;-1.32;-2.99;284.67;-535.68;-348.00;0.93;-141.97;7.13;12.36 
1.353;-0.06;0.38;0.82;-0.28;-4.45;-4.03;281.69;-534.73;-346.00;0.91;-141.96;7.15;12.44 
1.384;-0.08;0.43;0.82;-0.56;-4.31;-4.80;285.66;-533.79;-348.00;0.93;-141.90;7.20;12.54 
1.414;-0.08;0.46;0.81;-1.18;-4.73;-2.64;283.68;-534.73;-347.00;0.93;-141.87;7.24;12.66 
1.444;-0.04;0.44;0.76;-1.81;-2.99;-1.74;285.66;-539.46;-347.00;0.88;-141.89;7.31;12.75 
1.475;0.00;0.38;0.73;-0.49;7.17;-4.10;286.65;-535.68;-347.00;0.82;-141.92;7.25;12.82 
1.505;-0.02;0.40;0.81;0.35;12.59;-4.94;284.67;-533.79;-347.00;0.90;-141.94;7.02;12.72 
1.534;0.00;0.42;0.82;-1.67;8.83;-3.90;287.65;-533.79;-348.00;0.92;-141.96;6.77;12.65 
1.564;0.00;0.42;0.79;-3.76;5.15;-2.50;284.67;-530.95;-349.00;0.89;-141.98;6.66;12.46 
1.594;0.00;0.35;0.82;-4.94;4.24;-1.95;282.69;-529.05;-352.00;0.89;-142.03;6.62;12.20 
1.624;-0.03;0.37;0.86;-7.10;1.39;-1.88;290.62;-529.05;-352.00;0.94;-142.07;6.48;12.11 
1.654;-0.02;0.28;0.87;-8.77;-3.20;-4.73;282.69;-531.89;-350.00;0.91;-142.05;6.45;11.93 
1.685;-0.05;0.26;0.82;-9.95;0.07;-9.25;283.68;-530.00;-352.00;0.86;-141.90;6.45;11.61 
1.715;-0.05;0.32;0.83;-7.44;6.82;-10.57;282.69;-528.11;-348.00;0.89;-141.63;6.22;11.38 
1.745;-0.04;0.36;0.87;-6.68;5.01;-6.26;278.72;-525.27;-352.00;0.94;-141.47;5.95;11.25 
1.775;-0.06;0.37;0.81;-7.10;4.52;2.71;281.69;-527.16;-355.00;0.89;-141.50;5.78;11.13 
1.805;-0.06;0.27;0.82;-7.17;6.19;5.08;280.70;-524.32;-355.00;0.87;-141.73;5.64;10.90 
1.834;-0.06;0.23;0.83;-4.66;6.82;4.87;276.74;-526.21;-355.00;0.86;-141.97;5.44;10.70 
1.863;-0.02;0.25;0.86;-3.55;5.63;6.26;272.77;-525.27;-358.00;0.90;-142.24;5.26;10.54 
1.892;-0.07;0.27;0.86;-0.63;4.31;10.09;273.76;-524.32;-360.00;0.90;-142.59;5.13;10.45 
1.921;-0.08;0.29;0.85;1.25;7.17;12.31;273.76;-522.43;-357.00;0.90;-143.03;4.99;10.42 
1.951;-0.08;0.26;0.82;3.20;11.20;13.84;274.75;-524.32;-361.00;0.86;-143.54;4.77;10.47 
1.982;-0.08;0.26;0.87;4.31;12.17;12.94;270.78;-521.48;-361.00;0.91;-144.13;4.45;10.55 
2.012;-0.10;0.23;0.89;3.76;9.53;7.58;273.76;-520.54;-361.00;0.92;-144.62;4.10;10.61 
2.042;-0.09;0.23;0.90;4.94;2.71;3.20;270.78;-517.70;-361.00;0.93;-144.91;3.92;10.66 
2.072;-0.06;0.22;0.85;7.93;-0.21;-0.83;272.77;-521.48;-357.00;0.88;-145.08;3.89;10.80 
2.102;-0.01;0.26;0.90;6.33;3.48;-1.46;274.75;-520.54;-360.00;0.94;-145.19;3.75;11.00 
2.132;-0.10;0.30;0.81;3.62;3.83;1.95;275.74;-519.59;-359.00;0.87;-145.30;3.55;11.17 
2.162;-0.10;0.30;0.78;2.92;0.28;6.54;274.75;-520.54;-357.00;0.84;-145.54;3.46;11.31 
2.192;-0.11;0.23;0.72;2.99;-0.07;10.64;278.72;-523.38;-360.00;0.76;-145.92;3.43;11.41 
2.222;-0.09;0.17;0.67;3.20;2.85;9.53;276.74;-524.32;-358.00;0.70;-146.33;3.38;11.45 
2.252;-0.04;0.10;0.67;1.32;1.32;3.83;276.74;-521.48;-354.00;0.68;-146.66;3.33;11.40 
2.283;-0.09;0.18;0.73;5.29;0.42;-3.97;275.74;-521.48;-357.00;0.76;-146.75;3.30;11.35 
2.313;-0.14;0.16;0.66;5.70;-3.27;-4.03;280.70;-521.48;-355.00;0.69;-146.75;3.17;11.51 
2.343;-0.04;0.14;0.54;-4.59;-1.32;-5.01;279.71;-523.38;-351.00;0.56;-146.69;3.18;11.46 
2.373;-0.06;0.22;0.50;-6.05;10.85;-5.70;277.73;-521.48;-355.00;0.55;-146.62;3.05;11.21 
2.402;-0.09;0.34;0.48;-1.18;15.86;10.85;276.74;-523.38;-353.00;0.60;-146.77;2.63;11.30 
2.431;-0.03;0.37;0.41;-2.64;19.83;25.32;274.75;-521.48;-356.00;0.55;-147.40;2.17;11.51 
2.461;-0.02;0.34;0.46;2.09;27.55;38.26;271.78;-519.59;-361.00;0.57;-148.45;1.73;11.45 
2.491;-0.02;0.10;0.70;3.48;25.46;36.52;268.80;-516.75;-360.00;0.71;-149.83;1.05;11.53 
2.521;-0.04;-0.09;0.74;-4.59;15.93;21.91;261.86;-519.59;-362.00;0.75;-150.87;0.60;11.31 
2.551;0.02;0.00;0.74;-8.21;-6.40;-5.77;259.87;-519.59;-364.00;0.74;-151.19;0.54;10.77 
2.582;0.01;0.29;0.65;-2.85;-6.89;-6.40;258.88;-521.48;-364.00;0.71;-150.99;0.79;10.50 
2.612;0.00;0.27;0.54;-1.11;-10.99;20.31;256.90;-527.16;-360.00;0.60;-151.26;1.20;10.58 
2.642;-0.12;0.10;0.50;1.81;6.61;24.90;252.93;-528.11;-362.00;0.52;-152.01;1.43;10.57 
2.672;-0.21;0.09;0.68;6.05;35.41;21.29;249.95;-529.05;-363.00;0.72;-152.73;0.71;10.52 
2.702;-0.06;0.22;1.01;10.43;43.48;37.91;251.94;-524.32;-368.00;1.04;-153.73;-0.57;10.69 
2.732;-0.14;0.18;1.11;31.37;-12.94;45.91;243.01;-525.27;-368.00;1.13;-155.15;-0.84;11.11 
2.762;-0.24;-0.05;0.90;69.29;-33.81;47.03;243.01;-530.00;-360.00;0.93;-156.69;-0.01;12.25 
2.793;-0.09;0.11;0.77;105.18;-65.67;21.43;257.89;-547.04;-350.00;0.78;-158.12;2.15;14.71 
2.822;-0.05;0.39;0.58;160.49;-41.18;12.03;270.78;-560.29;-333.00;0.70;-159.07;3.86;18.30 
2.852;0.00;0.38;0.49;215.17;-53.91;16.97;296.57;-567.86;-315.00;0.62;-160.60;5.44;23.69 
2.883;0.03;0.68;0.48;234.50;-12.87;-4.31;340.22;-580.16;-279.00;0.83;-162.64;6.75;30.85 
2.913;0.24;1.17;0.79;247.72;36.38;51.48;365.01;-583.00;-253.00;1.43;-165.68;6.84;38.30 
2.943;0.22;2.76;1.26;233.46;-28.94;79.03;379.89;-585.84;-230.00;3.04;-170.30;7.81;45.25 
2.973;-0.62;5.27;1.39;160.07;-165.91;38.75;388.82;-596.25;-194.00;5.49;-173.23;9.52;50.34 
3.003;0.54;1.19;0.77;407.30;65.39;23.93;404.69;-609.50;-126.00;1.52;-178.77;11.53;58.47 
3.033;0.54;-0.65;-0.03;278.40;-88.83;12.73;426.51;-614.23;-71.00;0.85;175.45;12.38;67.73 
3.063;0.15;0.22;-0.39;140.24;-194.57;10.78;424.53;-618.96;-20.00;0.47;170.54;15.29;70.77 
3.094;0.21;0.74;-0.72;196.66;-132.31;-43.97;420.56;-608.55;29.00;1.05;167.42;15.51;73.82 
3.124;-0.13;0.51;-0.56;246.12;21.29;-0.63;408.66;-607.61;98.00;0.77;163.18;14.89;74.77 
3.154;0.24;0.95;-1.44;212.24;-67.55;-90.16;399.73;-604.77;129.00;1.74;159.84;13.67;72.60 
3.184;0.02;1.38;-0.89;196.94;125.22;-92.66;391.79;-596.25;161.00;1.64;159.97;11.05;70.24 
3.213;-0.39;1.36;-1.10;188.10;65.46;-77.36;384.85;-592.46;175.00;1.79;160.13;9.58;65.74 
3.243;-0.07;0.86;-1.10;20.24;-35.06;-41.46;379.89;-585.84;190.00;1.40;161.24;8.08;63.27 
3.273;0.31;1.34;-1.32;-54.47;-88.35;-49.32;387.83;-571.64;198.00;1.91;162.65;5.95;64.16 
3.304;0.14;0.22;-0.56;-62.12;46.82;-57.18;388.82;-579.21;193.00;0.62;162.22;7.32;64.21 
3.334;0.32;0.57;-0.48;-85.70;-60.03;-67.55;407.66;-564.07;180.00;0.81;165.92;4.42;66.98 
3.364;-0.19;0.53;-0.65;-32.56;-68.73;26.37;420.56;-551.77;179.00;0.86;166.95;3.45;68.68 
3.394;-0.21;0.40;-1.05;-38.68;-115.83;-9.25;426.51;-547.98;180.00;1.14;166.79;2.73;69.28 
3.424;-0.37;0.90;-1.18;-50.92;-52.59;-32.21;428.49;-534.73;187.00;1.53;167.74;0.93;70.29 
3.454;-0.28;1.26;-0.94;-40.83;69.84;-13.63;440.40;-530.00;184.00;1.60;169.33;0.18;71.45 
3.484;-0.22;1.18;-0.62;-40.28;5.08;-27.48;448.33;-531.89;164.00;1.35;170.95;-0.07;72.71 
3.514;-0.12;0.90;-0.57;-37.84;-54.47;-13.57;450.31;-528.11;162.00;1.07;172.16;-0.90;73.91 
3.543;-0.17;0.81;-0.62;-42.99;-21.29;-33.53;456.27;-521.48;159.00;1.03;173.36;-1.89;74.88 
3.573;-0.17;0.97;-0.45;-44.59;9.32;-42.71;466.19;-513.91;147.00;1.08;175.26;-3.10;75.86 
3.604;-0.21;1.05;-0.26;-33.04;12.87;-23.51;470.15;-509.18;142.00;1.10;177.24;-4.15;76.83 
3.634;-0.32;1.08;-0.21;-27.41;-19.41;-9.32;481.06;-506.34;132.00;1.15;178.47;-4.69;77.69 
3.664;-0.41;1.14;-0.34;-18.50;-32.28;5.57;482.06;-501.61;129.00;1.26;179.27;-5.12;78.39 
3.694;-0.43;1.10;-0.37;-11.27;-3.90;20.66;478.09;-501.61;131.00;1.24;179.33;-4.95;78.99 
3.723;-0.34;1.10;-0.30;-8.07;2.99;10.02;480.07;-505.39;128.00;1.19;179.29;-4.66;79.46 
3.752;-0.29;1.06;-0.31;1.88;6.05;9.81;480.07;-507.29;126.00;1.14;179.26;-4.47;79.70 
3.782;-0.24;1.02;-0.35;9.60;10.78;15.17;478.09;-512.02;124.00;1.10;178.98;-4.17;79.73 
3.812;-0.22;1.01;-0.36;12.94;12.38;15.86;473.13;-516.75;126.00;1.09;178.45;-3.72;79.58 
3.842;-0.22;1.02;-0.41;14.75;8.28;19.97;473.13;-514.86;129.00;1.12;177.83;-3.21;79.35 
3.872;-0.19;1.02;-0.46;13.98;7.44;19.27;466.19;-520.54;135.00;1.13;177.12;-2.65;79.08 
3.903;-0.19;0.98;-0.45;11.76;9.18;17.67;468.17;-527.16;135.00;1.09;176.42;-2.11;78.72 
3.933;-0.16;0.96;-0.46;8.21;7.72;16.00;462.22;-529.05;134.00;1.08;175.81;-1.58;78.42 
3.963;-0.14;0.98;-0.49;3.62;5.77;13.84;461.23;-530.00;136.00;1.10;175.35;-1.16;78.23 
3.993;-0.14;0.98;-0.49;0.14;9.32;12.17;461.23;-536.63;135.00;1.10;175.01;-0.79;78.13 
4.022;-0.12;1.02;-0.46;-2.78;7.23;10.02;456.27;-534.73;136.00;1.13;174.77;-0.46;78.12 
4.051;-0.10;1.00;-0.45;-3.97;2.71;8.49;459.24;-539.46;133.00;1.10;174.61;-0.19;78.20 
4.081;-0.13;1.00;-0.48;-5.43;3.20;8.14;457.26;-540.41;135.00;1.12;174.51;0.00;78.28 
4.111;-0.14;1.02;-0.46;-6.47;3.34;6.47;452.30;-542.30;132.00;1.13;174.47;0.19;78.44 
4.141;-0.13;1.00;-0.43;-4.80;3.06;6.89;455.27;-542.30;129.00;1.10;174.44;0.34;78.58 
4.171;-0.14;1.02;-0.43;-3.13;3.34;5.57;456.27;-541.36;128.00;1.12;174.42;0.47;78.69 
4.202;-0.10;1.00;-0.42;-1.18;1.46;4.24;456.27;-546.09;132.00;1.09;174.39;0.57;78.71 
4.232;-0.11;1.00;-0.46;0.42;3.34;3.27;457.26;-544.20;127.00;1.11;174.37;0.63;78.69 
4.262;-0.07;1.05;-0.41;0.90;3.13;2.50;455.27;-544.20;130.00;1.13;174.37;0.67;78.62 
4.292;-0.10;1.01;-0.45;0.77;1.32;1.88;452.30;-545.14;132.00;1.11;174.35;0.71;78.55 
4.322;-0.10;1.00;-0.47;0.21;2.78;-0.21;454.28;-547.98;125.00;1.11;174.40;0.68;78.49 
4.352;-0.09;0.98;-0.41;-0.07;1.88;-1.11;455.27;-545.14;129.00;1.07;174.51;0.61;78.45 
4.381;-0.10;1.02;-0.42;0.14;-0.28;-1.46;453.29;-546.09;131.00;1.11;174.62;0.53;78.40 
4.410;-0.13;0.99;-0.42;-0.21;-0.56;-1.88;456.27;-547.04;128.00;1.08;174.75;0.41;78.35 
4.440;-0.12;1.00;-0.48;-1.25;-1.53;-2.02;451.31;-546.09;132.00;1.12;174.89;0.29;78.31 
4.470;-0.14;1.01;-0.45;-1.53;-1.46;-2.57;456.27;-546.09;129.00;1.11;175.07;0.13;78.30 
4.501;-0.11;1.01;-0.43;-1.39;-0.07;-2.78;457.26;-545.14;127.00;1.10;175.26;-0.02;78.31 
4.531;-0.11;1.02;-0.45;-1.18;-2.09;-2.37;459.24;-542.30;128.00;1.12;175.45;-0.18;78.30 
4.561;-0.16;1.02;-0.45;-0.56;1.25;-1.88;452.30;-544.20;130.00;1.13;175.61;-0.31;78.28 
4.591;-0.11;1.02;-0.46;-0.35;0.49;-1.04;458.25;-541.36;129.00;1.12;175.77;-0.43;78.25 
4.621;-0.13;1.01;-0.43;0.00;1.53;-0.42;456.27;-539.46;131.00;1.11;175.89;-0.53;78.21 
4.651;-0.13;1.02;-0.45;0.21;1.74;-0.35;455.27;-542.30;130.00;1.12;176.01;-0.61;78.16 
4.681;-0.12;1.00;-0.46;-0.14;1.46;0.28;459.24;-545.14;131.00;1.11;176.10;-0.67;78.11 
4.712;-0.14;1.00;-0.44;-0.56;1.74;0.35;453.29;-542.30;133.00;1.10;176.18;-0.72;78.05 
4.742;-0.13;1.01;-0.46;-0.49;2.09;1.11;458.25;-542.30;130.00;1.12;176.27;-0.77;78.00 
4.772;-0.11;1.02;-0.43;-0.56;1.60;1.04;455.27;-542.30;129.00;1.11;176.33;-0.80;77.95 
4.803;-0.14;1.00;-0.49;-0.56;1.60;1.88;456.27;-543.25;129.00;1.12;176.39;-0.82;77.91 
4.833;-0.14;1.00;-0.43;-0.83;1.74;1.04;456.27;-541.36;126.00;1.10;176.44;-0.85;77.86 
4.863;-0.13;1.02;-0.43;-0.63;1.46;1.11;454.28;-543.25;132.00;1.11;176.50;-0.87;77.82 
4.893;-0.14;1.01;-0.46;-0.49;1.18;0.49;456.27;-545.14;129.00;1.12;176.55;-0.89;77.77 
4.923;-0.13;1.01;-0.45;-0.42;1.81;0.28;456.27;-543.25;130.00;1.11;176.62;-0.93;77.70 
4.953;-0.10;1.00;-0.42;-0.28;0.97;-0.07;454.28;-545.14;129.00;1.09;176.70;-0.99;77.65 
4.983;-0.13;1.02;-0.48;-0.07;0.83;0.21;457.26;-546.09;129.00;1.13;176.79;-1.05;77.57 
5.014;-0.12;1.01;-0.46;-0.63;1.60;0.07;457.26;-541.36;125.00;1.12;176.88;-1.11;77.50 
5.043;-0.12;1.02;-0.42;-0.49;0.90;0.00;454.28;-544.20;128.00;1.11;176.96;-1.17;77.43 
5.073;-0.11;1.02;-0.45;-0.42;1.53;0.49;455.27;-544.20;130.00;1.12;177.06;-1.24;77.38 
5.103;-0.14;1.01;-0.44;-0.28;0.21;0.56;455.27;-545.14;128.00;1.11;177.12;-1.28;77.32 
5.132;-0.14;1.02;-0.45;-0.21;1.32;0.49;454.28;-546.09;128.00;1.12;177.19;-1.32;77.25 
5.161;-0.11;0.99;-0.46;-0.35;1.25;0.21;457.26;-547.04;130.00;1.10;177.27;-1.37;77.20 
5.190;-0.12;1.02;-0.42;-0.21;1.39;0.00;456.27;-544.20;130.00;1.11;177.35;-1.42;77.13 
5.219;-0.14;1.01;-0.46;-0.63;0.90;0.35;457.26;-545.14;132.00;1.12;177.43;-1.47;77.07 
5.248;-0.12;1.02;-0.42;-0.28;1.04;0.77;456.27;-544.20;127.00;1.11;177.51;-1.53;77.00 
5.277;-0.14;1.02;-0.42;-0.49;0.97;0.35;453.29;-546.09;132.00;1.11;177.59;-1.58;76.95 
5.306;-0.13;1.02;-0.45;-0.28;1.11;0.28;452.30;-547.04;127.00;1.12;177.68;-1.64;76.89 
5.335;-0.11;0.98;-0.45;-0.28;0.77;0.28;455.27;-544.20;130.00;1.08;177.77;-1.69;76.83 
5.364;-0.13;1.02;-0.46;-0.63;0.77;0.35;453.29;-546.09;128.00;1.13;177.83;-1.73;76.77 
5.395;-0.13;1.01;-0.44;-0.56;1.39;0.28;456.27;-547.04;130.00;1.11;177.93;-1.78;76.74 
5.424;-0.11;1.02;-0.42;-0.56;0.56;-0.21;457.26;-541.36;129.00;1.11;178.02;-1.84;76.69 
5.454;-0.12;1.01;-0.43;-0.28;0.77;0.07;452.30;-544.20;130.00;1.10;178.10;-1.89;76.63 
5.484;-0.11;1.02;-0.44;-0.49;1.04;-0.07;456.27;-544.20;128.00;1.12;178.18;-1.95;76.57 
5.513;-0.14;1.02;-0.46;-0.28;0.97;-0.07;455.27;-544.20;125.00;1.13;178.27;-2.01;76.51 
5.542;-0.10;1.02;-0.45;-0.14;0.77;-0.07;456.27;-545.14;132.00;1.12;178.36;-2.06;76.44 
5.571;-0.11;1.02;-0.42;-0.21;1.11;-0.07;457.26;-544.20;127.00;1.11;178.42;-2.10;76.36 
5.600;-0.10;1.02;-0.43;-0.07;0.35;0.00;456.27;-547.98;131.00;1.11;178.52;-2.17;76.29 
5.629;-0.11;1.02;-0.46;-0.21;0.70;0.49;454.28;-546.09;131.00;1.12;178.59;-2.22;76.22 
5.658;-0.10;1.01;-0.46;-0.49;0.83;0.21;451.31;-544.20;128.00;1.11;178.67;-2.27;76.15 
5.688;-0.11;1.02;-0.43;-0.63;0.14;0.70;454.28;-547.04;127.00;1.11;178.74;-2.32;76.07 
5.718;-0.10;1.00;-0.42;-0.28;0.28;0.35;455.27;-546.09;130.00;1.09;178.83;-2.39;76.00 
5.748;-0.11;1.02;-0.45;-0.56;0.35;0.35;455.27;-546.09;130.00;1.12;178.91;-2.45;75.92 
5.779;-0.11;1.02;-0.42;-0.21;0.49;0.21;455.27;-544.20;131.00;1.11;178.99;-2.50;75.84 
5.808;-0.12;1.02;-0.41;-0.42;0.35;0.14;453.29;-545.14;130.00;1.11;179.07;-2.55;75.77 
5.837;-0.12;1.01;-0.44;-0.49;0.42;0.70;454.28;-546.09;129.00;1.11;179.13;-2.58;75.69 
5.868;-0.10;1.02;-0.42;-0.14;0.49;1.25;453.29;-544.20;134.00;1.11;179.19;-2.61;75.63 
5.898;-0.09;0.98;-0.49;-0.56;0.83;0.14;452.30;-547.04;125.00;1.10;179.25;-2.65;75.53 
5.928;-0.08;1.02;-0.44;-0.42;1.04;0.56;451.31;-546.09;128.00;1.11;179.32;-2.68;75.46 
5.958;-0.13;1.01;-0.41;-0.21;-0.07;0.28;456.27;-547.98;135.00;1.10;179.39;-2.72;75.40 
5.988;-0.11;1.01;-0.46;-0.49;0.42;0.35;454.28;-545.14;127.00;1.12;179.46;-2.77;75.31 
6.018;-0.12;1.02;-0.45;-0.56;0.14;0.00;456.27;-545.14;130.00;1.12;179.54;-2.82;75.22 
6.048;-0.12;1.02;-0.42;-0.07;0.07;0.00;455.27;-547.98;128.00;1.11;179.63;-2.88;75.14 
6.079;-0.10;0.98;-0.42;-0.63;0.07;-0.14;453.29;-542.30;130.00;1.07;179.71;-2.94;75.06 
6.108;-0.11;1.02;-0.43;-0.28;0.21;0.07;453.29;-548.93;130.00;1.11;179.79;-2.98;75.00 
6.137;-0.11;1.02;-0.46;-0.21;-0.28;0.07;455.27;-544.20;131.00;1.12;179.86;-3.03;74.92 
6.167;-0.10;1.03;-0.41;-0.21;0.21;0.28;452.30;-546.09;129.00;1.11;179.93;-3.08;74.83 
6.196;-0.14;1.02;-0.46;-0.07;0.21;0.63;452.30;-546.09;130.00;1.13;179.99;-3.11;74.77 
6.225;-0.12;1.00;-0.36;-0.28;-0.14;0.77;454.28;-545.14;129.00;1.07;-179.95;-3.14;74.68 
6.255;-0.13;1.02;-0.46;-0.35;-0.21;0.90;452.30;-547.98;130.00;1.13;-179.90;-3.17;74.61 
6.285;-0.10;0.99;-0.44;-0.49;0.21;0.70;452.30;-547.98;130.00;1.09;-179.84;-3.20;74.57 
6.315;-0.11;1.01;-0.42;-0.56;0.70;0.97;453.29;-547.98;131.00;1.10;-179.76;-3.24;74.53 
6.345;-0.14;1.01;-0.44;-0.35;-0.97;0.83;452.30;-545.14;131.00;1.11;-179.72;-3.25;74.46 
6.376;-0.12;1.02;-0.47;0.00;0.28;0.49;453.29;-547.04;131.00;1.13;-179.65;-3.30;74.38 
6.405;-0.12;1.02;-0.46;-0.28;0.77;0.21;454.28;-546.09;130.00;1.13;-179.57;-3.34;74.30 
6.434;-0.11;1.02;-0.44;-0.35;-0.63;0.77;450.31;-547.98;133.00;1.12;-179.50;-3.39;74.21 
6.464;-0.09;1.02;-0.45;-0.42;0.00;0.77;452.30;-547.04;130.00;1.12;-179.44;-3.43;74.13 
6.493;-0.11;1.02;-0.46;-0.49;0.63;0.90;454.28;-547.04;129.00;1.12;-179.37;-3.46;74.07 
6.522;-0.11;1.02;-0.46;-0.63;-0.14;0.56;455.27;-546.09;130.00;1.12;-179.31;-3.49;74.01 
6.552;-0.12;1.02;-0.43;-0.49;0.83;0.77;450.31;-546.09;131.00;1.11;-179.25;-3.52;73.94 
6.582;-0.09;1.03;-0.42;-0.56;0.56;1.11;451.31;-547.98;132.00;1.12;-179.20;-3.54;73.87 
6.612;-0.11;0.99;-0.44;-0.14;0.63;0.56;453.29;-547.98;132.00;1.09;-179.14;-3.57;73.81 
6.642;-0.10;1.01;-0.43;-0.28;0.90;0.42;454.28;-545.14;130.00;1.10;-179.07;-3.60;73.72 
6.672;-0.11;1.02;-0.43;-0.35;0.83;0.35;454.28;-547.04;129.00;1.11;-179.01;-3.62;73.64 
6.702;-0.10;1.00;-0.42;-0.63;1.11;0.00;453.29;-548.93;130.00;1.09;-178.93;-3.65;73.59 
6.732;-0.10;1.01;-0.42;-0.21;1.39;0.07;452.30;-547.98;132.00;1.10;-178.86;-3.69;73.50 
6.763;-0.11;1.02;-0.44;-0.35;1.32;-0.28;452.30;-547.04;132.00;1.12;-178.78;-3.73;73.41 
6.792;-0.12;1.02;-0.45;-0.21;1.11;-0.49;453.29;-545.14;131.00;1.12;-178.68;-3.78;73.34 
6.822;-0.10;1.02;-0.45;-0.07;1.11;-0.14;451.31;-546.09;132.00;1.12;-178.62;-3.81;73.26 
6.852;-0.09;1.00;-0.46;-0.21;1.18;-0.21;450.31;-547.98;131.00;1.10;-178.52;-3.87;73.20 
6.882;-0.10;1.00;-0.43;-0.42;0.83;-0.21;451.31;-548.93;128.00;1.09;-178.43;-3.91;73.11 
6.912;-0.11;1.02;-0.42;-0.63;0.97;-0.49;449.32;-546.09;128.00;1.11;-178.35;-3.94;73.04 
6.942;-0.10;1.02;-0.46;-0.63;1.53;-0.42;452.30;-547.04;128.00;1.12;-178.26;-3.99;72.97 
6.973;-0.12;1.02;-0.45;-0.07;0.63;-0.21;450.31;-548.93;131.00;1.12;-178.16;-4.05;72.90 
7.003;-0.13;1.04;-0.44;-0.07;0.90;-1.04;451.31;-546.09;133.00;1.14;-178.07;-4.10;72.82 
7.033;-0.10;1.02;-0.44;-0.21;1.53;-0.77;454.28;-547.98;132.00;1.12;-177.97;-4.16;72.73 
7.064;-0.14;1.02;-0.44;-0.35;0.70;-0.56;453.29;-548.93;130.00;1.12;-177.85;-4.24;72.61 
7.094;-0.11;1.02;-0.43;-0.49;1.39;-0.21;451.31;-548.93;132.00;1.11;-177.76;-4.29;72.52 
7.124;-0.12;1.03;-0.41;-0.56;0.83;-0.14;452.30;-546.09;132.00;1.12;-177.67;-4.33;72.44 
7.154;-0.09;1.02;-0.45;-0.70;0.90;-0.21;452.30;-547.04;133.00;1.12;-177.58;-4.38;72.36 
7.184;-0.12;1.02;-0.44;-0.70;1.32;-0.21;453.29;-547.04;133.00;1.12;-177.52;-4.40;72.31 
7.214;-0.13;1.01;-0.46;-0.35;0.83;0.14;451.31;-547.98;130.00;1.12;-177.45;-4.42;72.25 
7.244;-0.12;1.01;-0.43;-0.56;1.39;0.14;454.28;-547.04;129.00;1.10;-177.38;-4.45;72.19 
7.275;-0.10;0.98;-0.41;-0.28;1.60;-0.14;451.31;-545.14;128.00;1.07;-177.30;-4.47;72.11 
7.305;-0.11;1.00;-0.44;0.00;0.90;0.21;451.31;-547.04;130.00;1.10;-177.24;-4.50;72.04 
7.334;-0.10;1.01;-0.45;-0.21;1.39;-0.14;450.31;-546.09;125.00;1.11;-177.16;-4.53;71.96 
7.363;-0.10;1.02;-0.45;-0.35;1.04;-0.42;453.29;-547.04;130.00;1.12;-177.07;-4.58;71.87 
7.392;-0.13;1.02;-0.46;-0.28;0.70;-0.14;452.30;-547.04;130.00;1.13;-176.99;-4.61;71.79 
7.422;-0.10;1.00;-0.43;-0.14;1.04;-0.21;451.31;-545.14;132.00;1.09;-176.92;-4.65;71.73 
7.452;-0.11;1.02;-0.43;-0.28;1.18;-0.21;453.29;-546.09;131.00;1.11;-176.84;-4.69;71.65 
7.481;-0.13;0.96;-0.42;-0.21;0.63;-0.63;452.30;-547.04;129.00;1.06;-176.75;-4.73;71.56 
7.511;-0.10;1.02;-0.42;-0.56;1.18;-1.04;454.28;-546.09;131.00;1.11;-176.65;-4.79;71.49 
7.541;-0.10;1.00;-0.42;-0.42;0.42;-0.70;450.31;-547.04;130.00;1.09;-176.55;-4.85;71.42 
7.572;-0.10;1.02;-0.48;-0.42;0.83;-0.63;455.27;-545.14;131.00;1.13;-176.45;-4.90;71.34 
7.602;-0.12;1.02;-0.42;-0.42;1.18;-0.35;453.29;-548.93;130.00;1.11;-176.35;-4.96;71.26 
7.632;-0.10;1.00;-0.42;-0.21;0.35;-0.49;452.30;-544.20;132.00;1.09;-176.26;-5.00;71.19 
7.662;-0.14;1.02;-0.46;0.00;0.56;-1.11;454.28;-545.14;130.00;1.13;-176.17;-5.06;71.10 
7.691;-0.11;1.02;-0.44;-0.35;1.39;-0.77;454.28;-547.04;132.00;1.12;-176.06;-5.12;71.01 
7.721;-0.13;1.02;-0.46;-0.56;0.77;-0.56;453.29;-547.04;131.00;1.13;-175.96;-5.18;70.91 
7.751;-0.12;1.00;-0.44;-0.63;1.53;-0.21;451.31;-547.04;130.00;1.10;-175.89;-5.21;70.82 
7.781;-0.10;1.02;-0.44;-0.42;0.63;0.00;454.28;-547.98;132.00;1.12;-175.81;-5.25;70.74 
7.810;-0.11;1.01;-0.44;-0.63;1.04;0.14;455.27;-546.09;132.00;1.11;-175.75;-5.26;70.67 
7.840;-0.12;1.02;-0.46;-0.42;1.04;0.35;454.28;-546.09;133.00;1.13;-175.69;-5.27;70.61 
7.870;-0.12;1.03;-0.46;-0.56;1.46;0.14;454.28;-547.04;128.00;1.13;-175.64;-5.28;70.52 
7.899;-0.10;1.02;-0.42;-0.56;0.97;0.56;454.28;-548.93;131.00;1.11;-175.58;-5.29;70.46 
7.928;-0.11;1.00;-0.40;-0.21;0.70;0.21;452.30;-544.20;129.00;1.08;-175.51;-5.31;70.39 
7.958;-0.13;0.98;-0.43;-0.70;1.46;0.00;455.27;-546.09;127.00;1.08;-175.44;-5.34;70.32 
7.987;-0.12;1.02;-0.46;-0.42;0.28;-0.35;452.30;-546.09;132.00;1.13;-175.37;-5.36;70.24 
8.017;-0.12;1.00;-0.42;-0.56;0.83;-0.07;454.28;-545.14;130.00;1.09;-175.30;-5.39;70.16 
8.047;-0.12;1.02;-0.43;-0.42;0.56;-0.63;454.28;-548.93;129.00;1.11;-175.23;-5.42;70.09 
8.077;-0.11;1.02;-0.47;-0.21;0.28;-0.63;451.31;-547.04;129.00;1.13;-175.14;-5.46;69.99 
8.107;-0.10;1.00;-0.46;-0.35;0.49;-0.56;455.27;-547.98;129.00;1.11;-175.05;-5.51;69.92 
8.137;-0.12;1.01;-0.44;-0.28;-0.14;-0.83;453.29;-545.14;131.00;1.11;-174.96;-5.56;69.84 
8.168;-0.10;1.02;-0.46;-0.28;0.42;-0.97;455.27;-547.04;130.00;1.12;-174.87;-5.61;69.74 
8.198;-0.10;1.02;-0.42;-0.70;0.35;-0.70;452.30;-546.09;129.00;1.11;-174.78;-5.66;69.66 
8.228;-0.12;1.01;-0.44;-0.63;0.00;-0.42;455.27;-546.09;130.00;1.11;-174.70;-5.70;69.58 
8.259;-0.10;1.01;-0.47;-0.77;0.83;-0.49;455.27;-547.98;129.00;1.12;-174.62;-5.73;69.52 
8.289;-0.11;1.01;-0.48;-0.56;1.18;-0.14;451.31;-544.20;131.00;1.12;-174.54;-5.78;69.46 
8.319;-0.11;1.02;-0.44;-0.77;0.90;0.14;453.29;-545.14;128.00;1.12;-174.48;-5.79;69.41 
8.349;-0.12;1.02;-0.47;-0.42;0.42;-0.14;451.31;-545.14;132.00;1.13;-174.42;-5.81;69.35 
8.379;-0.12;1.02;-0.40;-0.14;2.02;-0.14;455.27;-544.20;131.00;1.10;-174.36;-5.81;69.27 
8.409;-0.12;1.00;-0.46;-0.28;0.97;0.00;454.28;-545.14;131.00;1.11;-174.30;-5.83;69.20 
8.439;-0.10;1.02;-0.43;-0.49;0.90;-0.07;454.28;-546.09;133.00;1.11;-174.23;-5.85;69.14 
8.470;-0.10;1.02;-0.43;-0.35;0.07;0.35;458.25;-544.20;130.00;1.11;-174.18;-5.86;69.07 
8.500;-0.14;1.01;-0.44;-0.97;0.56;-0.28;452.30;-545.14;132.00;1.11;-174.13;-5.86;69.00 
8.530;-0.11;1.02;-0.42;-0.70;-0.28;-0.35;454.28;-543.25;133.00;1.11;-174.06;-5.89;68.95 
8.560;-0.13;1.02;-0.43;-0.70;0.07;0.49;455.27;-546.09;131.00;1.11;-174.00;-5.92;68.90 
8.590;-0.11;1.02;-0.45;-0.56;0.21;0.42;451.31;-546.09;132.00;1.12;-173.94;-5.94;68.81 
8.620;-0.14;1.02;-0.46;-0.35;0.83;0.35;455.27;-546.09;129.00;1.13;-173.89;-5.96;68.73 
8.650;-0.13;1.00;-0.42;-0.28;0.83;0.35;454.28;-545.14;132.00;1.09;-173.83;-5.97;68.65 
8.681;-0.11;1.02;-0.45;-0.14;0.90;0.42;455.27;-545.14;129.00;1.12;-173.77;-5.98;68.56 
8.711;-0.10;0.99;-0.46;-0.35;0.90;0.07;454.28;-544.20;130.00;1.10;-173.72;-5.99;68.48 
8.741;-0.11;1.01;-0.44;-0.70;0.63;-0.07;454.28;-545.14;130.00;1.11;-173.65;-6.01;68.43 
8.772;-0.10;1.02;-0.43;-0.70;0.63;0.00;454.28;-544.20;132.00;1.11;-173.60;-6.02;68.36 
8.801;-0.12;1.01;-0.43;-0.70;0.07;0.00;455.27;-547.04;131.00;1.10;-173.54;-6.03;68.32 
8.831;-0.12;1.02;-0.40;-0.70;-0.49;-0.28;456.27;-546.09;131.00;1.10;-173.47;-6.06;68.25 
8.860;-0.11;0.99;-0.45;-0.77;-0.14;-0.42;455.27;-544.20;132.00;1.09;-173.40;-6.10;68.18 
8.889;-0.13;0.99;-0.43;-0.28;0.21;0.21;454.28;-544.20;131.00;1.09;-173.34;-6.13;68.11 
8.918;-0.13;1.03;-0.44;-0.35;-0.35;-0.07;455.27;-546.09;130.00;1.13;-173.29;-6.15;68.05 
8.947;-0.11;1.02;-0.42;-0.14;0.42;0.00;452.30;-547.04;134.00;1.11;-173.23;-6.17;67.98 
8.976;-0.11;1.01;-0.42;0.00;0.21;0.56;455.27;-547.98;129.00;1.10;-173.18;-6.18;67.89 
9.006;-0.12;1.02;-0.43;-0.28;0.83;0.56;454.28;-545.14;133.00;1.11;-173.15;-6.17;67.83 
9.036;-0.11;0.98;-0.42;-0.42;0.28;0.77;452.30;-547.98;131.00;1.07;-173.11;-6.16;67.76 
9.067;-0.10;1.01;-0.42;0.21;-0.63;0.14;456.27;-545.14;129.00;1.10;-173.08;-6.16;67.71 
9.097;-0.12;1.02;-0.45;0.28;0.63;1.04;454.28;-547.98;130.00;1.12;-173.03;-6.18;67.63 
9.127;-0.14;1.02;-0.46;-0.35;0.14;1.74;451.31;-545.14;134.00;1.13;-173.00;-6.17;67.59 
9.157;-0.12;1.01;-0.43;-0.35;0.90;2.57;456.27;-545.14;133.00;1.10;-173.02;-6.12;67.55 
9.187;-0.10;1.02;-0.44;-0.56;0.63;2.37;453.29;-543.25;133.00;1.12;-173.03;-6.07;67.51 
9.217;-0.12;1.02;-0.41;-0.49;0.63;2.02;454.28;-546.09;132.00;1.11;-173.04;-6.01;67.46 
9.247;-0.12;1.02;-0.43;-0.42;-1.32;1.18;452.30;-545.14;134.00;1.11;-173.04;-5.98;67.43 
9.278;-0.11;1.02;-0.43;0.07;0.28;1.95;454.28;-546.09;135.00;1.11;-173.03;-5.96;67.40 
9.308;-0.10;1.01;-0.46;-0.28;0.56;1.11;454.28;-547.98;131.00;1.11;-173.01;-5.94;67.34 
9.338;-0.10;1.00;-0.45;-0.07;-0.14;0.97;453.29;-547.98;130.00;1.10;-172.99;-5.92;67.29 
9.369;-0.08;1.00;-0.42;0.28;-0.21;0.77;452.30;-547.04;135.00;1.09;-172.96;-5.92;67.23 
9.399;-0.14;1.00;-0.44;-0.14;-0.07;0.42;451.31;-547.98;133.00;1.10;-172.92;-5.93;67.15 
9.429;-0.12;1.02;-0.43;-0.49;-0.49;0.07;453.29;-547.98;132.00;1.11;-172.88;-5.94;67.08 
9.459;-0.11;1.02;-0.43;-0.90;0.56;-0.07;451.31;-547.04;132.00;1.11;-172.83;-5.95;67.04 
9.490;-0.10;1.00;-0.45;-0.70;1.04;-0.07;452.30;-547.98;132.00;1.10;-172.77;-5.96;66.99 
9.520;-0.10;1.00;-0.41;-0.42;0.42;0.00;453.29;-547.04;132.00;1.09;-172.73;-5.95;66.94 
9.550;-0.13;1.02;-0.46;-0.42;-0.35;0.42;454.28;-545.14;135.00;1.13;-172.69;-5.96;66.91 
9.581;-0.13;1.02;-0.42;-0.14;0.56;0.42;451.31;-546.09;130.00;1.11;-172.65;-5.95;66.84 
9.611;-0.10;1.02;-0.43;-0.28;0.49;0.00;451.31;-547.04;132.00;1.11;-172.61;-5.95;66.79 
9.641;-0.12;1.02;-0.43;-0.28;0.56;-0.28;448.33;-547.98;134.00;1.11;-172.55;-5.97;66.71 
9.671;-0.11;1.02;-0.42;-0.56;0.90;-0.14;453.29;-547.98;131.00;1.11;-172.49;-5.99;66.65 
9.701;-0.13;1.02;-0.42;-0.21;1.04;0.07;451.31;-545.14;135.00;1.11;-172.42;-6.00;66.60 
9.731;-0.10;1.02;-0.44;-0.49;1.25;0.00;452.30;-547.98;134.00;1.12;-172.35;-6.03;66.53 
9.761;-0.10;1.01;-0.46;-0.35;1.53;-0.21;453.29;-547.98;131.00;1.11;-172.29;-6.04;66.48 
9.792;-0.12;1.00;-0.44;0.07;-0.14;-1.11;449.32;-544.20;133.00;1.10;-172.24;-6.06;66.44 
9.822;-0.11;1.00;-0.44;0.21;2.23;-0.35;450.31;-547.04;135.00;1.10;-172.16;-6.07;66.37 
9.852;-0.11;1.01;-0.43;-0.07;0.56;-0.56;453.29;-545.14;133.00;1.10;-172.08;-6.11;66.29 
9.882;-0.09;1.01;-0.51;-0.21;1.53;-0.21;449.32;-545.14;131.00;1.14;-172.01;-6.13;66.22 
9.912;-0.10;1.01;-0.44;-0.42;1.04;-0.14;451.31;-547.04;137.00;1.11;-171.96;-6.12;66.17 
9.942;-0.11;1.02;-0.46;-0.42;1.32;-0.07;450.31;-544.20;132.00;1.12;-171.90;-6.14;66.10 
9.972;-0.12;1.02;-0.44;-0.35;1.46;-0.07;450.31;-546.09;133.00;1.12;-171.84;-6.14;66.05 
10.003;-0.13;1.02;-0.43;-0.35;1.60;0.07;451.31;-546.09;134.00;1.11;-171.81;-6.12;66.01 
10.033;-0.11;1.02;-0.42;-0.35;0.97;0.00;448.33;-547.04;131.00;1.11;-171.77;-6.10;65.95 
10.063;-0.11;1.01;-0.44;-0.28;1.88;0.21;449.32;-548.93;133.00;1.11;-171.73;-6.09;65.89 
10.094;-0.10;1.02;-0.41;-0.07;1.04;-0.14;450.31;-547.04;137.00;1.10;-171.69;-6.08;65.82 
10.124;-0.11;1.02;-0.43;-0.14;1.46;-0.35;454.28;-545.14;131.00;1.11;-171.64;-6.08;65.77 
10.154;-0.10;1.00;-0.48;-0.42;1.39;-0.56;446.35;-544.20;131.00;1.11;-171.60;-6.08;65.71 
10.184;-0.10;1.02;-0.44;-0.35;0.63;-0.63;453.29;-545.14;129.00;1.12;-171.55;-6.08;65.67 
10.215;-0.12;1.02;-0.41;-0.49;1.04;-0.70;450.31;-545.14;132.00;1.11;-171.49;-6.09;65.63 
10.245;-0.10;1.02;-0.46;-0.35;1.11;-0.97;452.30;-546.09;135.00;1.12;-171.43;-6.11;65.58 
10.275;-0.11;1.00;-0.44;-0.42;0.90;-0.97;453.29;-547.98;133.00;1.10;-171.36;-6.13;65.52 
10.306;-0.10;1.01;-0.42;-0.14;0.90;-0.90;449.32;-547.04;132.00;1.10;-171.29;-6.16;65.46 
10.336;-0.14;1.01;-0.39;-0.14;0.42;-0.83;450.31;-547.98;136.00;1.09;-171.22;-6.18;65.42 
10.366;-0.13;1.02;-0.46;-0.07;0.90;-0.49;453.29;-546.09;130.00;1.13;-171.15;-6.21;65.37 
10.396;-0.12;1.02;-0.42;0.00;1.88;0.07;453.29;-543.25;132.00;1.11;-171.09;-6.22;65.30 
10.426;-0.14;1.02;-0.45;0.07;1.60;0.07;451.31;-547.98;133.00;1.12;-171.05;-6.20;65.23 
10.456;-0.15;1.02;-0.42;1.04;3.97;0.90;452.30;-547.04;133.00;1.11;-170.99;-6.20;65.13 
10.486;-0.15;1.03;-0.45;1.81;5.70;1.88;451.31;-543.25;131.00;1.13;-170.99;-6.12;65.05 
10.517;-0.11;1.06;-0.41;3.13;7.44;6.12;450.31;-547.98;133.00;1.14;-171.04;-5.96;64.96 
