Time(s) acc_x(g) acc_y(g) acc_z(g) gyr_x(°/s) gyr_y(°/s) gyr_z(°/s) mag_x(G) mag_y(G) mag_z(G) SVM(g) yaw(°) pitch(°) roll(°)
0.000;-0.47;0.25;0.73;1.04;-0.56;-1.95;187.94;-369.87;-402.00;0.90;-161.90;-29.51;15.59 
0.030;-0.46;0.29;0.77;0.63;-0.97;-1.46;187.94;-367.97;-400.00;0.94;-161.79;-29.50;15.54 
0.060;-0.45;0.24;0.77;0.49;-0.77;-1.18;187.94;-370.82;-403.00;0.92;-161.72;-29.48;15.51 
0.090;-0.46;0.26;0.74;0.83;0.07;-1.11;187.94;-367.02;-401.00;0.91;-161.65;-29.46;15.50 
0.120;-0.47;0.26;0.78;1.18;-0.35;-0.35;188.93;-366.07;-405.00;0.95;-161.59;-29.46;15.50 
0.150;-0.46;0.26;0.76;1.04;-0.07;-0.49;186.95;-368.92;-400.00;0.93;-161.55;-29.44;15.50 
0.181;-0.46;0.26;0.75;1.04;-0.21;-0.83;185.97;-367.97;-402.00;0.92;-161.50;-29.39;15.50 
0.211;-0.45;0.26;0.74;0.07;0.14;-0.07;190.91;-366.07;-402.00;0.90;-161.46;-29.38;15.48 
0.240;-0.48;0.29;0.75;0.35;1.53;-0.77;190.91;-367.02;-404.00;0.94;-161.43;-29.39;15.47 
0.270;-0.46;0.26;0.77;0.00;0.70;-0.14;187.94;-368.92;-404.00;0.93;-161.38;-29.42;15.46 
0.299;-0.46;0.26;0.73;0.21;0.63;-0.14;190.91;-368.92;-402.00;0.90;-161.37;-29.42;15.46 
0.328;-0.48;0.26;0.74;0.07;0.56;0.14;186.95;-368.92;-401.00;0.92;-161.35;-29.42;15.45 
0.357;-0.47;0.24;0.75;-0.42;0.90;-0.35;189.92;-367.02;-407.00;0.92;-161.34;-29.43;15.43 
0.387;-0.51;0.25;0.77;-1.53;-0.90;-2.57;186.95;-370.82;-402.00;0.96;-161.28;-29.46;15.35 
0.417;-0.46;0.25;0.72;-1.60;1.95;-3.34;189.92;-367.97;-403.00;0.89;-161.20;-29.48;15.21 
0.447;-0.46;0.26;0.74;0.07;2.30;-1.46;186.95;-368.92;-403.00;0.91;-161.10;-29.57;15.16 
0.478;-0.50;0.25;0.77;-0.70;0.28;0.49;188.93;-367.97;-405.00;0.95;-161.07;-29.60;15.12 
0.508;-0.48;0.22;0.76;-0.77;-1.25;0.97;187.94;-366.07;-404.00;0.93;-161.09;-29.54;15.06 
0.538;-0.49;0.18;0.72;3.06;0.28;-0.70;189.92;-366.07;-404.00;0.89;-161.07;-29.52;15.03 
0.569;-0.48;0.24;0.82;3.06;3.55;-1.25;190.91;-369.87;-404.00;0.98;-160.95;-29.57;15.06 
0.599;-0.46;0.34;0.84;-0.07;-3.34;3.20;187.94;-366.07;-402.00;1.02;-160.91;-29.56;15.11 
0.629;-0.46;0.21;0.66;0.14;-2.23;11.62;189.92;-369.87;-404.00;0.83;-161.21;-29.32;15.23 
0.659;-0.48;0.14;0.68;6.82;10.92;-0.83;189.92;-368.92;-400.00;0.84;-161.29;-29.42;15.32 
0.690;-0.58;0.22;0.78;6.40;8.56;-14.54;192.89;-366.07;-401.00;1.00;-160.86;-29.91;15.25 
0.720;-0.51;0.27;0.76;3.48;-6.82;-16.35;197.84;-362.28;-401.00;0.95;-160.26;-30.10;15.07 
0.750;-0.42;0.35;0.74;1.46;-4.94;-9.25;193.88;-366.07;-403.00;0.92;-159.86;-29.98;14.95 
0.780;-0.40;0.34;0.76;1.81;-7.10;6.40;195.86;-367.97;-401.00;0.92;-159.81;-29.74;15.08 
0.810;-0.45;0.15;0.62;5.22;0.35;15.10;195.86;-370.82;-401.00;0.78;-160.22;-29.40;15.39 
0.839;-0.51;0.13;0.75;8.07;8.90;-0.97;197.84;-368.92;-401.00;0.92;-160.34;-29.47;15.55 
0.868;-0.55;0.22;0.79;5.01;-0.83;-10.85;199.81;-365.12;-400.00;0.99;-160.03;-29.69;15.51 
0.897;-0.54;0.22;0.72;5.57;-7.10;-14.75;198.82;-366.07;-400.00;0.93;-159.55;-29.72;15.35 
0.927;-0.53;0.15;0.68;6.19;-3.34;-14.96;205.75;-367.02;-401.00;0.88;-159.05;-29.78;15.18 
0.957;-0.57;0.17;0.76;13.50;0.77;-17.46;205.75;-366.07;-397.00;0.97;-158.38;-30.01;15.03 
0.987;-0.45;0.19;0.75;21.91;-14.19;-6.12;205.75;-366.07;-398.00;0.90;-157.74;-30.06;15.19 
1.017;-0.34;0.14;0.74;21.77;-27.34;8.63;211.68;-367.97;-399.00;0.83;-157.61;-29.41;15.69 
1.047;-0.34;0.03;0.73;24.77;-17.04;8.56;218.61;-374.61;-391.00;0.81;-157.77;-28.52;16.28 
1.078;-0.46;0.06;0.75;34.43;1.53;-0.97;225.53;-375.56;-395.00;0.88;-157.60;-28.21;16.90 
1.108;-0.51;0.10;0.74;34.85;2.99;-3.83;235.42;-378.40;-390.00;0.90;-157.10;-28.35;17.54 
1.138;-0.45;0.15;0.77;37.43;-0.28;-6.33;239.38;-379.35;-394.00;0.90;-156.49;-28.51;18.17 
1.168;-0.46;0.24;0.77;40.42;-5.43;3.83;249.27;-376.51;-389.00;0.93;-156.03;-28.46;19.02 
1.198;-0.45;0.17;0.68;39.17;-15.93;11.62;260.15;-379.35;-383.00;0.83;-155.83;-28.11;20.08 
1.228;-0.38;0.10;0.58;42.71;-15.51;17.81;266.09;-385.99;-378.00;0.70;-155.90;-27.52;21.12 
1.257;-0.38;0.00;0.53;51.41;-7.23;21.57;274.00;-390.73;-378.00;0.65;-156.05;-27.06;22.32 
1.287;-0.42;0.05;0.50;58.16;-0.83;15.58;283.89;-390.73;-373.00;0.65;-156.12;-26.73;23.89 
1.317;-0.38;0.13;0.51;60.10;-4.17;8.14;297.74;-398.32;-362.00;0.65;-155.87;-26.67;25.37 
1.347;-0.24;0.23;0.37;48.21;-25.67;4.31;308.62;-394.52;-360.00;0.50;-155.53;-26.34;26.69 
1.377;-0.06;0.20;0.18;45.15;-26.78;10.99;314.56;-402.11;-357.00;0.28;-155.57;-25.39;28.10 
1.407;-0.13;0.13;0.18;53.01;6.47;12.31;322.47;-407.80;-350.00;0.26;-155.84;-24.56;29.70 
1.437;-0.33;0.22;0.26;50.02;19.97;-2.57;330.38;-404.01;-340.00;0.47;-155.52;-24.99;31.05 
1.467;-0.15;0.45;0.26;36.45;26.85;11.20;339.29;-406.85;-339.00;0.54;-155.14;-25.58;32.30 
1.497;-0.21;0.53;0.50;30.75;41.53;43.55;349.18;-403.06;-339.00;0.76;-155.72;-25.79;33.95 
1.527;-0.32;0.23;0.50;18.71;15.86;68.87;350.17;-407.80;-334.00;0.64;-157.20;-25.41;35.50 
1.557;-0.26;0.15;0.26;15.86;6.68;58.99;352.15;-410.65;-334.00;0.40;-158.83;-24.55;36.60 
1.588;-0.16;0.28;0.22;38.05;30.82;51.69;348.19;-416.34;-333.00;0.39;-160.18;-23.99;38.10 
1.617;-0.22;0.33;0.49;60.17;32.90;60.87;358.08;-417.29;-329.00;0.63;-161.30;-23.64;40.13 
1.647;-0.40;0.54;0.55;60.94;-3.83;62.26;362.04;-422.98;-324.00;0.87;-162.56;-22.68;42.54 
1.678;-0.30;0.50;0.54;71.10;-28.94;68.10;374.90;-433.41;-320.00;0.79;-163.94;-20.97;45.22 
1.708;-0.36;0.39;0.46;73.04;-55.30;86.47;386.77;-458.07;-310.00;0.70;-165.79;-18.44;48.28 
1.738;-0.49;0.76;0.19;59.76;-65.39;86.26;394.68;-473.24;-298.00;0.92;-167.72;-15.57;51.10 
1.767;-0.36;2.23;0.56;118.40;-61.91;123.62;400.62;-492.21;-287.00;2.33;-170.05;-12.61;54.36 
1.797;0.92;3.10;1.31;149.01;-19.20;352.00;406.55;-502.64;-278.00;3.49;-176.43;-5.53;60.37 
1.827;0.35;4.38;-0.03;267.62;10.71;227.97;394.68;-578.51;-224.00;4.39;173.48;3.55;67.07 
1.857;1.47;2.50;-0.72;348.59;-127.58;228.31;400.62;-606.96;-176.00;2.99;168.39;9.63;73.87 
1.888;0.67;1.67;0.12;67.34;101.01;101.50;403.58;-625.93;-141.00;1.80;166.45;12.53;75.88 
1.918;-0.06;0.82;0.34;168.70;64.14;360.90;399.63;-632.57;-145.00;0.89;159.75;19.23;70.14 
1.948;0.30;0.86;0.11;160.63;-138.30;305.46;316.54;-700.85;-112.00;0.92;150.65;29.76;60.19 
1.978;0.34;0.07;-0.21;-3.97;-90.37;113.53;274.00;-721.71;-93.00;0.41;144.36;36.59;53.01 
2.008;0.52;0.94;-0.46;-89.81;-134.68;-70.19;269.06;-728.35;-75.00;1.17;143.82;36.92;52.36 
2.038;0.90;0.99;-0.65;-94.75;-136.90;-83.34;283.89;-726.46;-65.00;1.49;146.65;33.55;55.66 
2.068;1.29;0.50;-0.80;-47.37;-108.87;28.87;299.72;-722.66;-39.00;1.60;147.44;32.20;56.84 
2.099;0.78;0.60;-0.69;-34.57;1.46;64.63;285.87;-723.61;-32.00;1.20;145.60;33.79;55.29 
2.129;0.60;0.34;-0.46;18.50;-13.63;26.71;274.00;-725.51;-38.00;0.83;143.99;35.28;53.71 
2.159;0.58;0.29;-0.40;-6.61;-13.29;-33.25;271.03;-726.46;-33.00;0.76;143.69;35.49;53.33 
2.190;0.77;0.66;-0.58;-6.54;-26.64;-42.57;283.89;-726.46;-26.00;1.17;144.70;34.32;54.34 
2.220;0.86;0.62;-0.70;-3.48;8.97;-7.17;289.83;-722.66;-25.00;1.27;145.41;33.50;55.04 
2.250;0.72;0.80;-0.63;15.23;49.25;-20.87;290.82;-724.56;-27.00;1.25;145.61;33.44;55.12 
2.280;0.58;0.91;-0.36;27.20;69.01;-36.94;294.77;-721.71;-36.00;1.14;146.52;32.90;55.80 
2.311;0.58;0.86;-0.25;24.70;50.09;-32.70;305.66;-717.92;-50.00;1.07;147.61;32.15;56.60 
2.341;0.52;0.97;-0.16;-2.57;31.03;-56.97;316.54;-715.08;-57.00;1.11;149.04;30.96;57.91 
2.371;0.46;1.02;-0.15;-34.02;2.43;-69.63;324.45;-709.39;-60.00;1.13;151.04;29.04;60.00 
2.401;0.46;0.92;-0.24;-39.30;1.95;-64.77;340.28;-701.80;-69.00;1.06;153.14;26.95;62.38 
2.431;0.49;0.81;-0.20;-31.10;11.69;-42.71;354.12;-695.16;-74.00;0.97;154.73;25.34;64.19 
2.461;0.34;1.14;-0.19;-30.12;4.87;-38.89;361.05;-691.37;-79.00;1.20;155.98;24.09;65.58 
2.491;0.34;1.22;-0.19;-36.03;12.24;-51.83;366.98;-687.57;-85.00;1.28;157.45;22.63;67.19 
2.521;0.38;1.14;-0.10;-15.79;3.97;-41.60;368.96;-683.78;-89.00;1.21;159.07;21.00;68.90 
2.551;0.42;1.05;-0.03;-10.57;-5.50;-11.41;379.84;-677.14;-93.00;1.13;160.00;20.08;69.86 
2.581;0.38;0.91;-0.06;-19.76;-1.88;-5.77;382.81;-679.99;-95.00;0.99;160.23;19.84;70.13 
2.612;0.23;0.99;-0.14;-14.33;-0.83;-12.87;382.81;-673.35;-95.00;1.03;160.69;19.38;70.61 
2.642;0.30;1.12;-0.10;-5.29;2.92;-10.37;384.79;-674.30;-95.00;1.16;161.27;18.79;71.20 
2.671;0.43;0.98;0.00;13.50;2.30;8.14;383.80;-673.35;-98.00;1.07;161.37;18.69;71.30 
2.700;0.40;0.96;-0.10;3.13;2.50;7.93;384.79;-675.24;-95.00;1.04;161.07;19.00;70.99 
2.730;0.34;1.04;-0.17;5.98;3.06;5.50;383.80;-672.40;-97.00;1.11;160.92;19.15;70.84 
2.760;0.38;1.02;-0.11;10.78;5.08;8.35;380.83;-676.19;-94.00;1.09;160.82;19.26;70.71 
2.789;0.39;1.01;-0.13;7.17;5.15;12.52;379.84;-676.19;-94.00;1.09;160.55;19.53;70.43 
2.818;0.39;0.99;-0.16;6.40;6.33;10.09;379.84;-680.93;-99.00;1.08;160.24;19.85;70.09 
2.848;0.40;1.01;-0.14;5.36;5.01;5.77;378.85;-679.04;-94.00;1.10;160.02;20.08;69.85 
2.878;0.44;0.98;-0.14;2.43;2.99;3.48;374.90;-679.99;-96.00;1.08;159.87;20.24;69.68 
2.909;0.39;0.95;-0.17;0.42;1.74;-0.14;376.88;-679.04;-92.00;1.04;159.78;20.33;69.58 
2.939;0.41;0.96;-0.14;-0.56;1.46;-4.66;374.90;-678.09;-98.00;1.05;159.85;20.27;69.65 
2.969;0.39;0.98;-0.18;-2.99;-1.39;-4.38;377.87;-679.04;-94.00;1.07;159.99;20.12;69.79 
3.000;0.38;1.02;-0.15;-2.92;-2.16;-4.38;378.85;-676.19;-95.00;1.10;160.16;19.95;69.96 
3.030;0.42;0.99;-0.16;-1.32;-1.04;-3.55;377.87;-679.04;-91.00;1.09;160.31;19.81;70.11 
3.060;0.38;0.99;-0.14;-1.46;-0.28;-1.32;379.84;-677.14;-94.00;1.07;160.40;19.71;70.20 
3.090;0.39;1.01;-0.13;-0.77;-0.70;1.04;379.84;-677.14;-96.00;1.09;160.42;19.70;70.22 
3.120;0.41;0.98;-0.16;0.14;-0.63;1.32;379.84;-677.14;-96.00;1.07;160.38;19.74;70.18 
3.150;0.39;0.98;-0.18;0.77;0.83;1.88;379.84;-678.09;-97.00;1.07;160.36;19.76;70.15 
3.180;0.42;0.98;-0.16;0.49;1.60;1.60;379.84;-674.30;-94.00;1.08;160.33;19.80;70.11 
3.211;0.40;0.99;-0.14;0.35;1.53;0.56;376.88;-677.14;-93.00;1.08;160.31;19.82;70.08 
3.241;0.42;0.97;-0.16;-0.28;0.35;-0.56;378.85;-675.24;-96.00;1.07;160.34;19.79;70.11 
3.271;0.41;0.99;-0.14;-0.56;0.35;-1.25;378.85;-677.14;-95.00;1.08;160.37;19.77;70.13 
3.301;0.42;0.98;-0.14;-0.63;0.49;-0.90;383.80;-676.19;-93.00;1.08;160.43;19.70;70.19 
3.331;0.40;1.00;-0.14;-0.42;-0.21;-0.90;379.84;-677.14;-94.00;1.09;160.47;19.67;70.23 
3.361;0.39;0.99;-0.18;-0.77;-1.11;-0.83;379.84;-677.14;-97.00;1.08;160.50;19.64;70.25 
3.391;0.38;1.00;-0.14;0.21;-0.90;-0.83;378.85;-677.14;-97.00;1.08;160.52;19.62;70.27 
3.422;0.42;1.00;-0.17;-0.42;-1.46;-0.49;378.85;-676.19;-96.00;1.10;160.56;19.58;70.30 
3.452;0.42;0.98;-0.18;-0.14;-0.28;-0.83;379.84;-679.99;-94.00;1.08;160.59;19.56;70.32 
3.482;0.39;0.99;-0.13;0.07;0.07;-0.63;380.83;-675.24;-94.00;1.07;160.63;19.52;70.35 
3.513;0.40;1.02;-0.15;-0.28;-0.42;-0.63;380.83;-674.30;-97.00;1.11;160.65;19.50;70.37 
3.543;0.41;1.02;-0.14;0.00;-0.42;-0.63;382.81;-679.99;-92.00;1.11;160.68;19.47;70.40 
3.573;0.38;0.99;-0.15;-0.28;-0.21;-0.83;382.81;-677.14;-99.00;1.07;160.72;19.44;70.43 
3.603;0.41;1.02;-0.14;-0.70;0.00;-0.56;378.85;-677.14;-95.00;1.11;160.74;19.42;70.45 
3.634;0.39;0.99;-0.14;-0.07;0.35;-0.42;380.83;-677.14;-90.00;1.07;160.76;19.40;70.46 
3.664;0.44;1.02;-0.10;-0.56;-0.49;-0.56;379.84;-678.09;-93.00;1.12;160.79;19.37;70.49 
3.694;0.40;1.00;-0.14;-0.28;-0.49;-0.35;378.85;-676.19;-96.00;1.09;160.81;19.35;70.50 
3.725;0.38;1.00;-0.14;-0.07;-0.56;-0.77;380.83;-677.14;-95.00;1.08;160.83;19.33;70.52 
3.755;0.40;0.98;-0.18;0.21;-0.70;-1.18;381.82;-679.04;-93.00;1.07;160.87;19.30;70.55 
3.785;0.39;1.01;-0.15;0.42;-0.35;-1.11;381.82;-676.19;-92.00;1.09;160.90;19.27;70.57 
3.815;0.41;0.99;-0.14;-0.14;-0.49;-1.25;384.79;-677.14;-95.00;1.08;160.96;19.22;70.61 
3.845;0.41;1.01;-0.14;0.14;-0.14;-1.25;382.81;-674.30;-95.00;1.10;161.00;19.18;70.65 
3.875;0.38;0.98;-0.15;-0.14;0.28;-0.70;383.80;-677.14;-91.00;1.06;161.06;19.13;70.70 
3.905;0.41;0.98;-0.15;0.00;0.14;-1.11;383.80;-677.14;-91.00;1.07;161.09;19.10;70.72 
3.936;0.38;0.99;-0.14;-0.21;-0.21;-0.70;380.83;-675.24;-92.00;1.07;161.12;19.07;70.75 
3.966;0.38;1.01;-0.15;0.00;0.56;-0.14;382.81;-676.19;-92.00;1.09;161.14;19.06;70.75 
3.996;0.40;0.98;-0.16;0.56;0.77;-0.28;384.79;-674.30;-93.00;1.07;161.15;19.05;70.75 
4.026;0.38;1.02;-0.15;-0.21;0.49;0.56;385.78;-677.14;-94.00;1.10;161.16;19.04;70.76 
4.056;0.38;1.00;-0.16;-0.28;0.70;0.56;381.82;-674.30;-93.00;1.08;161.18;19.03;70.77 
4.086;0.40;1.00;-0.14;0.21;0.56;0.14;381.82;-675.24;-96.00;1.09;161.16;19.05;70.74 
4.116;0.39;0.99;-0.16;-0.49;0.21;0.70;380.83;-676.19;-97.00;1.08;161.16;19.06;70.73 
4.147;0.38;0.98;-0.15;0.07;0.97;0.35;380.83;-675.24;-94.00;1.06;161.15;19.07;70.72 
4.177;0.40;0.98;-0.15;-0.49;0.63;0.49;383.80;-676.19;-95.00;1.07;161.16;19.07;70.71 
4.207;0.41;0.98;-0.16;-0.14;1.04;0.49;379.84;-678.09;-94.00;1.07;161.15;19.08;70.69 
4.238;0.41;0.98;-0.16;-0.35;1.11;0.14;383.80;-677.14;-96.00;1.07;161.14;19.10;70.67 
4.268;0.38;1.00;-0.14;-0.07;0.97;0.56;384.79;-675.24;-94.00;1.08;161.12;19.13;70.64 
4.298;0.39;0.97;-0.17;-0.35;0.56;0.90;381.82;-675.24;-98.00;1.06;161.10;19.15;70.62 
4.328;0.40;1.01;-0.15;-0.28;0.70;0.42;383.80;-674.30;-94.00;1.10;161.09;19.16;70.60 
4.359;0.40;1.00;-0.17;-0.28;1.04;0.70;380.83;-675.24;-94.00;1.09;161.07;19.19;70.58 
4.389;0.41;0.99;-0.17;0.07;0.83;0.28;379.84;-678.09;-95.00;1.08;161.07;19.20;70.57 
4.419;0.39;0.99;-0.15;-0.14;0.42;-0.14;381.82;-676.19;-93.00;1.07;161.07;19.20;70.56 
4.450;0.39;0.99;-0.15;0.00;0.63;0.21;380.83;-676.19;-97.00;1.07;161.07;19.20;70.55 
4.480;0.40;1.01;-0.15;-0.21;0.56;-0.28;380.83;-676.19;-96.00;1.10;161.08;19.20;70.55 
4.510;0.38;1.01;-0.14;-0.07;0.56;-0.21;381.82;-679.04;-94.00;1.09;161.09;19.20;70.55 
4.540;0.40;0.98;-0.14;0.07;0.35;-0.07;379.84;-679.99;-98.00;1.07;161.10;19.20;70.55 
4.570;0.40;0.98;-0.16;0.14;0.63;-0.42;382.81;-677.14;-96.00;1.07;161.12;19.17;70.57 
4.600;0.39;1.01;-0.14;0.07;0.63;-0.70;380.83;-679.04;-96.00;1.09;161.15;19.16;70.58 
4.630;0.37;0.98;-0.17;0.07;0.49;0.00;382.81;-674.30;-97.00;1.06;161.16;19.15;70.58 
4.661;0.40;0.98;-0.14;-0.14;0.21;0.14;380.83;-677.14;-94.00;1.07;161.17;19.15;70.57 
4.691;0.40;0.99;-0.16;-0.07;0.14;-0.35;384.79;-677.14;-92.00;1.08;161.17;19.16;70.56 
4.720;0.41;1.00;-0.16;-0.56;0.00;0.21;381.82;-675.24;-97.00;1.09;161.19;19.14;70.57 
4.749;0.38;0.99;-0.18;0.00;0.42;0.21;380.83;-677.14;-92.00;1.08;161.19;19.14;70.57 
4.778;0.40;0.98;-0.18;-0.28;0.28;-0.07;382.81;-678.09;-97.00;1.07;161.20;19.14;70.56 
4.808;0.42;1.00;-0.14;-0.63;0.56;0.49;382.81;-679.04;-94.00;1.09;161.17;19.17;70.53 
4.838;0.40;0.97;-0.13;-0.07;0.49;0.28;384.79;-676.19;-93.00;1.06;161.18;19.17;70.53 
4.868;0.38;1.00;-0.13;-0.56;0.49;0.00;383.80;-676.19;-94.00;1.08;161.18;19.18;70.52 
4.897;0.40;0.99;-0.14;-0.07;0.21;0.14;380.83;-675.24;-96.00;1.08;161.18;19.18;70.51 
4.927;0.38;0.99;-0.14;0.07;0.56;0.21;382.81;-676.19;-94.00;1.07;161.18;19.18;70.51 
4.958;0.41;1.00;-0.17;-0.21;0.56;0.35;381.82;-677.14;-95.00;1.09;161.19;19.18;70.50 
4.988;0.42;0.99;-0.15;0.14;0.56;-0.14;383.80;-678.09;-96.00;1.09;161.19;19.19;70.49 
5.018;0.38;0.98;-0.14;-0.28;0.14;-0.83;382.81;-676.19;-95.00;1.06;161.19;19.19;70.48 
5.049;0.40;1.00;-0.14;-0.14;0.70;-0.90;384.79;-677.14;-91.00;1.09;161.23;19.17;70.50 
5.079;0.39;0.98;-0.15;-0.21;0.97;-0.83;381.82;-674.30;-95.00;1.07;161.26;19.14;70.52 
5.109;0.39;0.99;-0.13;-0.07;0.14;-0.83;381.82;-676.19;-94.00;1.07;161.28;19.12;70.53 
5.139;0.39;0.98;-0.13;-0.49;-0.07;-0.28;382.81;-678.09;-95.00;1.06;161.27;19.13;70.53 
5.170;0.38;0.97;-0.14;0.28;0.77;-0.77;379.84;-679.04;-94.00;1.05;161.29;19.12;70.54 
5.200;0.40;0.99;-0.14;0.21;0.07;-0.83;382.81;-675.24;-100.00;1.08;161.31;19.11;70.54 
5.230;0.42;0.98;-0.16;0.07;-0.42;-0.63;381.82;-676.19;-97.00;1.08;161.34;19.09;70.55 
5.261;0.40;1.01;-0.15;0.35;0.00;-1.11;380.83;-676.19;-93.00;1.10;161.36;19.08;70.56 
5.291;0.40;0.99;-0.14;0.35;-0.21;-0.63;384.79;-678.09;-96.00;1.08;161.38;19.06;70.56 
5.321;0.41;0.99;-0.14;0.00;-0.28;-0.70;385.78;-675.24;-93.00;1.08;161.41;19.04;70.57 
5.350;0.36;1.02;-0.15;0.07;-0.28;-1.32;384.79;-675.24;-95.00;1.09;161.46;19.00;70.61 
5.379;0.40;1.03;-0.12;0.21;0.35;-1.11;384.79;-675.24;-96.00;1.11;161.51;18.96;70.63 
5.409;0.38;0.99;-0.18;-0.35;-0.28;-0.42;385.78;-676.19;-92.00;1.08;161.55;18.93;70.66 
5.439;0.38;0.98;-0.17;0.14;-0.07;-0.42;382.81;-674.30;-92.00;1.06;161.56;18.92;70.66 
5.470;0.39;0.99;-0.14;-0.56;-0.42;-0.49;383.80;-674.30;-95.00;1.07;161.58;18.91;70.67 
5.500;0.41;0.98;-0.14;-0.70;-0.49;-0.56;380.83;-679.04;-95.00;1.07;161.60;18.89;70.68 
5.530;0.39;1.01;-0.11;-0.63;-0.14;-0.63;381.82;-676.19;-93.00;1.09;161.62;18.88;70.70 
5.561;0.38;1.00;-0.13;-0.42;-0.21;-0.56;383.80;-674.30;-95.00;1.08;161.64;18.86;70.72 
5.591;0.38;1.00;-0.18;-0.49;-0.28;-0.14;380.83;-670.50;-97.00;1.08;161.65;18.85;70.71 
5.621;0.37;1.01;-0.14;-0.21;-0.21;-1.04;381.82;-678.09;-92.00;1.08;161.67;18.84;70.72 
5.651;0.39;0.99;-0.13;-0.35;0.07;-1.04;388.75;-677.14;-92.00;1.07;161.72;18.80;70.75 
5.682;0.38;1.00;-0.13;0.00;0.21;-0.42;384.79;-675.24;-93.00;1.08;161.73;18.79;70.75 
5.712;0.39;0.98;-0.16;-0.21;-0.14;-0.28;382.81;-675.24;-94.00;1.07;161.74;18.79;70.75 
5.741;0.40;1.00;-0.15;0.00;-0.07;-0.28;386.77;-676.19;-94.00;1.09;161.77;18.76;70.78 
5.771;0.39;0.99;-0.15;0.21;0.28;-0.35;385.78;-676.19;-92.00;1.07;161.79;18.76;70.77 
5.800;0.38;1.00;-0.17;0.14;-0.14;-0.49;387.76;-676.19;-96.00;1.08;161.82;18.73;70.79 
5.830;0.39;0.98;-0.14;-0.28;0.21;-0.49;385.78;-675.24;-94.00;1.06;161.83;18.72;70.79 
5.860;0.40;0.99;-0.15;0.00;0.14;-0.28;385.78;-675.24;-94.00;1.08;161.85;18.72;70.78 
5.889;0.36;1.00;-0.14;0.21;-0.14;-0.83;385.78;-678.09;-94.00;1.07;161.88;18.70;70.79 
5.918;0.40;0.99;-0.18;-0.14;0.00;-0.63;384.79;-673.35;-92.00;1.08;161.89;18.69;70.79 
5.948;0.38;0.99;-0.15;0.07;0.35;-0.42;387.76;-672.40;-92.00;1.07;161.92;18.68;70.80 
5.978;0.37;1.02;-0.16;-0.28;0.56;-0.21;384.79;-674.30;-93.00;1.10;161.94;18.67;70.80 
6.008;0.38;1.01;-0.15;-0.21;0.56;0.28;382.81;-677.14;-95.00;1.09;161.95;18.67;70.80 
6.038;0.38;1.02;-0.14;-0.14;0.70;0.83;382.81;-674.30;-95.00;1.10;161.94;18.68;70.78 
6.069;0.38;1.00;-0.17;-0.07;0.70;0.00;386.77;-676.19;-94.00;1.08;161.92;18.71;70.74 
6.099;0.38;1.00;-0.14;0.00;0.77;0.42;382.81;-674.30;-93.00;1.08;161.93;18.71;70.73 
6.129;0.40;0.99;-0.17;-0.14;1.18;0.70;383.80;-675.24;-93.00;1.08;161.91;18.74;70.70 
6.159;0.40;1.02;-0.18;-0.28;0.28;0.63;387.76;-674.30;-95.00;1.11;161.89;18.77;70.67 
6.189;0.38;0.98;-0.13;-0.49;0.56;0.28;386.77;-673.35;-93.00;1.06;161.88;18.78;70.64 
6.219;0.40;0.99;-0.14;-0.28;0.63;0.00;384.79;-674.30;-93.00;1.08;161.87;18.80;70.62 
6.249;0.39;1.02;-0.16;-0.21;0.56;0.28;384.79;-673.35;-93.00;1.10;161.89;18.80;70.61 
6.280;0.38;1.00;-0.17;-0.35;0.49;0.35;383.80;-676.19;-91.00;1.08;161.89;18.80;70.61 
6.310;0.41;0.99;-0.14;-0.35;0.49;0.21;385.78;-675.24;-97.00;1.08;161.89;18.81;70.58 
6.340;0.40;1.01;-0.12;0.21;0.77;-0.07;384.79;-675.24;-96.00;1.09;161.89;18.83;70.56 
6.371;0.38;1.01;-0.14;-0.28;-0.21;-0.14;382.81;-673.35;-94.00;1.09;161.88;18.84;70.55 
6.401;0.39;1.01;-0.16;-0.49;0.21;0.35;382.81;-675.24;-94.00;1.09;161.87;18.86;70.52 
6.431;0.38;0.99;-0.16;0.42;1.60;-0.42;385.78;-676.19;-91.00;1.07;161.87;18.87;70.51 
6.461;0.39;0.98;-0.15;0.14;1.11;0.21;386.77;-672.40;-95.00;1.07;161.89;18.86;70.51 
6.491;0.40;1.00;-0.11;0.28;1.25;-0.14;387.76;-675.24;-92.00;1.08;161.88;18.88;70.49 
6.521;0.37;1.02;-0.14;0.28;0.63;-0.14;383.80;-677.14;-94.00;1.09;161.90;18.87;70.49 
6.551;0.39;0.99;-0.16;-0.35;-0.28;1.04;383.80;-674.30;-93.00;1.08;161.89;18.90;70.46 
6.582;0.38;0.98;-0.14;-0.56;0.35;0.42;383.80;-672.40;-93.00;1.06;161.85;18.94;70.41 
6.612;0.38;1.01;-0.14;-0.63;0.90;0.07;385.78;-674.30;-94.00;1.09;161.85;18.94;70.40 
6.642;0.38;1.02;-0.14;-0.77;1.04;0.07;384.79;-676.19;-97.00;1.10;161.85;18.95;70.39 
6.672;0.38;1.01;-0.17;-0.42;0.35;0.21;388.75;-675.24;-93.00;1.09;161.84;18.98;70.36 
6.702;0.38;1.02;-0.16;0.21;0.63;-0.21;382.81;-676.19;-94.00;1.10;161.83;19.00;70.34 
6.732;0.42;0.98;-0.15;-0.35;0.42;0.14;382.81;-675.24;-96.00;1.08;161.82;19.01;70.32 
6.762;0.35;1.00;-0.14;0.28;0.49;-0.63;383.80;-676.19;-94.00;1.07;161.82;19.02;70.30 
6.793;0.38;1.00;-0.15;0.35;1.18;-0.77;381.82;-674.30;-95.00;1.08;161.84;19.02;70.30 
6.823;0.41;0.99;-0.14;0.35;0.56;-0.21;387.76;-672.40;-96.00;1.08;161.85;19.02;70.29 
6.852;0.40;1.00;-0.18;0.70;0.56;-0.70;385.78;-677.14;-93.00;1.09;161.86;19.02;70.28 
6.882;0.38;1.02;-0.14;0.63;1.04;-0.35;387.76;-676.19;-96.00;1.10;161.89;19.01;70.28 
6.911;0.38;1.00;-0.16;0.63;0.77;-0.42;384.79;-676.19;-95.00;1.08;161.90;19.01;70.26 
6.940;0.37;1.02;-0.16;-0.14;0.35;0.35;382.81;-676.19;-93.00;1.10;161.91;19.01;70.25 
6.969;0.39;1.01;-0.17;-0.56;0.07;0.42;387.76;-675.24;-95.00;1.10;161.92;19.01;70.24 
6.998;0.37;1.00;-0.17;-0.83;0.07;0.70;388.75;-676.19;-92.00;1.08;161.91;19.03;70.22 
7.028;0.38;1.00;-0.16;-1.39;0.14;0.35;384.79;-678.09;-95.00;1.08;161.88;19.06;70.18 
7.058;0.39;0.99;-0.12;-1.04;0.49;0.14;383.80;-674.30;-94.00;1.07;161.86;19.09;70.17 
7.088;0.39;0.98;-0.16;-0.70;0.42;0.07;386.77;-675.24;-93.00;1.07;161.87;19.08;70.17 
7.118;0.38;0.98;-0.15;-0.28;0.49;0.14;385.78;-677.14;-92.00;1.06;161.87;19.09;70.16 
7.148;0.40;1.02;-0.16;-0.07;0.49;-0.35;381.82;-673.35;-94.00;1.11;161.87;19.10;70.15 
7.179;0.38;1.01;-0.14;0.49;0.14;-0.28;383.80;-677.14;-97.00;1.09;161.87;19.12;70.12 
7.209;0.38;1.00;-0.16;0.49;0.63;-0.14;383.80;-674.30;-92.00;1.08;161.87;19.12;70.10 
7.239;0.38;1.02;-0.16;0.42;0.56;0.07;384.79;-672.40;-92.00;1.10;161.88;19.13;70.09 
7.269;0.38;1.00;-0.15;0.07;0.28;0.00;383.80;-677.14;-93.00;1.08;161.89;19.14;70.07 
7.299;0.40;0.95;-0.14;0.07;0.35;-0.21;385.78;-674.30;-95.00;1.04;161.90;19.13;70.07 
7.329;0.39;1.01;-0.15;-0.49;-0.07;0.28;384.79;-675.24;-95.00;1.09;161.91;19.13;70.06 
7.359;0.38;0.98;-0.14;-0.21;0.07;0.07;387.76;-675.24;-94.00;1.06;161.90;19.15;70.05 
7.390;0.40;0.98;-0.14;-0.42;0.35;-0.28;384.79;-677.14;-93.00;1.07;161.91;19.15;70.05 
7.420;0.40;0.99;-0.18;-0.42;0.21;0.07;386.77;-677.14;-94.00;1.08;161.89;19.18;70.00 
7.450;0.40;1.00;-0.14;-0.42;0.28;-0.14;383.80;-673.35;-94.00;1.09;161.89;19.19;69.99 
7.481;0.38;1.00;-0.19;0.14;0.56;0.00;387.76;-677.14;-96.00;1.09;161.88;19.21;69.97 
7.511;0.40;0.99;-0.16;-0.28;-0.21;-0.28;385.78;-673.35;-96.00;1.08;161.90;19.20;69.96 
7.541;0.40;0.99;-0.18;-0.49;0.07;-0.14;384.79;-672.40;-95.00;1.08;161.88;19.22;69.94 
7.570;0.38;1.01;-0.14;-0.21;0.70;0.07;382.81;-675.24;-96.00;1.09;161.89;19.23;69.93 
7.599;0.38;1.00;-0.12;-0.07;0.56;0.21;385.78;-674.30;-97.00;1.08;161.88;19.25;69.90 
7.628;0.38;0.99;-0.14;-0.35;-0.28;-0.42;383.80;-676.19;-94.00;1.07;161.88;19.26;69.88 
7.657;0.39;0.98;-0.14;0.14;-0.07;-0.35;387.76;-673.35;-93.00;1.06;161.89;19.26;69.88 
7.688;0.36;0.97;-0.21;0.14;0.07;-0.56;384.79;-674.30;-93.00;1.06;161.91;19.26;69.87 
7.717;0.38;0.98;-0.15;0.00;0.28;-0.56;387.76;-676.19;-94.00;1.06;161.93;19.25;69.86 
7.747;0.41;1.02;-0.12;0.00;-0.14;-0.35;384.79;-673.35;-97.00;1.11;161.95;19.25;69.86 
7.778;0.38;1.02;-0.13;-0.14;-0.77;-0.42;383.80;-674.30;-96.00;1.10;161.97;19.23;69.86 
7.808;0.39;0.99;-0.17;-0.07;-0.14;-0.56;386.77;-675.24;-95.00;1.08;162.00;19.21;69.87 
7.838;0.40;1.00;-0.16;0.00;0.00;-0.49;387.76;-676.19;-91.00;1.09;162.02;19.20;69.87 
7.868;0.38;1.00;-0.17;0.07;-0.07;-0.35;382.81;-674.30;-91.00;1.08;162.04;19.20;69.86 
7.898;0.38;1.00;-0.15;-0.28;-0.42;-0.35;385.78;-672.40;-92.00;1.08;162.07;19.18;69.87 
7.928;0.36;0.99;-0.17;0.00;0.00;-0.35;386.77;-676.19;-92.00;1.07;162.09;19.18;69.86 
7.958;0.36;1.00;-0.17;-0.14;-0.14;-0.14;385.78;-675.24;-93.00;1.08;162.10;19.17;69.85 
7.989;0.38;1.00;-0.14;-0.35;-0.21;-0.35;387.76;-675.24;-93.00;1.08;162.11;19.17;69.85 
8.019;0.39;1.00;-0.14;-0.42;-0.28;-0.49;385.78;-674.30;-92.00;1.08;162.13;19.17;69.85 
8.049;0.38;1.00;-0.14;-0.28;-0.14;-0.28;384.79;-674.30;-93.00;1.08;162.13;19.17;69.83 
8.079;0.38;1.02;-0.14;-0.28;-0.21;-0.21;386.77;-674.30;-96.00;1.10;162.13;19.19;69.81 
8.109;0.38;1.01;-0.16;0.00;0.35;-0.42;385.78;-672.40;-89.00;1.09;162.15;19.17;69.81 
8.139;0.35;1.00;-0.13;-0.28;-0.28;-0.77;387.76;-674.30;-90.00;1.07;162.17;19.16;69.83 
8.169;0.37;0.99;-0.15;-0.42;-0.63;-0.77;389.74;-674.30;-90.00;1.07;162.21;19.14;69.83 
8.200;0.38;0.99;-0.19;0.00;-0.49;-0.63;387.76;-672.40;-92.00;1.08;162.23;19.13;69.83 
8.230;0.38;1.02;-0.22;-0.07;0.07;-0.35;386.77;-678.09;-89.00;1.11;162.24;19.13;69.81 
8.260;0.41;1.01;-0.15;-0.28;0.42;-0.35;389.74;-676.19;-90.00;1.10;162.25;19.13;69.81 
8.290;0.38;1.00;-0.14;-0.14;-0.14;-0.83;387.76;-671.45;-93.00;1.08;162.28;19.12;69.82 
8.319;0.38;1.00;-0.14;0.35;0.28;0.00;387.76;-672.40;-91.00;1.08;162.29;19.11;69.82 
8.349;0.38;0.98;-0.18;0.42;1.18;-0.35;386.77;-671.45;-94.00;1.07;162.28;19.14;69.78 
8.379;0.38;0.99;-0.17;-0.07;0.42;0.28;387.76;-671.45;-93.00;1.07;162.29;19.14;69.76 
8.409;0.37;1.02;-0.17;-0.49;0.28;0.21;386.77;-675.24;-91.00;1.10;162.30;19.14;69.75 
8.439;0.38;1.01;-0.19;-0.07;1.18;0.21;389.74;-675.24;-89.00;1.10;162.31;19.14;69.75 
8.469;0.39;1.00;-0.16;-0.21;1.04;0.56;386.77;-674.30;-93.00;1.09;162.30;19.17;69.72 
8.500;0.37;1.01;-0.14;-0.63;0.83;0.83;387.76;-677.14;-92.00;1.08;162.25;19.23;69.67 
8.530;0.39;0.99;-0.18;-0.14;1.25;0.42;387.76;-675.24;-93.00;1.08;162.24;19.25;69.64 
8.560;0.39;0.98;-0.17;-0.21;0.90;0.14;384.79;-672.40;-93.00;1.07;162.22;19.29;69.60 
8.590;0.37;1.01;-0.16;-0.28;0.83;0.42;387.76;-675.24;-91.00;1.09;162.18;19.33;69.56 
8.620;0.39;1.00;-0.18;-0.49;0.70;0.35;388.75;-674.30;-92.00;1.09;162.19;19.34;69.54 
8.650;0.40;0.98;-0.18;-0.56;1.18;0.28;386.77;-674.30;-94.00;1.07;162.15;19.38;69.51 
8.680;0.38;0.98;-0.15;0.00;1.11;0.07;385.78;-676.19;-92.00;1.06;162.14;19.40;69.48 
8.711;0.38;0.98;-0.15;-0.28;0.28;-0.28;384.79;-674.30;-94.00;1.06;162.14;19.41;69.47 
8.741;0.38;1.00;-0.14;-0.14;0.21;0.14;390.72;-672.40;-91.00;1.08;162.15;19.42;69.44 
8.771;0.37;1.02;-0.18;0.14;0.90;-0.14;385.78;-674.30;-90.00;1.10;162.13;19.46;69.41 
8.802;0.39;0.99;-0.16;0.00;0.90;0.49;384.79;-673.35;-97.00;1.08;162.12;19.47;69.38 
8.832;0.38;0.99;-0.16;0.00;0.35;-0.14;386.77;-672.40;-95.00;1.07;162.12;19.49;69.36 
8.862;0.38;0.99;-0.16;-0.28;0.07;0.14;389.74;-671.45;-94.00;1.07;162.13;19.50;69.34 
8.892;0.39;1.01;-0.16;0.07;1.04;0.07;388.75;-674.30;-93.00;1.09;162.11;19.53;69.31 
8.922;0.38;0.98;-0.15;-0.07;0.97;0.14;385.78;-675.24;-92.00;1.06;162.11;19.54;69.29 
8.952;0.39;1.01;-0.14;-0.07;0.07;0.14;386.77;-674.30;-95.00;1.09;162.10;19.56;69.27 
8.982;0.41;0.98;-0.15;-0.28;0.21;-0.14;385.78;-673.35;-92.00;1.07;162.11;19.57;69.25 
9.013;0.37;1.01;-0.18;-0.07;0.49;0.14;384.79;-675.24;-92.00;1.09;162.09;19.60;69.21 
9.042;0.38;1.00;-0.16;0.00;0.97;0.21;385.78;-674.30;-94.00;1.08;162.07;19.63;69.17 
9.071;0.38;1.01;-0.15;-0.28;0.63;0.14;387.76;-673.35;-95.00;1.09;162.07;19.65;69.14 
9.100;0.38;1.00;-0.16;-0.14;0.35;0.42;384.79;-677.14;-95.00;1.08;162.05;19.68;69.11 
9.129;0.38;1.00;-0.16;-0.56;0.07;0.28;387.76;-674.30;-93.00;1.08;162.03;19.71;69.09 
9.158;0.36;1.01;-0.15;-2.37;-1.67;0.49;388.75;-674.30;-92.00;1.08;162.05;19.70;69.09 
9.188;0.39;0.99;-0.14;-1.53;-1.46;-0.21;384.79;-675.24;-94.00;1.07;162.05;19.70;69.08 
9.218;0.41;0.97;-0.15;-1.25;-1.04;-0.14;386.77;-674.30;-92.00;1.06;162.06;19.69;69.08 
9.248;0.38;0.94;-0.14;0.63;0.14;-1.74;385.78;-675.24;-92.00;1.02;162.07;19.69;69.07 
9.278;0.41;0.98;-0.10;1.74;3.20;-2.43;381.82;-672.40;-97.00;1.07;162.15;19.64;69.10 
9.309;0.33;1.04;-0.16;-5.01;2.92;-0.90;386.77;-677.14;-93.00;1.10;162.21;19.59;69.16 
9.339;0.37;1.03;-0.18;-9.04;0.42;-1.39;386.77;-676.19;-98.00;1.11;162.20;19.56;69.25 
9.369;0.37;1.05;-0.18;-10.43;3.20;-4.17;388.75;-674.30;-97.00;1.13;162.23;19.48;69.42 
9.400;0.38;1.06;-0.12;-11.62;5.29;0.70;386.77;-672.40;-98.00;1.13;162.21;19.43;69.56 
9.430;0.38;1.02;-0.14;-17.88;-1.39;0.83;387.76;-673.35;-102.00;1.10;162.05;19.50;69.62 
9.460;0.42;1.03;-0.20;-19.13;-0.42;-8.21;388.75;-673.35;-107.00;1.13;162.04;19.39;69.85 
9.490;0.43;1.01;-0.14;-13.29;8.83;-11.69;389.74;-668.61;-105.00;1.11;162.20;19.13;70.20 
9.520;0.34;0.99;-0.04;-17.18;7.51;-8.83;389.74;-666.71;-108.00;1.05;162.34;18.89;70.57 
9.550;0.36;1.05;-0.12;-24.97;-2.99;-9.67;391.71;-669.55;-115.00;1.12;162.47;18.61;70.96 
9.580;0.38;1.04;-0.14;-28.24;-0.21;-9.67;392.70;-665.76;-114.00;1.12;162.59;18.30;71.40 
9.610;0.37;1.04;-0.12;-19.13;9.39;-6.61;390.72;-664.81;-119.00;1.11;162.69;18.05;71.76 
9.640;0.37;1.02;-0.06;-23.17;12.03;-0.42;391.71;-665.76;-123.00;1.09;162.62;17.94;71.95 
9.670;0.34;1.04;-0.09;-31.86;23.58;-1.74;389.74;-664.81;-130.00;1.10;162.38;17.98;71.98 
9.700;0.34;1.04;-0.03;-21.98;16.63;-2.30;384.79;-663.86;-139.00;1.09;162.19;17.93;72.07 
9.730;0.39;1.02;-0.03;-36.94;14.68;-7.37;384.79;-660.07;-146.00;1.09;162.09;17.77;72.22 
