Time(s) acc_x(g) acc_y(g) acc_z(g) gyr_x(°/s) gyr_y(°/s) gyr_z(°/s) mag_x(G) mag_y(G) mag_z(G) SVM(g) yaw(°) pitch(°) roll(°)
0.000;-0.54;0.06;0.55;-59.13;40.07;165.84;368.76;-324.93;-371.00;0.77;-169.94;-21.60;11.54 
0.030;-0.70;0.30;0.36;-60.66;60.45;162.92;356.80;-335.51;-379.00;0.84;-175.02;-22.39;11.99 
0.061;-0.58;0.09;0.62;-62.12;100.38;146.37;340.85;-341.28;-388.00;0.85;179.76;-24.16;12.56 
0.091;-0.52;-0.06;0.99;-59.34;71.03;115.27;334.87;-336.47;-390.00;1.12;175.22;-26.15;12.62 
0.120;-0.59;0.23;0.97;-42.23;43.27;109.43;317.93;-332.63;-396.00;1.16;171.60;-27.09;12.94 
0.150;-0.46;0.31;0.86;-34.50;33.67;107.83;310.95;-330.70;-397.00;1.02;168.24;-27.40;13.69 
0.180;-0.33;0.37;0.60;-40.14;33.32;116.94;297.99;-335.51;-401.00;0.78;164.55;-27.31;14.71 
0.210;-0.43;0.34;0.45;-41.88;68.66;120.83;292.02;-337.43;-407.00;0.71;160.51;-27.61;15.89 
0.239;-0.54;0.33;0.74;-45.36;96.97;112.56;282.05;-330.70;-409.00;0.97;156.36;-28.90;16.94 
0.269;-0.80;0.22;0.94;-44.45;62.12;107.69;270.09;-323.97;-415.00;1.25;152.04;-30.29;17.72 
0.299;-0.72;0.28;0.69;-36.17;31.79;105.88;261.12;-318.21;-418.00;1.04;148.17;-30.54;18.62 
0.329;-0.54;0.24;0.57;-26.71;30.75;97.04;262.12;-321.09;-419.00;0.82;144.78;-30.32;19.79 
0.360;-0.52;0.30;0.58;-23.51;37.08;85.01;255.14;-320.13;-420.00;0.83;141.72;-30.17;20.98 
0.390;-0.54;0.36;0.61;-23.03;31.72;78.33;250.16;-319.17;-421.00;0.89;138.92;-30.12;22.05 
0.419;-0.62;0.26;0.70;-28.87;14.05;75.48;247.17;-316.28;-435.00;0.97;136.49;-29.82;22.92 
0.449;-0.57;0.18;0.70;-23.44;0.07;60.66;235.21;-320.13;-431.00;0.92;134.63;-29.14;23.58 
0.479;-0.59;0.25;0.74;-24.56;-13.50;41.88;234.21;-324.93;-436.00;0.98;133.47;-28.28;23.92 
0.509;-0.52;0.34;0.62;-26.23;-19.83;39.17;230.22;-329.74;-434.00;0.88;132.83;-27.29;24.10 
0.539;-0.46;0.42;0.66;-30.61;-19.34;41.04;222.25;-335.51;-434.00;0.91;132.19;-26.15;24.42 
0.570;-0.54;0.22;0.77;-40.00;-33.74;33.60;210.29;-345.12;-438.00;0.97;131.53;-24.89;24.33 
0.600;-0.49;0.29;0.90;-37.70;-40.07;21.01;204.31;-352.81;-438.00;1.06;131.37;-23.53;23.86 
0.630;-0.43;0.32;0.94;-35.41;-65.67;24.21;191.35;-362.43;-437.00;1.08;131.62;-21.75;23.39 
0.660;-0.37;0.21;0.88;-30.12;-72.63;21.01;186.37;-378.77;-436.00;0.98;132.17;-19.40;23.01 
0.690;-0.38;0.10;1.01;-28.66;-76.45;4.17;172.42;-400.88;-433.00;1.08;132.95;-17.23;22.51 
0.720;-0.26;0.34;0.86;-26.57;-84.94;2.57;167.44;-417.22;-424.00;0.96;134.11;-14.80;21.95 
0.750;-0.29;0.33;0.93;-19.20;-64.42;9.88;157.47;-428.76;-420.00;1.03;134.98;-12.53;21.73 
0.780;-0.34;0.18;0.85;-14.96;-57.60;1.46;157.47;-443.18;-415.00;0.93;135.76;-10.68;21.52 
0.810;-0.26;0.22;0.78;-18.16;-52.87;-2.09;148.50;-457.60;-409.00;0.85;136.65;-9.23;21.33 
0.840;-0.18;0.35;0.82;-30.05;-57.11;6.89;144.51;-464.33;-407.00;0.91;137.36;-7.70;20.96 
0.871;-0.14;0.22;0.80;-35.90;-59.97;8.28;136.54;-474.90;-402.00;0.84;137.77;-5.84;20.35 
0.901;-0.06;0.02;0.65;-38.89;-47.93;-1.60;130.56;-482.59;-395.00;0.65;138.20;-4.09;19.39 
0.931;-0.05;0.05;0.91;-33.25;-32.00;-16.42;115.61;-492.21;-385.00;0.91;138.89;-2.91;18.58 
0.960;-0.13;0.10;1.13;-27.62;-32.56;-23.58;107.64;-496.05;-381.00;1.14;139.84;-2.18;17.88 
0.990;-0.16;0.00;0.93;-27.48;-40.21;-24.70;103.65;-502.78;-379.00;0.94;140.97;-1.34;17.17 
1.020;-0.06;0.00;0.78;-15.10;-34.37;-37.01;95.68;-507.59;-373.00;0.78;142.28;-0.50;16.52 
1.050;0.02;0.08;0.98;-8.35;-25.11;-37.84;96.67;-516.24;-373.00;0.98;143.84;0.08;16.33 
1.080;0.05;0.18;0.90;-11.83;-40.14;-27.76;96.67;-519.13;-370.00;0.92;145.31;0.82;16.26 
1.110;0.11;0.06;0.78;-13.84;-44.10;-20.52;97.67;-524.89;-362.00;0.79;146.46;1.98;16.13 
1.140;0.13;0.09;0.75;-8.70;-24.49;-15.72;94.68;-525.86;-355.00;0.77;147.39;3.09;15.98 
1.171;0.01;0.11;0.98;-3.27;-12.94;-12.31;95.68;-533.55;-347.00;0.99;148.16;3.59;16.01 
1.201;0.04;0.15;0.91;-3.69;-24.49;-8.97;95.68;-533.55;-348.00;0.92;148.88;4.14;16.21 
1.230;0.03;0.07;0.90;-1.25;-25.25;-5.63;89.70;-536.43;-342.00;0.90;149.42;4.79;16.31 
1.260;0.06;0.02;0.84;1.53;-19.20;-5.43;91.69;-539.31;-340.00;0.84;149.89;5.49;16.46 
1.290;0.06;0.05;0.85;5.77;-12.59;-5.01;89.70;-544.12;-337.00;0.85;150.40;5.94;16.68 
1.320;0.14;0.06;0.90;2.02;-8.00;-0.14;97.67;-542.20;-338.00;0.91;150.75;6.29;16.92 
1.350;0.10;0.06;0.88;2.09;-15.65;0.21;95.68;-546.04;-332.00;0.89;151.06;6.69;17.06 
1.381;0.11;0.12;0.82;1.18;-13.15;2.78;92.69;-547.97;-332.00;0.84;151.34;7.21;17.23 
1.410;0.16;0.01;0.90;0.21;-5.01;1.39;92.69;-549.89;-325.00;0.91;151.50;7.56;17.35 
1.439;0.17;-0.02;0.92;-2.30;-12.45;0.14;91.69;-547.97;-329.00;0.94;151.73;7.85;17.36 
1.470;0.10;0.12;0.84;-0.49;-2.16;-1.18;90.69;-549.89;-321.00;0.85;152.04;8.17;17.43 
1.500;0.08;0.21;0.88;-0.97;-1.81;3.62;94.68;-555.66;-324.00;0.91;152.29;8.21;17.58 
1.530;0.10;0.08;0.88;-0.35;-10.64;-2.16;86.71;-554.70;-325.00;0.89;152.52;8.40;17.69 
1.560;0.09;0.07;0.85;1.46;-6.40;-3.55;89.70;-555.66;-320.00;0.86;152.87;8.64;17.79 
1.589;0.12;0.06;0.86;2.78;-1.67;-2.71;89.70;-553.73;-320.00;0.87;153.19;8.81;17.93 
1.618;0.13;0.10;0.88;2.64;5.91;-3.83;90.69;-556.62;-319.00;0.90;153.50;8.79;18.09 
1.648;0.07;0.14;0.82;-1.32;1.81;-3.13;92.69;-554.70;-321.00;0.83;153.85;8.64;18.25 
1.679;0.08;0.17;0.86;-1.18;3.41;-4.24;97.67;-554.70;-320.00;0.88;154.23;8.54;18.38 
1.709;0.02;0.10;0.90;-2.71;2.57;-1.39;98.67;-553.73;-321.00;0.91;154.62;8.40;18.47 
1.739;0.02;0.18;0.85;-1.11;2.09;-0.42;97.67;-556.62;-320.00;0.87;155.04;8.34;18.69 
1.769;0.06;0.22;0.88;-2.37;3.55;-4.17;99.66;-555.66;-324.00;0.91;155.35;8.16;18.74 
1.799;0.07;0.07;0.98;-2.85;-1.53;-4.80;97.67;-557.58;-321.00;0.98;155.63;8.10;18.76 
1.829;0.05;0.08;0.90;-0.97;-9.60;-1.32;97.67;-558.54;-325.00;0.90;155.95;8.20;18.77 
1.859;0.15;0.09;0.88;-1.39;-8.07;-2.57;96.67;-556.62;-320.00;0.90;156.23;8.47;18.79 
1.889;0.13;0.06;0.86;-3.90;-4.45;1.18;96.67;-561.43;-320.00;0.87;156.48;8.66;18.74 
1.918;0.11;0.02;0.90;-1.46;-9.04;0.83;97.67;-556.62;-320.00;0.91;156.68;8.88;18.64 
1.947;0.14;0.06;0.90;2.09;-4.17;3.20;98.67;-557.58;-318.00;0.91;156.84;9.13;18.64 
1.978;0.16;0.06;0.88;0.14;-1.81;2.57;94.68;-560.46;-314.00;0.90;156.98;9.26;18.68 
2.008;0.11;0.05;0.86;1.18;-5.29;1.39;94.68;-560.46;-317.00;0.87;157.13;9.42;18.69 
2.038;0.16;0.10;0.87;2.71;-3.06;0.00;91.69;-563.35;-315.00;0.89;157.34;9.59;18.79 
2.069;0.11;0.11;0.88;1.04;-0.63;2.64;95.68;-561.43;-319.00;0.89;157.53;9.65;18.93 
2.099;0.13;0.06;0.87;-0.49;-2.37;1.32;95.68;-564.31;-318.00;0.88;157.69;9.71;18.98 
2.128;0.11;0.04;0.89;-1.39;0.00;-2.43;98.67;-565.27;-316.00;0.90;157.90;9.75;18.94 
2.158;0.11;0.11;0.90;-0.97;0.21;-1.46;96.67;-567.19;-317.00;0.91;158.18;9.75;18.93 
2.188;0.08;0.10;0.86;-0.35;-4.80;0.21;97.67;-565.27;-318.00;0.87;158.40;9.80;18.94 
2.218;0.10;0.06;0.85;0.83;-3.20;-3.55;98.67;-567.19;-319.00;0.86;158.67;9.90;18.96 
2.248;0.14;0.12;0.92;2.43;-1.88;-1.32;97.67;-566.23;-317.00;0.94;158.95;9.97;19.04 
2.279;0.12;0.09;0.88;1.53;-5.84;-0.14;99.66;-572.00;-318.00;0.89;159.16;10.12;19.13 
2.308;0.13;0.08;0.86;0.07;-2.78;-2.71;96.67;-572.00;-317.00;0.87;159.40;10.27;19.16 
2.338;0.13;0.10;0.90;0.42;-1.53;-1.46;101.66;-572.96;-320.00;0.91;159.67;10.30;19.18 
2.369;0.13;0.12;0.91;2.02;-4.45;1.25;102.65;-573.92;-319.00;0.93;159.89;10.38;19.25 
2.399;0.13;0.10;0.86;2.37;-5.08;2.43;103.65;-575.85;-316.00;0.88;160.03;10.55;19.33 
2.429;0.13;0.10;0.87;1.88;-1.81;2.92;104.65;-576.81;-317.00;0.89;160.16;10.68;19.41 
2.459;0.14;0.06;0.88;0.63;-4.73;1.95;103.65;-574.88;-318.00;0.89;160.30;10.78;19.43 
2.490;0.14;0.09;0.88;0.35;-4.87;0.77;99.66;-575.85;-314.00;0.90;160.46;10.94;19.43 
2.520;0.17;0.12;0.86;0.97;-2.09;2.50;102.65;-580.65;-319.00;0.88;160.59;11.10;19.46 
2.550;0.18;0.08;0.90;0.83;-1.32;3.34;99.66;-579.69;-317.00;0.92;160.69;11.19;19.49 
2.581;0.18;0.06;0.87;0.28;-2.99;2.02;100.66;-577.77;-313.00;0.89;160.80;11.31;19.46 
2.611;0.14;0.07;0.86;0.90;-3.20;0.70;100.66;-577.77;-317.00;0.87;160.93;11.44;19.42 
2.641;0.16;0.10;0.89;0.63;-2.02;0.14;100.66;-579.69;-316.00;0.91;161.09;11.55;19.44 
2.671;0.14;0.10;0.88;1.11;-1.88;0.56;101.66;-582.57;-314.00;0.90;161.26;11.62;19.43 
2.701;0.14;0.09;0.90;0.97;-2.23;-0.21;103.65;-578.73;-317.00;0.92;161.44;11.67;19.46 
2.731;0.18;0.10;0.86;1.04;-2.09;-1.11;101.66;-581.61;-314.00;0.88;161.65;11.70;19.48 
2.761;0.15;0.10;0.86;0.63;0.35;-1.04;106.64;-583.54;-315.00;0.88;161.87;11.73;19.51 
2.792;0.17;0.09;0.89;0.35;-0.14;-1.04;106.64;-580.65;-318.00;0.91;162.09;11.72;19.52 
2.822;0.16;0.11;0.90;0.35;-1.53;-0.83;105.64;-584.50;-318.00;0.92;162.30;11.74;19.51 
2.852;0.16;0.11;0.86;0.07;-1.81;-0.56;103.65;-583.54;-320.00;0.88;162.49;11.80;19.50 
2.882;0.18;0.10;0.86;0.35;-1.18;-0.07;103.65;-582.57;-314.00;0.88;162.69;11.86;19.52 
2.912;0.15;0.14;0.87;0.07;-0.63;0.00;102.65;-587.38;-317.00;0.89;162.89;11.89;19.50 
2.941;0.17;0.08;0.90;0.21;-1.25;-0.07;103.65;-585.46;-313.00;0.92;163.07;11.91;19.48 
2.970;0.18;0.11;0.87;0.21;-1.32;0.07;104.65;-584.50;-313.00;0.90;163.25;11.93;19.46 
2.999;0.17;0.08;0.89;0.35;-0.42;0.83;104.65;-584.50;-312.00;0.91;163.43;11.94;19.46 
3.028;0.18;0.08;0.90;0.35;-1.60;0.63;101.66;-586.42;-317.00;0.92;163.59;11.98;19.44 
3.057;0.18;0.10;0.86;0.14;-1.88;0.35;107.64;-585.46;-313.00;0.88;163.75;12.02;19.42 
3.087;0.15;0.14;0.87;-0.07;-1.67;0.14;103.65;-584.50;-312.00;0.89;163.92;12.07;19.40 
3.116;0.16;0.10;0.86;0.35;-1.46;0.14;104.65;-587.38;-313.00;0.88;164.08;12.11;19.39 
3.145;0.15;0.08;0.90;0.42;-1.39;-0.35;106.64;-587.38;-310.00;0.92;164.26;12.13;19.36 
3.176;0.17;0.10;0.91;0.35;-1.67;0.21;105.64;-588.34;-312.00;0.93;164.43;12.19;19.34 
3.206;0.17;0.10;0.86;0.28;-1.32;0.77;100.66;-587.38;-309.00;0.88;164.60;12.23;19.33 
3.236;0.14;0.07;0.85;0.28;-1.11;0.49;106.64;-588.34;-312.00;0.86;164.75;12.27;19.30 
3.266;0.18;0.10;0.90;-0.21;-1.67;-0.56;99.66;-588.34;-311.00;0.92;164.93;12.30;19.26 
3.296;0.17;0.10;0.86;0.00;-1.74;-0.28;102.65;-587.38;-311.00;0.88;165.13;12.34;19.22 
3.326;0.18;0.14;0.87;0.07;-0.83;0.49;105.64;-588.34;-308.00;0.90;165.30;12.40;19.19 
3.356;0.18;0.07;0.91;0.07;-0.83;0.21;102.65;-588.34;-308.00;0.93;165.45;12.42;19.16 
3.387;0.17;0.11;0.89;-0.35;-2.16;0.07;102.65;-587.38;-308.00;0.91;165.62;12.48;19.11 
3.417;0.18;0.10;0.87;0.00;-1.25;0.42;103.65;-586.42;-304.00;0.89;165.79;12.53;19.07 
3.446;0.17;0.11;0.89;-0.35;-1.25;0.42;102.65;-587.38;-307.00;0.91;165.96;12.56;19.04 
3.476;0.18;0.10;0.88;0.00;-0.70;0.35;102.65;-589.30;-305.00;0.90;166.13;12.58;18.99 
3.505;0.22;0.11;0.92;-0.07;-1.18;0.70;102.65;-589.30;-305.00;0.95;166.29;12.58;18.94 
3.535;0.17;0.10;0.86;-0.42;-1.18;0.14;101.66;-591.23;-305.00;0.88;166.45;12.64;18.88 
3.565;0.18;0.10;0.86;-0.56;-0.90;-0.14;99.66;-590.27;-302.00;0.88;166.62;12.66;18.82 
3.595;0.18;0.09;0.89;-0.21;-1.11;0.28;100.66;-591.23;-308.00;0.91;166.78;12.72;18.75 
3.625;0.22;0.08;0.90;0.00;0.00;0.70;99.66;-592.19;-305.00;0.93;166.92;12.76;18.68 
3.655;0.20;0.10;0.88;-0.21;-0.21;0.07;100.66;-589.30;-304.00;0.91;167.08;12.78;18.63 
3.686;0.18;0.11;0.86;-0.07;-0.42;-0.35;99.66;-588.34;-303.00;0.89;167.25;12.80;18.58 
3.716;0.19;0.08;0.86;-0.42;-0.42;-0.56;101.66;-590.27;-308.00;0.88;167.42;12.81;18.52 
3.746;0.18;0.09;0.85;-0.35;-0.28;-0.77;103.65;-592.19;-306.00;0.87;167.59;12.82;18.48 
3.776;0.20;0.12;0.86;0.00;0.07;-0.97;101.66;-593.15;-307.00;0.89;167.77;12.85;18.42 
3.806;0.17;0.09;0.87;0.00;1.39;-0.63;101.66;-593.15;-307.00;0.89;167.96;12.81;18.39 
3.836;0.17;0.13;0.90;-0.35;1.46;-0.70;106.64;-593.15;-304.00;0.93;168.15;12.76;18.34 
3.866;0.14;0.11;0.87;-0.28;-1.88;-0.07;99.66;-591.23;-308.00;0.89;168.34;12.72;18.30 
3.896;0.21;0.10;0.83;-0.07;-2.02;0.56;103.65;-590.27;-306.00;0.86;168.50;12.78;18.25 
3.926;0.19;0.10;0.90;-0.07;-1.67;0.42;103.65;-595.07;-307.00;0.93;168.63;12.85;18.21 
3.956;0.21;0.10;0.87;2.30;-6.05;1.39;103.65;-595.07;-306.00;0.90;168.77;12.96;18.20 
3.987;0.21;0.07;0.82;4.66;4.38;0.42;103.65;-595.07;-303.00;0.85;168.90;13.05;18.24 
4.017;0.14;0.06;0.96;2.43;5.91;-0.56;107.64;-595.07;-305.00;0.97;169.02;12.82;18.27 
4.047;0.16;0.13;0.82;5.22;0.49;-3.69;105.64;-591.23;-306.00;0.85;169.23;12.71;18.29 
4.077;0.22;0.18;0.78;5.22;14.54;0.90;109.63;-588.34;-307.00;0.83;169.41;12.53;18.47 
4.107;0.21;0.13;0.91;0.49;17.67;3.97;109.63;-585.46;-309.00;0.94;169.50;12.10;18.56 
4.137;0.22;0.07;0.87;-1.53;16.00;2.37;105.64;-581.61;-314.00;0.90;169.56;11.70;18.46 
4.167;0.22;0.08;0.89;-3.13;19.13;1.88;109.63;-580.65;-317.00;0.92;169.68;11.28;18.29 
4.198;0.24;0.14;0.89;-2.92;12.59;5.01;107.64;-574.88;-320.00;0.93;169.78;10.87;18.11 
4.228;0.26;0.06;0.83;-2.50;9.95;4.66;108.63;-572.96;-328.00;0.87;169.73;10.73;17.91 
4.258;0.24;0.02;0.82;0.49;15.93;-0.42;104.65;-574.88;-326.00;0.85;169.80;10.50;17.74 
4.289;0.17;0.15;0.87;3.97;22.19;0.90;106.64;-570.08;-332.00;0.90;169.97;10.00;17.75 
4.319;0.14;0.14;0.88;5.36;22.26;4.24;106.64;-570.08;-334.00;0.90;170.03;9.39;17.87 
4.349;0.14;0.07;0.82;6.47;24.90;3.06;104.65;-565.27;-338.00;0.83;170.08;8.78;18.02 
4.379;0.15;0.10;0.80;5.29;32.77;3.55;107.64;-559.50;-343.00;0.82;170.14;8.05;18.09 
4.410;0.13;0.11;0.86;5.01;45.36;3.76;108.63;-553.73;-347.00;0.88;170.18;6.96;18.18 
4.440;0.07;0.16;0.80;4.52;46.12;2.71;111.62;-548.93;-355.00;0.82;170.25;5.71;18.25 
4.470;0.10;0.13;0.82;6.47;56.70;3.20;111.62;-533.55;-362.00;0.84;170.34;4.34;18.36 
4.501;0.08;0.10;0.90;5.01;58.43;3.76;111.62;-523.93;-367.00;0.91;170.40;2.71;18.48 
4.531;0.00;0.08;0.88;7.30;59.69;0.42;112.62;-514.32;-376.00;0.88;170.51;1.03;18.56 
4.561;-0.02;0.03;0.82;10.43;59.41;-6.40;115.61;-503.74;-381.00;0.82;170.79;-0.71;18.73 
4.591;-0.09;0.12;0.83;12.94;64.90;-8.00;122.59;-485.48;-388.00;0.84;171.21;-2.53;18.97 
4.621;-0.18;0.13;0.81;12.94;71.10;-10.23;127.57;-474.90;-395.00;0.84;171.71;-4.59;19.29 
4.651;-0.27;0.14;1.01;10.09;79.03;-16.14;130.56;-457.60;-403.00;1.05;172.32;-7.01;19.51 
4.681;-0.26;0.25;1.04;3.76;60.03;-14.33;135.54;-444.14;-408.00;1.10;173.04;-9.29;19.59 
4.712;-0.24;0.14;0.82;2.30;51.97;-6.33;134.55;-431.64;-407.00;0.87;173.60;-11.05;19.57 
4.742;-0.28;0.10;0.81;5.77;72.97;-5.77;140.53;-421.07;-413.00;0.86;173.99;-12.93;19.54 
4.772;-0.52;0.17;1.11;0.83;89.95;-15.37;144.51;-407.61;-416.00;1.24;174.53;-15.47;19.47 
4.802;-0.58;0.37;1.33;-3.62;59.83;-13.15;143.52;-390.31;-423.00;1.50;175.14;-18.04;19.17 
4.831;-0.51;0.35;1.06;-6.40;13.36;4.66;148.50;-377.81;-425.00;1.23;175.43;-19.14;19.01 
4.861;-0.44;0.18;0.90;-8.35;5.98;5.70;146.51;-376.85;-425.00;1.02;175.43;-19.37;18.85 
4.890;-0.34;0.21;0.90;-7.93;12.45;-4.17;146.51;-374.92;-425.00;0.98;175.58;-19.66;18.58 
4.920;-0.39;0.13;0.93;-2.99;7.44;-11.83;140.53;-374.92;-423.00;1.02;175.98;-20.05;18.30 
4.950;-0.38;0.14;0.81;2.50;1.11;-16.42;141.52;-371.08;-425.00;0.91;176.64;-20.38;18.02 
4.980;-0.36;0.18;0.76;6.12;-2.23;-21.63;141.52;-372.04;-427.00;0.86;177.51;-20.62;17.85 
5.011;-0.35;0.14;0.81;1.88;-14.54;-20.87;143.52;-375.89;-424.00;0.89;178.49;-20.67;17.65 
5.041;-0.30;0.12;0.63;2.23;-27.76;-14.82;147.50;-379.73;-427.00;0.71;179.35;-20.28;17.33 
5.071;-0.23;0.14;0.53;0.90;-20.10;-9.39;144.51;-384.54;-429.00;0.59;-179.97;-19.75;17.17 
5.101;-0.34;0.19;0.48;-6.54;-8.77;-3.06;146.51;-394.15;-426.00;0.62;-179.54;-19.56;17.05 
5.131;-0.39;0.03;0.52;-10.37;1.60;1.25;142.52;-392.23;-426.00;0.65;-179.35;-19.64;16.67 
5.161;-0.42;-0.02;0.70;1.74;8.00;5.91;142.52;-392.23;-425.00;0.82;-179.20;-20.00;16.31 
5.191;-0.39;0.07;0.84;7.37;-0.63;10.85;145.51;-394.15;-426.00;0.93;-179.15;-20.15;16.40 
5.222;-0.40;0.19;0.86;3.20;-14.61;16.14;144.51;-394.15;-426.00;0.97;-179.22;-19.91;16.56 
5.252;-0.50;0.23;0.83;-7.23;-12.66;24.07;148.50;-394.15;-425.00;1.00;-179.61;-19.44;16.69 
5.282;-0.51;0.16;0.77;-15.17;-9.18;32.14;141.52;-401.84;-424.00;0.94;179.74;-19.01;16.61 
5.313;-0.49;0.07;0.68;-17.88;-3.97;30.12;134.55;-403.76;-425.00;0.84;178.91;-18.65;16.23 
5.342;-0.44;0.05;0.70;-3.69;9.32;38.47;130.56;-401.84;-426.00;0.83;178.05;-18.66;16.14 
5.372;-0.42;-0.10;0.85;1.95;8.21;30.26;132.55;-398.00;-428.00;0.95;177.22;-18.79;16.27 
