Time(s) acc_x(g) acc_y(g) acc_z(g) gyr_x(°/s) gyr_y(°/s) gyr_z(°/s) mag_x(G) mag_y(G) mag_z(G) SVM(g) yaw(°) pitch(°) roll(°)
0.000;-0.71;-0.06;0.43;-40.77;-13.08;35.62;231.41;-286.87;-419.00;0.83;149.05;-34.57;10.82 
0.031;-0.58;-0.05;0.58;-36.52;26.71;34.99;220.44;-290.71;-423.00;0.82;147.62;-34.70;10.68 
0.061;-0.69;0.09;0.73;-37.29;18.99;33.04;212.46;-283.03;-426.00;1.01;145.98;-35.36;10.70 
0.090;-0.65;0.10;0.64;-29.63;-7.10;30.26;205.48;-285.91;-427.00;0.92;144.82;-35.39;10.79 
0.120;-0.56;-0.04;0.57;-22.96;-4.66;30.61;202.49;-288.79;-429.00;0.80;143.99;-35.03;11.00 
0.149;-0.57;-0.13;0.59;-19.76;2.78;17.95;196.50;-289.75;-436.00;0.83;143.38;-34.79;11.12 
0.179;-0.64;-0.06;0.61;-20.94;7.72;11.13;194.51;-295.50;-437.00;0.89;142.97;-34.95;11.05 
0.209;-0.60;0.02;0.64;-26.02;1.32;6.96;194.51;-293.58;-440.00;0.88;142.70;-35.07;10.93 
0.239;-0.62;0.02;0.72;-29.08;-0.90;11.48;183.53;-293.58;-439.00;0.95;142.38;-34.99;10.83 
0.268;-0.68;0.06;0.74;-32.14;-19.97;13.01;179.54;-293.58;-444.00;1.01;142.04;-34.66;10.60 
0.298;-0.66;-0.06;0.64;-29.84;-31.93;17.11;170.57;-304.14;-444.00;0.92;141.83;-33.78;10.48 
0.329;-0.61;-0.25;0.65;-16.77;-34.23;13.36;166.58;-314.69;-451.00;0.93;141.83;-32.85;10.29 
0.359;-0.56;-0.15;0.60;-5.01;-46.68;2.02;162.59;-322.37;-451.00;0.83;142.35;-31.71;10.21 
0.389;-0.57;0.02;0.60;0.42;-45.50;-2.57;160.59;-333.88;-453.00;0.83;143.23;-30.46;10.33 
0.419;-0.61;0.09;0.62;1.88;-34.30;-6.96;163.58;-346.35;-457.00;0.87;144.20;-29.38;10.62 
0.448;-0.57;-0.04;0.77;2.16;-44.31;-14.47;162.59;-353.07;-460.00;0.96;145.39;-28.42;10.81 
0.477;-0.52;-0.02;0.81;-0.83;-61.84;-12.17;161.59;-363.62;-464.00;0.96;146.62;-27.08;10.86 
0.507;-0.54;-0.10;0.74;0.83;-62.75;-4.31;161.59;-379.93;-467.00;0.92;147.74;-25.35;10.90 
0.537;-0.45;0.03;1.01;3.90;-39.58;-3.69;158.60;-393.36;-467.00;1.11;148.71;-23.98;11.08 
0.566;-0.51;-0.04;1.12;4.59;-61.84;0.77;159.59;-408.72;-470.00;1.23;149.46;-22.55;11.48 
0.595;-0.34;-0.02;0.99;7.37;-74.64;0.00;162.59;-425.98;-473.00;1.05;150.29;-20.54;11.82 
0.625;-0.29;-0.02;0.86;7.58;-68.10;4.87;164.58;-441.34;-467.00;0.91;151.05;-18.35;12.41 
0.655;-0.24;-0.05;0.84;5.08;-63.23;5.43;160.59;-456.69;-470.00;0.88;151.64;-16.28;12.83 
0.685;-0.29;0.00;0.89;-2.57;-56.21;5.77;161.59;-474.92;-466.00;0.94;152.03;-14.48;13.08 
0.716;-0.31;-0.05;0.90;-2.78;-66.64;7.17;158.60;-486.43;-467.00;0.95;152.33;-12.62;13.26 
0.746;-0.26;-0.09;0.92;0.70;-71.93;3.06;157.60;-504.66;-460.00;0.96;152.69;-10.56;13.39 
0.776;-0.22;0.00;0.90;2.16;-76.31;-2.71;158.60;-518.09;-458.00;0.93;153.15;-8.42;13.60 
0.806;-0.18;0.00;0.92;0.83;-74.50;-2.30;157.60;-532.48;-452.00;0.94;153.66;-6.27;13.82 
0.835;-0.20;0.00;0.89;-0.42;-77.77;-0.42;157.60;-557.43;-443.00;0.91;154.10;-3.97;14.18 
0.865;-0.13;-0.05;0.81;-1.67;-63.17;-0.21;154.61;-570.86;-434.00;0.82;154.42;-1.86;14.49 
0.894;-0.12;-0.02;0.88;0.42;-50.92;-4.03;157.60;-579.49;-433.00;0.89;154.73;-0.20;14.75 
0.925;-0.08;-0.06;0.90;0.90;-47.30;-3.06;151.61;-583.33;-427.00;0.91;155.02;1.15;14.87 
0.955;0.02;0.00;0.83;2.30;-42.02;-3.48;156.60;-602.52;-422.00;0.83;155.27;2.52;14.98 
0.985;0.13;0.09;0.96;3.83;-36.59;1.25;158.60;-608.28;-416.00;0.97;155.42;3.69;15.18 
1.016;0.10;0.04;0.88;1.67;-40.56;8.00;155.60;-618.83;-415.00;0.89;155.39;4.95;15.42 
1.046;0.15;0.00;0.86;1.60;-36.87;8.14;152.61;-623.63;-408.00;0.87;155.26;6.23;15.73 
1.076;0.19;0.01;0.90;4.24;-30.40;6.54;154.61;-633.22;-402.00;0.92;155.13;7.30;16.04 
1.106;0.22;-0.04;0.86;6.75;-29.84;6.54;154.61;-638.98;-399.00;0.89;155.00;8.31;16.47 
1.137;0.17;0.00;0.85;4.73;-31.10;5.36;156.60;-641.86;-395.00;0.87;154.84;9.38;16.66 
1.166;0.23;-0.02;0.78;4.73;-24.70;7.51;153.61;-647.61;-392.00;0.81;154.68;10.44;16.87 
1.196;0.25;-0.05;0.82;5.57;-12.73;10.09;155.60;-656.25;-386.00;0.86;154.40;11.20;17.02 
1.227;0.18;0.00;0.86;0.83;-5.22;7.44;156.60;-656.25;-386.00;0.88;154.14;11.62;17.07 
1.257;0.22;0.02;0.88;-3.13;-8.63;3.55;150.62;-654.33;-384.00;0.91;154.03;11.99;17.26 
1.287;0.21;0.00;0.89;-7.79;-4.24;5.50;150.62;-656.25;-382.00;0.91;153.91;12.24;17.11 
1.316;0.18;-0.01;0.88;-4.80;-8.07;3.83;143.63;-654.33;-383.00;0.90;153.78;12.51;16.95 
1.346;0.19;0.00;0.85;-4.45;-3.62;-1.53;147.62;-657.21;-378.00;0.87;153.77;12.78;17.04 
1.376;0.15;-0.02;0.89;-2.92;1.04;-4.03;145.63;-658.17;-376.00;0.90;153.90;12.85;17.22 
1.406;0.09;0.01;0.88;0.28;-1.25;-6.54;145.63;-658.17;-382.00;0.88;154.13;12.86;17.51 
1.436;0.11;0.02;0.86;1.39;-3.90;-10.50;148.62;-657.21;-378.00;0.87;154.43;12.85;17.71 
1.465;0.10;0.02;0.87;2.50;3.90;-14.61;148.62;-656.25;-378.00;0.88;154.82;12.71;17.88 
1.494;0.12;0.00;0.88;5.22;3.55;-16.56;151.61;-656.25;-380.00;0.89;155.29;12.46;18.12 
1.524;0.12;0.03;0.90;-1.11;0.97;-16.90;152.61;-653.37;-378.00;0.91;155.84;12.24;18.35 
1.554;0.16;-0.03;0.88;-3.55;0.07;-17.32;158.60;-653.37;-380.00;0.89;156.37;12.09;18.36 
1.584;0.13;0.01;0.85;-7.37;0.49;-17.95;160.59;-654.33;-379.00;0.86;156.95;11.98;18.50 
1.615;0.10;0.02;0.84;-10.71;2.99;-13.57;156.60;-653.37;-379.00;0.85;157.47;11.77;18.35 
1.645;0.10;0.00;0.90;-10.85;3.34;-12.45;160.59;-654.33;-382.00;0.91;157.93;11.60;18.30 
1.675;0.14;-0.03;0.88;-8.90;1.67;-13.43;157.60;-653.37;-384.00;0.89;158.33;11.42;18.02 
1.705;0.17;-0.02;0.85;-9.18;3.48;-14.19;161.59;-651.45;-387.00;0.87;158.75;11.29;17.80 
1.736;0.14;-0.03;0.88;-8.21;6.47;-11.83;156.60;-646.65;-384.00;0.89;159.19;11.09;17.65 
1.766;0.14;0.01;0.86;-2.64;12.03;-7.51;161.59;-646.65;-387.00;0.87;159.55;10.77;17.49 
1.796;0.11;0.01;0.86;0.35;7.86;-1.60;159.59;-642.81;-386.00;0.87;159.71;10.45;17.55 
1.827;0.11;-0.07;0.89;-3.27;14.47;-1.11;160.59;-639.94;-392.00;0.90;159.76;10.18;17.50 
1.857;0.10;-0.05;0.93;-3.83;8.97;-0.42;160.59;-639.94;-394.00;0.94;159.82;9.80;17.31 
1.887;0.17;-0.08;0.87;-1.04;7.23;2.37;157.60;-638.98;-391.00;0.89;159.82;9.64;17.16 
1.917;0.12;-0.06;0.86;-2.09;5.43;5.70;157.60;-637.06;-398.00;0.87;159.71;9.57;17.02 
1.948;0.10;-0.11;0.86;-0.35;1.88;4.59;157.60;-635.14;-395.00;0.87;159.55;9.53;16.82 
1.978;0.15;-0.06;0.93;-2.23;2.92;3.55;156.60;-637.06;-396.00;0.94;159.49;9.47;16.72 
2.008;0.12;-0.05;0.91;-4.24;0.28;0.00;154.61;-636.10;-396.00;0.92;159.47;9.47;16.57 
2.039;0.09;-0.05;0.84;-1.81;3.13;-3.27;154.61;-636.10;-395.00;0.85;159.56;9.45;16.44 
2.069;0.05;-0.05;0.85;0.70;8.77;-4.45;156.60;-630.34;-396.00;0.85;159.70;9.25;16.41 
2.099;0.05;0.00;0.89;3.34;5.77;-3.20;157.60;-630.34;-399.00;0.89;159.89;8.93;16.49 
2.129;0.06;0.00;0.90;5.15;2.92;-2.23;158.60;-633.22;-399.00;0.90;160.02;8.76;16.64 
2.159;0.08;0.00;0.90;3.41;1.04;-1.81;156.60;-631.30;-400.00;0.90;160.12;8.74;17.03 
2.189;0.07;-0.05;0.85;2.23;0.21;-0.28;160.59;-630.34;-403.00;0.85;160.18;8.72;17.08 
2.219;0.08;0.04;0.82;5.43;7.17;-0.28;161.59;-629.38;-399.00;0.82;160.27;8.62;17.21 
2.250;0.04;-0.04;0.90;5.36;13.91;-2.09;164.58;-627.46;-403.00;0.90;160.33;8.25;17.34 
2.280;0.04;-0.01;0.94;1.81;10.16;-5.70;165.58;-627.46;-402.00;0.94;160.55;7.77;17.46 
2.310;-0.03;0.03;0.85;0.77;26.02;-2.50;167.57;-621.71;-407.00;0.85;160.68;7.08;17.57 
2.340;0.01;-0.06;0.86;-0.90;34.23;-0.83;168.57;-614.99;-416.00;0.86;160.75;6.18;17.52 
2.369;0.08;-0.06;0.89;-2.30;22.54;-0.35;166.58;-607.32;-417.00;0.90;160.79;5.40;17.42 
2.398;0.14;-0.05;0.85;-2.43;24.28;-0.28;166.58;-604.44;-421.00;0.86;160.86;4.87;17.32 
2.427;0.17;-0.08;0.85;-0.90;24.00;-1.95;164.58;-598.68;-423.00;0.87;160.92;4.30;17.22 
2.456;0.14;-0.05;0.86;0.21;28.31;-3.55;170.57;-591.01;-426.00;0.87;161.03;3.64;17.16 
2.485;0.10;0.00;0.90;2.02;24.90;-2.64;166.58;-587.17;-430.00;0.91;161.15;2.98;17.18 
2.514;0.11;-0.05;0.85;4.17;30.19;0.70;167.57;-579.49;-435.00;0.86;161.21;2.36;17.22 
2.545;0.04;-0.03;0.79;3.20;34.78;-2.78;174.56;-577.57;-434.00;0.79;161.28;1.48;17.35 
2.575;0.04;0.00;0.82;0.97;49.32;-8.00;171.56;-570.86;-440.00;0.82;161.54;0.37;17.60 
2.605;-0.06;0.00;0.98;3.69;53.63;-3.55;173.56;-552.63;-448.00;0.98;161.78;-1.20;17.72 
2.636;-0.06;-0.03;0.93;5.22;48.97;0.56;176.55;-549.75;-454.00;0.93;161.89;-2.56;18.09 
2.665;0.00;-0.03;0.95;0.63;48.07;-2.85;178.55;-539.20;-459.00;0.95;161.96;-3.90;18.17 
2.695;-0.06;-0.02;0.87;-4.10;53.98;-5.70;178.55;-528.64;-459.00;0.87;162.07;-5.24;18.13 
2.725;-0.07;0.00;0.83;-6.05;65.11;-4.03;180.54;-511.37;-467.00;0.83;162.18;-6.84;17.94 
2.755;-0.18;0.04;0.88;-12.38;71.37;-1.67;178.55;-497.94;-471.00;0.90;162.21;-8.75;17.93 
2.784;-0.26;0.02;0.94;-20.31;81.32;1.18;177.55;-486.43;-473.00;0.98;162.01;-10.87;17.51 
2.814;-0.27;0.00;0.97;-22.89;84.73;3.27;171.56;-470.12;-479.00;1.01;161.74;-13.16;16.95 
2.845;-0.37;0.03;1.00;-24.49;84.87;9.53;166.58;-444.21;-480.00;1.07;161.21;-15.58;16.35 
2.875;-0.49;0.02;0.92;-27.55;87.17;12.66;158.60;-425.03;-484.00;1.04;160.49;-17.91;15.95 
2.905;-0.58;-0.10;0.89;-31.72;106.64;10.23;154.61;-406.80;-483.00;1.07;159.57;-20.66;15.30 
2.936;-0.62;-0.09;1.02;-32.70;99.62;-0.42;147.62;-384.73;-478.00;1.20;158.69;-23.87;14.46 
2.966;-0.65;-0.01;1.01;-33.53;85.98;-3.62;137.65;-352.11;-474.00;1.20;157.91;-26.73;13.57 
2.996;-0.78;-0.04;0.82;-25.88;78.40;-4.59;132.66;-333.88;-467.00;1.13;157.35;-29.16;12.77 
3.026;-0.58;-0.03;0.90;-16.42;89.81;3.62;131.67;-314.69;-461.00;1.07;156.69;-31.86;12.32 
3.057;-0.59;0.07;0.80;-16.42;60.66;16.35;128.67;-294.54;-455.00;1.00;155.85;-34.02;12.22 
3.087;-0.60;0.01;0.69;-18.99;45.70;15.51;127.68;-276.31;-452.00;0.91;154.92;-35.52;12.21 
3.117;-0.54;-0.10;0.70;-21.63;34.99;13.36;122.69;-265.76;-440.00;0.89;154.06;-36.62;12.07 
3.148;-0.56;0.00;0.72;-24.63;17.53;9.04;119.70;-259.04;-436.00;0.91;153.38;-37.32;11.77 
3.178;-0.59;0.06;0.62;-23.10;-0.70;19.69;112.71;-254.25;-434.00;0.86;152.82;-37.45;11.67 
3.208;-0.61;0.02;0.58;-18.50;-13.43;23.03;107.73;-255.21;-432.00;0.84;152.26;-37.11;11.71 
3.238;-0.68;0.12;0.60;-26.30;-19.90;30.19;109.72;-259.04;-427.00;0.91;151.75;-36.43;11.96 
3.267;-0.86;-0.07;0.70;-35.20;-19.48;25.67;100.74;-259.04;-426.00;1.11;150.90;-35.80;11.91 
3.297;-0.82;-0.14;0.76;-34.57;-46.05;7.72;96.75;-266.72;-426.00;1.13;150.44;-35.01;11.47 
3.327;-0.66;-0.19;0.62;-38.47;-72.90;10.43;86.78;-272.48;-427.00;0.93;150.70;-33.17;10.80 
3.358;-0.58;-0.08;0.58;-41.60;-61.43;8.07;73.81;-290.71;-427.00;0.82;150.88;-31.26;9.87 
3.388;-0.52;0.11;0.55;-38.96;-79.51;35.76;65.83;-305.10;-426.00;0.76;150.76;-29.26;9.26 
3.418;-0.49;-0.10;0.47;-31.72;-71.65;51.06;57.85;-315.65;-425.00;0.69;149.86;-26.72;9.23 
3.448;-0.49;-0.16;0.50;-35.90;-40.42;46.33;46.88;-331.00;-423.00;0.72;148.80;-24.94;9.01 
3.478;-0.47;-0.19;0.56;-33.81;-29.15;44.94;36.91;-335.80;-422.00;0.76;147.59;-23.88;8.58 
