Time(s) acc_x(g) acc_y(g) acc_z(g) gyr_x(°/s) gyr_y(°/s) gyr_z(°/s) mag_x(G) mag_y(G) mag_z(G) SVM(g) yaw(°) pitch(°) roll(°)
0.000;-0.39;0.12;0.74;-0.97;3.27;0.28;184.08;-390.42;-413.00;0.85;-165.26;-24.60;10.23 
0.031;-0.38;0.13;0.77;-0.63;7.93;-1.04;184.08;-390.42;-411.00;0.87;-165.23;-24.76;10.24 
0.061;-0.43;0.15;0.78;-0.07;10.16;-2.57;183.09;-389.47;-409.00;0.90;-165.14;-25.05;10.23 
0.091;-0.39;0.14;0.79;0.14;9.18;-3.83;186.07;-387.56;-411.00;0.89;-165.00;-25.33;10.20 
0.122;-0.38;0.14;0.80;1.32;10.78;-5.50;186.07;-383.74;-410.00;0.90;-164.80;-25.62;10.18 
0.152;-0.40;0.12;0.77;2.43;14.47;-7.44;187.07;-379.92;-413.00;0.88;-164.55;-26.02;10.15 
0.182;-0.42;0.12;0.78;2.30;14.96;-9.74;189.06;-379.92;-412.00;0.89;-164.21;-26.48;10.10 
0.212;-0.42;0.16;0.77;2.50;14.54;-10.50;189.06;-375.15;-413.00;0.89;-163.80;-26.98;10.04 
0.242;-0.44;0.18;0.78;2.50;11.62;-7.93;186.07;-375.15;-415.00;0.91;-163.43;-27.39;10.00 
0.272;-0.47;0.14;0.79;2.78;16.97;-5.84;189.06;-369.42;-418.00;0.93;-163.13;-27.81;10.01 
0.302;-0.54;0.18;0.85;1.53;10.85;-4.10;190.05;-365.61;-413.00;1.02;-162.87;-28.30;10.02 
0.333;-0.54;0.16;0.86;-0.49;-4.66;-1.81;191.05;-364.65;-414.00;1.03;-162.73;-28.45;10.04 
0.363;-0.50;0.17;0.74;-1.04;-9.18;-1.67;190.05;-363.70;-415.00;0.91;-162.70;-28.26;10.01 
0.393;-0.44;0.15;0.70;-0.70;-4.87;-1.04;187.07;-370.38;-415.00;0.84;-162.68;-28.08;9.99 
0.423;-0.42;0.12;0.66;-0.77;2.78;-0.35;192.04;-367.51;-413.00;0.79;-162.67;-28.04;9.96 
0.453;-0.45;0.15;0.79;0.28;8.70;0.56;188.06;-367.51;-416.00;0.92;-162.64;-28.20;9.97 
0.483;-0.49;0.14;0.85;-0.07;0.77;2.99;189.06;-366.56;-412.00;0.99;-162.65;-28.36;10.00 
0.513;-0.46;0.18;0.81;-0.83;-7.03;6.19;187.07;-366.56;-415.00;0.95;-162.80;-28.22;10.08 
0.544;-0.40;0.20;0.73;-4.10;-6.26;9.04;186.07;-369.42;-417.00;0.86;-163.08;-27.94;10.19 
0.574;-0.38;0.15;0.72;-8.42;6.54;8.63;186.07;-370.38;-415.00;0.83;-163.46;-27.80;10.21 
0.604;-0.47;0.08;0.77;-7.10;15.23;6.89;187.07;-368.47;-415.00;0.91;-163.74;-28.08;10.12 
0.635;-0.52;0.08;0.83;-7.17;10.23;0.77;184.08;-364.65;-416.00;0.98;-163.90;-28.48;9.94 
0.665;-0.49;0.10;0.78;-3.97;-5.63;-5.01;184.08;-365.61;-417.00;0.93;-163.87;-28.65;9.69 
0.695;-0.45;0.14;0.66;1.04;-7.79;-8.42;184.08;-364.65;-417.00;0.81;-163.69;-28.47;9.52 
0.725;-0.48;0.14;0.77;4.38;3.76;-3.13;184.08;-365.61;-415.00;0.92;-163.46;-28.49;9.53 
0.755;-0.53;0.14;0.86;4.31;-2.09;-2.23;185.08;-366.56;-415.00;1.02;-163.29;-28.60;9.61 
0.785;-0.50;0.17;0.79;1.88;-12.87;-3.97;186.07;-369.42;-417.00;0.95;-163.16;-28.41;9.63 
0.815;-0.43;0.20;0.70;1.32;-9.60;-4.59;185.08;-369.42;-416.00;0.85;-163.04;-28.08;9.63 
0.846;-0.40;0.20;0.70;-0.77;0.70;1.46;184.08;-369.42;-417.00;0.83;-162.99;-27.94;9.69 
0.876;-0.37;0.18;0.78;-2.43;6.33;4.80;184.08;-368.47;-417.00;0.88;-163.10;-28.01;9.74 
0.906;-0.44;0.15;0.81;-3.76;4.94;6.61;186.07;-370.38;-416.00;0.93;-163.28;-28.13;9.75 
0.936;-0.46;0.14;0.81;-3.20;1.74;7.51;182.09;-370.38;-420.00;0.94;-163.52;-28.17;9.76 
0.966;-0.43;0.13;0.80;-2.92;-1.46;6.96;182.09;-373.24;-419.00;0.92;-163.78;-28.12;9.78 
0.995;-0.43;0.11;0.78;-2.50;-2.92;4.80;181.10;-372.29;-418.00;0.90;-163.98;-27.98;9.80 
1.024;-0.43;0.10;0.79;-2.02;-2.43;2.30;182.09;-371.33;-420.00;0.90;-164.11;-27.88;9.77 
1.053;-0.44;0.09;0.78;-0.49;-0.97;0.21;178.11;-375.15;-420.00;0.90;-164.16;-27.81;9.74 
1.083;-0.42;0.10;0.80;1.11;-1.95;-0.28;182.09;-373.24;-418.00;0.91;-164.14;-27.75;9.72 
1.113;-0.39;0.16;0.79;1.11;-3.13;-0.28;184.08;-374.20;-418.00;0.90;-164.11;-27.65;9.74 
1.144;-0.44;0.18;0.78;-2.57;-2.23;-1.67;181.10;-376.11;-417.00;0.91;-164.10;-27.55;9.69 
1.174;-0.41;0.14;0.70;0.14;-5.77;-6.19;180.10;-378.97;-416.00;0.82;-164.02;-27.35;9.75 
1.204;-0.43;0.11;0.77;-0.42;9.53;-7.58;183.09;-375.15;-417.00;0.89;-163.77;-27.48;9.66 
1.234;-0.46;0.13;0.89;2.30;-0.49;-8.83;183.09;-374.20;-416.00;1.01;-163.50;-27.69;9.54 
1.264;-0.40;0.13;0.78;4.80;-7.86;-5.22;182.09;-377.06;-417.00;0.89;-163.23;-27.52;9.54 
1.294;-0.43;0.13;0.74;3.48;-3.27;-5.98;184.08;-373.24;-418.00;0.87;-163.05;-27.36;9.59 
1.324;-0.42;0.14;0.74;3.55;-2.57;-7.23;186.07;-377.06;-415.00;0.86;-162.81;-27.33;9.59 
1.355;-0.36;0.13;0.69;3.06;2.02;-6.75;187.07;-378.01;-419.00;0.79;-162.57;-27.30;9.60 
1.385;-0.42;0.15;0.75;3.27;9.04;-7.44;189.06;-374.20;-416.00;0.87;-162.30;-27.49;9.60 
1.415;-0.44;0.14;0.82;2.78;6.33;-8.28;190.05;-372.29;-418.00;0.94;-162.00;-27.75;9.58 
1.446;-0.45;0.11;0.80;1.95;4.66;-8.56;187.07;-374.20;-417.00;0.92;-161.71;-27.96;9.53 
1.476;-0.43;0.14;0.79;2.30;3.34;-7.93;190.05;-374.20;-416.00;0.91;-161.41;-28.12;9.48 
1.505;-0.49;0.16;0.78;2.50;4.45;-6.19;194.03;-371.33;-417.00;0.93;-161.14;-28.29;9.45 
1.534;-0.44;0.13;0.78;2.09;3.55;-4.87;194.03;-372.29;-416.00;0.90;-160.94;-28.42;9.47 
1.563;-0.49;0.17;0.78;1.60;2.02;-4.80;193.04;-370.38;-416.00;0.94;-160.75;-28.52;9.47 
1.592;-0.45;0.13;0.78;1.04;0.00;-4.66;195.03;-367.51;-418.00;0.91;-160.60;-28.58;9.44 
1.622;-0.46;0.10;0.75;0.83;1.60;-5.43;196.02;-372.29;-416.00;0.89;-160.44;-28.62;9.37 
1.653;-0.46;0.10;0.77;0.56;3.83;-7.65;195.03;-365.61;-414.00;0.90;-160.23;-28.72;9.26 
1.683;-0.45;0.10;0.77;1.88;1.81;-7.79;195.03;-366.56;-419.00;0.90;-159.97;-28.86;9.11 
1.713;-0.46;0.13;0.77;0.83;6.26;-8.35;196.02;-367.51;-418.00;0.91;-159.69;-29.02;9.03 
1.744;-0.50;0.06;0.75;-1.39;6.54;-8.63;197.02;-366.56;-418.00;0.90;-159.43;-29.32;8.89 
1.774;-0.50;0.00;0.69;-1.18;10.23;-16.14;197.02;-364.65;-418.00;0.85;-159.00;-29.67;8.58 
1.804;-0.55;0.00;0.60;6.12;20.66;-20.10;196.02;-357.97;-419.00;0.81;-158.42;-30.18;8.36 
1.833;-0.59;-0.05;0.57;18.78;25.81;-21.15;198.01;-356.06;-420.00;0.82;-157.51;-31.12;8.20 
1.863;-0.53;0.02;0.54;38.19;33.60;-24.63;203.98;-348.42;-418.00;0.76;-156.28;-32.09;8.52 
1.893;-0.53;0.13;0.58;43.69;46.47;-15.03;214.93;-340.79;-416.00;0.80;-154.78;-33.49;9.08 
1.923;-0.53;0.20;0.67;41.11;46.75;2.43;225.88;-328.38;-412.00;0.88;-153.63;-34.99;10.03 
1.954;-0.46;0.36;0.68;37.77;45.15;7.79;239.81;-321.69;-411.00;0.90;-152.87;-36.27;11.23 
1.984;-0.42;0.48;0.73;20.73;53.91;26.78;242.79;-315.01;-411.00;0.97;-152.65;-37.41;12.49 
2.014;-0.61;0.39;0.80;7.65;53.98;40.35;249.76;-307.38;-405.00;1.08;-153.06;-38.56;13.71 
2.044;-0.77;0.04;0.87;-5.57;28.94;48.21;250.75;-295.92;-406.00;1.16;-153.96;-39.42;14.59 
2.074;-0.67;-0.39;0.65;-4.31;3.27;48.97;251.75;-294.97;-404.00;1.01;-155.42;-39.39;15.20 
2.104;-0.48;-0.56;0.43;-1.46;15.86;18.99;248.76;-293.06;-404.00;0.85;-156.28;-39.40;15.25 
2.134;-0.44;-0.37;0.27;2.09;25.25;-7.79;253.74;-294.97;-402.00;0.64;-156.09;-40.14;14.73 
2.163;-0.37;0.00;0.28;2.64;19.83;-19.34;252.74;-284.47;-405.00;0.46;-155.13;-41.22;14.03 
2.193;-0.35;0.24;0.26;-2.09;27.97;-0.56;250.75;-280.65;-406.00;0.50;-154.44;-42.08;13.80 
2.223;-0.41;0.32;0.35;-12.10;40.28;25.39;250.75;-274.92;-403.00;0.63;-154.50;-42.94;14.19 
2.254;-0.46;0.22;0.43;-37.29;34.92;35.06;246.77;-271.10;-407.00;0.67;-155.52;-43.67;14.60 
2.284;-0.47;0.05;0.52;-60.87;29.29;34.30;232.84;-262.51;-405.00;0.70;-157.22;-44.29;14.26 
2.314;-0.54;-0.06;0.46;-80.90;21.08;30.61;219.91;-264.42;-403.00;0.71;-159.40;-44.75;13.29 
2.344;-0.62;-0.02;0.44;-90.43;28.38;29.22;202.99;-257.74;-405.00;0.76;-162.05;-45.25;11.99 
2.374;-0.59;0.07;0.59;-101.29;44.59;29.98;185.08;-252.96;-405.00;0.84;-165.07;-46.16;10.44 
2.404;-0.77;-0.05;0.82;-98.43;22.75;48.83;162.19;-245.33;-412.00;1.13;-168.68;-46.90;9.17 
2.434;-0.80;-0.25;0.88;-84.31;-20.52;42.09;134.33;-241.51;-407.00;1.22;-172.78;-46.64;8.07 
2.465;-0.76;-0.37;0.67;-41.39;-44.31;31.51;120.40;-247.24;-412.00;1.08;-175.95;-45.48;7.31 
2.495;-0.42;-0.32;0.49;-6.12;-48.49;13.43;111.45;-252.96;-408.00;0.72;-177.33;-43.90;6.81 
2.525;-0.46;-0.20;0.38;24.49;-51.90;1.32;106.47;-264.42;-401.00;0.63;-177.31;-42.43;6.77 
2.556;-0.38;0.18;0.35;44.17;-70.61;-7.10;109.45;-281.60;-397.00;0.55;-176.08;-40.65;7.36 
2.586;-0.26;0.34;0.26;72.28;-44.94;19.20;121.40;-292.10;-397.00;0.50;-174.61;-38.80;9.10 
2.616;-0.41;0.21;0.42;89.81;-12.10;52.59;133.34;-300.69;-397.00;0.62;-173.83;-37.65;12.01 
2.646;-0.66;0.34;0.50;114.43;-8.21;71.17;157.22;-311.19;-399.00;0.90;-173.19;-37.01;15.46 
2.677;-0.76;0.43;0.64;139.83;-8.70;105.74;198.01;-316.92;-400.00;1.08;-172.77;-35.95;20.26 
2.707;-0.86;0.59;1.24;176.14;-21.43;169.18;226.87;-329.33;-395.00;1.62;-173.44;-33.48;26.80 
2.737;-2.81;4.24;4.22;81.46;-382.61;302.05;253.74;-357.01;-377.00;6.61;-176.88;-26.05;33.82 
2.768;-0.85;2.19;0.56;255.17;-294.75;316.31;265.68;-436.24;-240.00;2.41;174.51;-8.72;43.04 
2.798;0.07;0.02;0.74;228.59;103.93;-36.94;301.50;-458.20;-227.00;0.74;172.78;-5.47;50.94 
2.828;0.34;-0.05;0.60;147.48;-49.95;96.07;359.21;-485.88;-229.00;0.69;174.66;-5.71;56.66 
2.858;0.27;-0.72;0.31;144.49;-182.19;120.14;363.19;-512.61;-229.00;0.83;171.77;-0.39;60.71 
2.888;0.63;0.44;-0.30;138.57;-146.85;-35.90;377.12;-552.70;-197.00;0.82;171.66;3.49;65.23 
2.918;0.84;1.24;-0.31;117.29;-21.22;30.26;404.98;-565.11;-173.00;1.53;172.22;4.83;69.47 
2.948;0.49;1.57;0.36;137.74;-11.83;113.81;418.91;-582.30;-167.00;1.68;170.41;7.14;72.45 
2.979;0.06;1.52;0.33;142.12;-146.92;113.46;415.93;-605.21;-148.00;1.56;167.64;10.86;74.13 
3.009;0.36;1.26;-0.53;162.71;-207.44;106.16;401.00;-639.57;-80.00;1.41;164.67;15.14;73.94 
3.038;0.61;1.15;-0.98;182.26;-107.62;90.09;393.04;-653.89;-31.00;1.63;161.68;18.34;71.60 
3.068;0.14;1.16;-0.99;171.83;-32.97;65.04;375.13;-666.30;2.00;1.53;159.12;20.57;67.98 
3.098;0.53;0.86;-0.91;125.63;13.70;74.09;361.20;-674.89;20.00;1.36;157.09;22.38;64.11 
3.128;0.50;0.86;-0.81;77.29;43.69;51.76;343.29;-690.16;26.00;1.28;155.07;24.61;60.46 
3.158;0.43;1.01;-0.60;64.83;77.91;26.23;330.36;-696.85;18.00;1.25;153.98;26.19;58.43 
3.187;0.26;1.15;-0.36;57.67;81.53;46.75;324.38;-707.35;10.00;1.23;153.23;27.80;56.72 
3.217;0.54;0.96;-0.20;35.41;29.15;51.55;314.43;-712.12;3.00;1.12;151.95;29.63;54.89 
3.247;0.66;0.70;-0.18;9.95;-24.14;16.42;306.47;-718.80;6.00;0.98;150.89;30.85;53.54 
3.278;0.54;0.42;-0.38;1.11;-45.15;19.83;302.49;-714.98;11.00;0.78;150.40;31.01;52.97 
3.308;0.64;0.34;-0.56;6.68;-17.39;19.69;299.51;-715.94;20.00;0.92;149.69;31.43;52.06 
3.338;0.86;0.48;-0.58;0.70;2.85;0.83;293.54;-719.76;24.00;1.14;149.11;31.96;51.28 
3.368;0.83;0.70;-0.54;-9.60;7.65;-17.53;293.54;-720.71;25.00;1.21;149.07;32.07;51.23 
3.398;0.70;0.69;-0.49;-23.17;8.00;-44.10;303.49;-719.76;17.00;1.10;149.83;31.41;52.10 
3.428;0.69;0.73;-0.31;-37.43;-2.02;-59.48;311.45;-716.89;15.00;1.05;151.08;30.21;53.74 
3.458;0.52;0.74;-0.24;-39.79;-15.93;-79.30;325.38;-709.26;10.00;0.94;152.91;28.32;56.05 
3.489;0.48;0.94;-0.20;-40.77;-37.15;-83.27;337.32;-701.62;10.00;1.07;155.31;25.73;58.89 
3.519;0.34;1.00;-0.32;-36.31;-60.80;-84.17;363.19;-687.30;11.00;1.10;157.86;22.83;61.76 
3.549;0.29;1.04;-0.41;-35.41;-57.11;-85.77;378.12;-676.80;19.00;1.15;160.47;19.78;64.53 
3.578;0.16;1.18;-0.46;-25.67;-37.57;-78.68;392.05;-669.16;20.00;1.28;162.99;16.96;67.01 
3.608;0.10;1.15;-0.44;-24.35;-24.35;-70.40;402.99;-663.44;21.00;1.24;165.38;14.36;69.29 
3.638;0.12;1.15;-0.34;-16.35;1.25;-65.60;415.93;-646.25;18.00;1.21;167.59;12.13;71.23 
3.668;0.00;1.10;-0.23;-16.00;-14.47;-58.09;431.85;-637.66;15.00;1.12;169.60;10.17;72.90 
3.698;0.02;1.12;-0.21;-18.78;-35.41;-52.52;440.81;-630.02;14.00;1.14;171.37;8.27;74.41 
3.728;-0.02;1.26;-0.24;-2.78;-16.14;-26.71;447.77;-623.34;17.00;1.28;172.58;6.93;75.35 
3.757;-0.11;1.26;-0.30;5.57;-19.41;-6.68;452.75;-621.43;16.00;1.30;173.33;6.08;75.69 
3.787;0.04;1.08;-0.34;13.77;1.67;15.79;449.76;-617.62;27.00;1.13;173.36;5.97;75.48 
3.817;0.21;0.97;-0.34;10.71;13.08;12.94;450.76;-621.43;24.00;1.05;172.85;6.54;74.91 
3.847;0.26;0.90;-0.28;4.10;5.22;-7.58;448.77;-623.34;21.00;0.98;172.65;6.81;74.66 
3.878;0.16;0.98;-0.30;6.19;3.90;-18.71;446.78;-623.34;22.00;1.04;173.01;6.52;74.72 
3.908;0.05;1.06;-0.30;10.09;6.47;-9.88;453.74;-619.52;25.00;1.10;173.53;6.07;74.76 
3.938;0.02;1.15;-0.34;18.50;5.57;0.00;453.74;-616.66;27.00;1.20;173.77;5.89;74.50 
3.968;0.10;1.06;-0.38;20.59;4.73;-0.35;451.75;-617.62;28.00;1.13;173.84;5.86;73.96 
3.999;0.16;0.99;-0.47;8.83;4.73;-2.78;453.74;-619.52;30.00;1.11;173.87;5.89;73.44 
4.029;0.18;0.94;-0.38;-0.28;2.85;-10.71;451.75;-615.71;31.00;1.03;174.05;5.77;73.36 
4.059;0.08;1.02;-0.31;-1.46;-4.45;-11.41;454.74;-616.66;34.00;1.07;174.41;5.45;73.50 
4.090;0.06;1.06;-0.34;-0.63;-10.09;-6.82;461.70;-614.75;30.00;1.11;174.75;5.08;73.67 
4.120;0.04;1.12;-0.43;-1.11;-5.08;-0.90;456.73;-614.75;36.00;1.20;174.96;4.83;73.73 
4.150;0.09;1.06;-0.38;-1.67;0.83;3.20;455.73;-612.84;34.00;1.13;175.01;4.78;73.75 
4.180;0.13;1.02;-0.35;-2.50;0.21;2.37;455.73;-613.80;36.00;1.09;174.95;4.86;73.80 
4.209;0.10;1.05;-0.36;-2.78;-3.62;-0.77;453.74;-612.84;33.00;1.11;174.96;4.85;73.87 
4.238;0.06;1.06;-0.37;-3.13;-1.04;0.21;455.73;-613.80;33.00;1.12;175.02;4.79;73.97 
4.267;0.07;1.06;-0.34;-1.81;2.50;1.74;454.74;-613.80;34.00;1.12;175.03;4.81;74.02 
4.298;0.09;1.02;-0.33;-1.39;0.97;2.16;454.74;-614.75;35.00;1.08;175.02;4.86;74.07 
4.328;0.09;1.06;-0.36;-0.28;0.70;3.48;454.74;-614.75;32.00;1.12;174.99;4.91;74.09 
4.358;0.07;1.06;-0.38;-0.35;2.23;5.57;453.74;-616.66;31.00;1.13;174.93;4.99;74.05 
4.389;0.11;1.05;-0.36;-1.18;2.16;5.63;454.74;-615.71;29.00;1.12;174.78;5.18;74.03 
4.419;0.12;1.02;-0.33;-1.53;1.74;4.73;452.75;-616.66;29.00;1.08;174.66;5.33;74.03 
4.449;0.14;1.02;-0.36;-1.46;0.00;3.69;454.74;-618.57;31.00;1.09;174.55;5.46;74.03 
4.479;0.12;1.02;-0.36;-1.46;0.28;2.16;452.75;-620.48;30.00;1.09;174.49;5.53;74.03 
4.509;0.12;1.05;-0.34;-1.25;0.14;1.67;454.74;-619.52;31.00;1.11;174.44;5.60;74.03 
4.539;0.11;1.10;-0.35;-0.49;0.14;0.90;451.75;-617.62;28.00;1.16;174.42;5.65;74.03 
4.569;0.12;1.02;-0.35;-0.70;-0.77;-1.18;454.74;-618.57;30.00;1.09;174.44;5.64;74.05 
4.600;0.09;1.03;-0.34;-0.77;-0.07;-1.88;449.76;-619.52;29.00;1.09;174.52;5.58;74.08 
4.630;0.10;1.06;-0.35;-0.56;-0.21;-0.14;450.76;-617.62;30.00;1.12;174.59;5.53;74.09 
4.660;0.11;1.02;-0.35;-0.28;-0.07;-0.35;453.74;-616.66;31.00;1.08;174.62;5.51;74.08 
4.690;0.13;1.02;-0.32;0.07;0.42;-4.10;454.74;-616.66;33.00;1.08;174.69;5.46;74.10 
4.720;0.06;1.04;-0.35;0.70;-0.56;-3.97;453.74;-616.66;31.00;1.10;174.84;5.33;74.13 
4.750;0.09;1.04;-0.36;2.57;0.42;-1.95;455.73;-614.75;34.00;1.10;175.00;5.20;74.13 
4.780;0.10;1.02;-0.34;2.23;1.81;-1.95;452.75;-617.62;33.00;1.08;175.09;5.14;74.04 
4.811;0.11;1.03;-0.32;1.74;1.25;-3.06;454.74;-615.71;30.00;1.08;175.19;5.07;73.98 
4.841;0.08;1.06;-0.32;1.11;0.07;-1.88;455.73;-616.66;31.00;1.11;175.31;4.99;73.94 
4.871;0.07;1.04;-0.37;0.63;0.49;-1.11;457.72;-613.80;37.00;1.11;175.39;4.93;73.91 
4.902;0.09;1.04;-0.39;-0.42;0.49;0.83;451.75;-615.71;33.00;1.11;175.44;4.91;73.89 
4.932;0.09;1.02;-0.35;-0.56;0.00;1.46;454.74;-613.80;33.00;1.08;175.43;4.93;73.88 
4.961;0.08;1.02;-0.38;-1.46;0.07;0.70;459.71;-616.66;33.00;1.09;175.44;4.95;73.87 
4.990;0.08;1.04;-0.33;-1.53;0.42;1.39;454.74;-615.71;32.00;1.09;175.44;4.96;73.89 
5.019;0.09;1.04;-0.34;-0.90;0.56;0.77;455.73;-614.75;34.00;1.10;175.43;4.99;73.92 
5.049;0.10;1.05;-0.34;-1.18;-0.77;0.21;454.74;-613.80;32.00;1.11;175.46;4.98;73.94 
5.079;0.08;1.04;-0.36;-0.63;1.04;-0.42;452.75;-616.66;33.00;1.10;175.51;4.94;73.96 
5.110;0.07;1.03;-0.32;-0.21;0.97;0.83;452.75;-615.71;31.00;1.08;175.52;4.96;73.97 
5.140;0.11;1.03;-0.34;0.35;0.56;0.70;454.74;-617.62;34.00;1.09;175.50;5.01;73.94 
5.170;0.10;1.03;-0.36;0.83;1.74;0.90;453.74;-614.75;29.00;1.10;175.51;5.03;73.90 
5.201;0.13;1.03;-0.34;0.77;1.67;0.14;452.75;-615.71;31.00;1.09;175.50;5.07;73.85 
5.231;0.12;1.02;-0.34;-0.07;-0.14;-2.16;453.74;-618.57;32.00;1.08;175.54;5.06;73.83 
5.261;0.08;1.04;-0.36;0.14;-0.28;-2.16;454.74;-618.57;28.00;1.10;175.63;4.99;73.84 
5.291;0.12;1.02;-0.36;0.21;0.42;-1.46;452.75;-616.66;34.00;1.09;175.72;4.92;73.84 
5.322;0.12;1.02;-0.33;0.42;0.07;-2.37;456.73;-615.71;33.00;1.08;175.80;4.85;73.83 
5.351;0.07;1.03;-0.36;0.07;-0.21;-3.13;455.73;-614.75;33.00;1.09;175.92;4.76;73.83 
5.380;0.09;1.04;-0.33;0.77;0.07;-1.88;454.74;-613.80;32.00;1.09;176.03;4.67;73.83 
5.411;0.10;1.04;-0.34;0.63;0.56;-0.35;454.74;-616.66;30.00;1.10;176.11;4.61;73.80 
5.441;0.08;1.03;-0.36;-0.28;0.35;-0.21;457.72;-612.84;31.00;1.09;176.16;4.58;73.79 
5.471;0.08;1.04;-0.34;-0.70;0.56;0.70;456.73;-615.71;34.00;1.10;176.20;4.57;73.77 
5.501;0.08;1.04;-0.36;-1.67;0.56;1.81;456.73;-613.80;32.00;1.10;176.19;4.59;73.77 
5.531;0.08;1.04;-0.38;-1.32;1.46;2.71;455.73;-612.84;31.00;1.11;176.18;4.63;73.80 
5.561;0.06;1.03;-0.32;-0.63;1.32;1.95;458.72;-615.71;32.00;1.08;176.13;4.69;73.82 
5.591;0.12;1.02;-0.34;-0.56;1.11;2.16;456.73;-613.80;34.00;1.08;176.09;4.76;73.80 
5.622;0.10;1.06;-0.34;0.14;1.25;1.11;453.74;-613.80;33.00;1.12;176.05;4.83;73.75 
5.652;0.10;1.02;-0.36;0.00;1.25;0.70;453.74;-619.52;33.00;1.09;176.06;4.84;73.72 
5.682;0.10;1.02;-0.35;-0.77;0.49;0.21;455.73;-614.75;36.00;1.08;176.07;4.86;73.71 
5.713;0.09;1.03;-0.33;-1.25;-0.35;0.28;456.73;-616.66;30.00;1.09;176.09;4.86;73.70 
5.742;0.10;1.04;-0.35;-0.83;-0.56;-0.35;455.73;-615.71;31.00;1.10;176.11;4.85;73.70 
5.771;0.10;1.04;-0.34;-0.83;-0.21;-1.53;456.73;-615.71;30.00;1.10;176.15;4.82;73.70 
5.800;0.09;1.04;-0.37;-0.97;0.00;-1.67;454.74;-614.75;32.00;1.11;176.22;4.78;73.71 
5.829;0.09;1.02;-0.34;-0.28;0.56;-0.97;453.74;-615.71;34.00;1.08;176.28;4.74;73.71 
5.859;0.10;1.02;-0.35;-0.35;0.56;-0.28;453.74;-614.75;32.00;1.08;176.32;4.73;73.68 
5.889;0.11;1.04;-0.38;-1.25;0.28;-1.32;452.75;-614.75;33.00;1.11;176.37;4.69;73.67 
5.920;0.06;1.06;-0.35;-1.60;0.70;0.07;456.73;-616.66;34.00;1.12;176.45;4.63;73.72 
5.950;0.06;1.05;-0.35;0.83;2.16;2.57;453.74;-617.62;33.00;1.11;176.46;4.65;73.70 
5.980;0.10;1.02;-0.37;0.90;2.57;1.95;454.74;-616.66;33.00;1.09;176.41;4.74;73.61 
6.011;0.13;1.02;-0.34;0.35;2.37;-0.14;452.75;-614.75;31.00;1.08;176.39;4.80;73.55 
6.041;0.10;1.02;-0.37;0.83;1.25;-0.97;456.73;-616.66;32.00;1.09;176.44;4.79;73.53 
6.071;0.08;1.05;-0.34;0.77;1.04;-0.83;456.73;-618.57;29.00;1.11;176.48;4.78;73.47 
6.101;0.10;1.03;-0.37;0.56;1.32;-2.30;454.74;-614.75;32.00;1.10;176.55;4.74;73.43 
6.131;0.10;1.05;-0.38;-0.07;0.49;-2.78;455.73;-617.62;32.00;1.12;176.66;4.66;73.42 
6.161;0.08;1.02;-0.38;0.83;0.28;-3.76;455.73;-615.71;32.00;1.09;176.78;4.57;73.39 
6.191;0.09;1.03;-0.35;1.32;0.35;-3.27;455.73;-613.80;33.00;1.09;176.91;4.46;73.37 
6.221;0.09;1.02;-0.34;2.02;0.70;-4.31;458.72;-615.71;34.00;1.08;177.03;4.38;73.32 
6.250;0.12;1.02;-0.34;1.81;0.70;-5.01;458.72;-615.71;36.00;1.08;177.19;4.25;73.27 
6.279;0.08;1.04;-0.35;1.60;0.14;-4.80;456.73;-610.93;34.00;1.10;177.35;4.13;73.24 
6.308;0.08;1.01;-0.30;1.46;-0.42;-4.66;457.72;-610.93;33.00;1.06;177.52;3.99;73.21 
6.338;0.08;1.05;-0.34;1.04;-0.28;-3.69;459.71;-610.93;32.00;1.11;177.68;3.85;73.17 
6.368;0.08;1.05;-0.38;-0.21;-0.77;-2.78;457.72;-611.89;36.00;1.12;177.81;3.74;73.14 
6.398;0.07;1.04;-0.35;-0.35;-0.70;-1.25;460.71;-610.93;31.00;1.10;177.89;3.67;73.14 
6.428;0.06;1.04;-0.38;-0.28;0.49;0.35;462.70;-608.07;32.00;1.11;177.94;3.64;73.12 
6.458;0.07;1.05;-0.38;-0.83;0.35;1.18;457.72;-611.89;34.00;1.12;177.94;3.66;73.11 
6.488;0.07;1.03;-0.34;-0.83;0.28;0.49;458.72;-607.11;34.00;1.09;177.93;3.68;73.11 
6.519;0.09;1.02;-0.34;-0.77;0.49;1.39;458.72;-609.02;34.00;1.08;177.93;3.71;73.11 
6.549;0.09;1.02;-0.34;-0.21;0.97;1.32;460.71;-608.07;34.00;1.08;177.91;3.74;73.09 
6.579;0.07;1.05;-0.35;-0.07;0.42;0.77;457.72;-612.84;35.00;1.11;177.92;3.77;73.05 
6.609;0.08;1.04;-0.37;-0.35;0.56;0.83;461.70;-611.89;33.00;1.11;177.92;3.78;73.03 
6.639;0.09;1.03;-0.36;-0.49;0.77;1.18;457.72;-609.02;33.00;1.09;177.91;3.82;73.00 
6.668;0.08;1.02;-0.34;-0.63;0.14;-0.28;460.71;-612.84;35.00;1.08;177.91;3.84;72.99 
6.697;0.09;1.03;-0.38;-0.28;-0.63;-1.11;459.71;-613.80;33.00;1.10;177.94;3.82;72.99 
6.726;0.06;1.05;-0.35;-0.42;-0.21;-0.14;458.72;-612.84;34.00;1.11;177.99;3.78;72.97 
6.756;0.10;1.03;-0.35;-0.35;0.21;-0.63;459.71;-612.84;35.00;1.09;178.02;3.78;72.96 
6.786;0.08;1.04;-0.34;0.07;0.00;-1.04;460.71;-610.93;34.00;1.10;178.07;3.74;72.95 
6.817;0.07;1.03;-0.34;0.35;0.07;-0.28;459.71;-609.98;34.00;1.09;178.13;3.71;72.91 
6.847;0.06;1.06;-0.39;-0.07;0.90;0.14;458.72;-609.02;34.00;1.13;178.16;3.70;72.86 
6.877;0.10;1.03;-0.37;0.21;0.63;0.21;457.72;-610.93;33.00;1.10;178.18;3.70;72.83 
6.908;0.06;1.04;-0.34;-0.14;0.14;-0.14;459.71;-610.93;35.00;1.10;178.19;3.72;72.80 
6.938;0.08;1.06;-0.34;-0.28;0.35;0.42;461.70;-611.89;35.00;1.12;178.21;3.72;72.76 
6.968;0.09;1.03;-0.35;-0.07;-0.07;0.56;459.71;-610.93;34.00;1.09;178.23;3.72;72.73 
6.997;0.06;1.04;-0.35;-0.35;0.42;0.28;461.70;-611.89;34.00;1.10;178.25;3.73;72.70 
7.026;0.06;1.03;-0.35;-0.49;0.90;0.77;461.70;-610.93;35.00;1.09;178.26;3.74;72.68 
7.056;0.10;1.02;-0.35;-0.42;0.35;-0.49;461.70;-610.93;36.00;1.08;178.28;3.74;72.66 
7.086;0.09;1.04;-0.34;-0.35;-0.28;0.28;459.71;-610.93;37.00;1.10;178.30;3.73;72.63 
7.117;0.09;1.05;-0.34;-0.28;0.63;1.18;460.71;-609.02;36.00;1.11;178.32;3.74;72.59 
7.147;0.07;1.06;-0.37;-0.63;1.11;0.56;457.72;-610.93;34.00;1.12;178.33;3.75;72.60 
7.177;0.10;1.03;-0.34;-0.56;0.00;-0.35;459.71;-610.93;35.00;1.09;178.34;3.76;72.57 
7.207;0.07;1.05;-0.38;-0.56;0.21;0.21;459.71;-610.93;33.00;1.12;178.38;3.75;72.56 
7.237;0.08;1.04;-0.37;0.07;0.90;0.83;458.72;-610.93;34.00;1.11;178.39;3.76;72.52 
7.267;0.09;1.02;-0.34;-0.35;0.42;-0.70;458.72;-612.84;34.00;1.08;178.42;3.76;72.50 
7.296;0.07;1.06;-0.36;0.21;0.00;-0.28;458.72;-609.98;33.00;1.12;178.45;3.74;72.48 
7.327;0.09;1.02;-0.39;0.14;1.04;0.07;460.71;-611.89;34.00;1.10;178.48;3.74;72.44 
7.357;0.09;1.02;-0.36;-0.42;0.90;-0.42;457.72;-609.02;36.00;1.09;178.52;3.73;72.43 
7.387;0.09;1.06;-0.36;-0.14;0.35;-0.49;458.72;-609.98;35.00;1.12;178.55;3.72;72.39 
7.418;0.08;1.04;-0.37;-0.49;0.63;0.07;455.73;-609.98;33.00;1.11;178.60;3.70;72.37 
7.448;0.09;1.06;-0.35;0.00;0.97;-0.28;460.71;-608.07;33.00;1.12;178.65;3.67;72.33 
7.478;0.07;1.03;-0.36;0.07;0.21;-0.07;463.69;-609.98;34.00;1.09;178.67;3.68;72.29 
7.508;0.07;1.04;-0.36;-0.35;0.77;0.00;460.71;-609.98;33.00;1.10;178.69;3.68;72.26 
7.538;0.10;1.04;-0.36;-0.56;1.04;0.63;459.71;-609.98;33.00;1.11;178.74;3.67;72.25 
7.568;0.09;1.02;-0.34;-0.14;0.42;-0.42;457.72;-609.02;36.00;1.08;178.76;3.67;72.22 
7.598;0.08;1.03;-0.34;-0.07;0.21;-0.28;461.70;-609.02;30.00;1.09;178.79;3.66;72.21 
7.629;0.06;1.04;-0.36;0.07;0.77;0.07;458.72;-609.02;35.00;1.10;178.82;3.65;72.19 
7.658;0.07;1.05;-0.35;-0.14;0.90;-0.35;461.70;-609.98;31.00;1.11;178.86;3.64;72.16 
7.687;0.07;1.04;-0.38;-0.21;0.21;-0.90;457.72;-611.89;35.00;1.11;178.89;3.64;72.14 
7.716;0.09;1.06;-0.36;-0.49;0.14;-0.28;461.70;-611.89;32.00;1.12;178.93;3.61;72.14 
7.745;0.06;1.04;-0.38;0.00;1.25;0.42;459.71;-612.84;33.00;1.11;178.95;3.61;72.12 
7.775;0.10;1.02;-0.34;-0.07;0.90;-0.28;460.71;-609.02;35.00;1.08;178.97;3.62;72.08 
7.805;0.08;1.06;-0.38;0.00;0.63;-0.83;459.71;-609.98;37.00;1.13;179.01;3.61;72.07 
7.835;0.06;1.02;-0.38;0.21;0.90;-0.35;462.70;-610.93;36.00;1.09;179.05;3.60;72.05 
7.865;0.03;1.02;-0.41;0.28;0.63;0.35;462.70;-610.93;33.00;1.10;179.07;3.60;72.02 
7.895;0.08;1.02;-0.37;-0.56;0.63;0.42;460.71;-610.93;32.00;1.09;179.08;3.62;71.99 
7.926;0.08;1.02;-0.37;-0.63;0.14;0.14;461.70;-610.93;37.00;1.09;179.10;3.62;71.96 
7.956;0.08;1.03;-0.38;-0.35;0.28;0.14;457.72;-611.89;35.00;1.10;179.11;3.63;71.92 
7.986;0.06;1.00;-0.33;-0.42;0.28;0.35;459.71;-609.02;34.00;1.05;179.13;3.64;71.89 
8.017;0.07;1.02;-0.36;-0.70;0.21;-0.07;461.70;-609.98;36.00;1.08;179.13;3.65;71.88 
8.047;0.06;1.03;-0.37;-0.49;0.77;0.49;459.71;-610.93;32.00;1.10;179.16;3.64;71.86 
8.077;0.06;1.04;-0.32;0.00;0.77;-0.42;457.72;-610.93;35.00;1.09;179.18;3.64;71.84 
8.107;0.07;1.02;-0.37;-0.14;0.83;-0.21;458.72;-613.80;36.00;1.09;179.21;3.64;71.81 
8.138;0.06;1.04;-0.33;-0.35;1.11;0.90;457.72;-611.89;32.00;1.09;179.23;3.64;71.80 
8.168;0.08;1.05;-0.37;0.00;1.32;1.67;460.71;-609.02;32.00;1.12;179.24;3.66;71.78 
8.198;0.08;1.02;-0.35;-0.14;0.49;0.90;457.72;-609.98;36.00;1.08;179.22;3.70;71.75 
8.228;0.10;1.02;-0.36;-0.70;-0.21;0.14;460.71;-611.89;34.00;1.09;179.21;3.73;71.73 
8.257;0.08;1.02;-0.36;-0.83;0.56;0.56;459.71;-610.93;34.00;1.08;179.22;3.74;71.71 
8.286;0.09;1.04;-0.35;-0.56;0.21;0.07;459.71;-611.89;34.00;1.10;179.22;3.76;71.69 
8.315;0.09;1.03;-0.36;-0.77;0.49;-0.35;458.72;-609.98;32.00;1.09;179.22;3.77;71.68 
8.345;0.07;1.06;-0.36;-0.42;0.70;-0.14;460.71;-611.89;32.00;1.12;179.25;3.76;71.68 
8.375;0.08;1.04;-0.31;0.07;1.25;0.42;458.72;-610.93;34.00;1.09;179.27;3.77;71.65 
8.405;0.07;1.02;-0.32;0.07;0.83;0.07;456.73;-609.98;33.00;1.07;179.30;3.77;71.63 
8.435;0.07;1.05;-0.34;-0.07;0.56;0.42;458.72;-610.93;34.00;1.11;179.31;3.77;71.61 
8.465;0.08;1.05;-0.36;-0.07;0.70;1.32;459.71;-611.89;33.00;1.11;179.32;3.79;71.57 
8.495;0.05;1.02;-0.33;0.70;1.60;2.02;461.70;-610.93;32.00;1.07;179.31;3.84;71.51 
8.526;0.10;1.03;-0.34;0.28;0.28;1.46;458.72;-611.89;33.00;1.09;179.28;3.90;71.47 
8.556;0.10;1.02;-0.34;-0.28;0.70;-1.11;458.72;-612.84;31.00;1.08;179.29;3.91;71.43 
8.586;0.06;1.05;-0.38;-0.49;0.14;-0.07;457.72;-612.84;32.00;1.12;179.32;3.89;71.42 
8.616;0.05;1.02;-0.34;0.00;0.77;0.07;459.71;-610.93;33.00;1.08;179.35;3.89;71.39 
8.645;0.07;1.03;-0.34;0.00;0.56;-0.56;458.72;-610.93;30.00;1.09;179.36;3.91;71.35 
8.675;0.06;1.03;-0.36;-0.35;0.14;-0.14;460.71;-610.93;34.00;1.09;179.39;3.90;71.32 
8.705;0.06;1.06;-0.38;0.00;0.28;0.35;457.72;-611.89;31.00;1.13;179.41;3.90;71.30 
8.736;0.07;1.02;-0.35;-0.42;0.77;0.56;459.71;-609.02;34.00;1.08;179.43;3.90;71.28 
8.766;0.09;1.02;-0.36;-0.28;0.90;0.14;460.71;-609.98;37.00;1.09;179.45;3.90;71.26 
8.796;0.07;1.02;-0.33;0.14;0.49;0.00;459.71;-612.84;31.00;1.07;179.46;3.91;71.23 
8.827;0.08;1.02;-0.37;0.49;0.56;-0.35;459.71;-611.89;33.00;1.09;179.48;3.92;71.21 
8.857;0.08;1.02;-0.37;0.21;0.63;-0.28;458.72;-612.84;33.00;1.09;179.51;3.92;71.18 
8.887;0.08;1.04;-0.37;0.35;0.49;-0.63;459.71;-609.02;29.00;1.11;179.53;3.92;71.15 
8.917;0.09;1.02;-0.35;0.07;0.63;-1.18;461.70;-611.89;32.00;1.08;179.57;3.91;71.12 
8.946;0.09;1.02;-0.38;-0.21;0.00;-1.04;463.69;-611.89;33.00;1.09;179.62;3.88;71.12 
8.976;0.08;1.02;-0.38;0.07;-0.49;-1.25;459.71;-611.89;35.00;1.09;179.67;3.83;71.15 
9.006;0.06;1.03;-0.38;-0.14;0.07;-0.97;458.72;-609.02;31.00;1.10;179.72;3.80;71.11 
9.037;0.08;1.04;-0.38;-0.28;0.49;-0.49;459.71;-610.93;33.00;1.11;179.76;3.78;71.09 
9.067;0.09;1.02;-0.34;0.21;-0.28;0.35;458.72;-609.02;34.00;1.08;179.77;3.79;71.07 
9.097;0.07;1.03;-0.38;-0.07;0.56;0.14;458.72;-610.93;33.00;1.10;179.77;3.80;71.07 
9.127;0.08;1.03;-0.37;-0.42;1.18;1.60;458.72;-610.93;33.00;1.10;179.77;3.83;71.03 
9.157;0.10;1.02;-0.36;0.21;0.77;0.28;458.72;-609.02;33.00;1.09;179.78;3.84;71.01 
9.187;0.08;1.05;-0.35;0.14;-0.35;-0.42;461.70;-611.89;33.00;1.11;179.79;3.85;70.99 
9.217;0.08;1.05;-0.38;-0.21;0.28;-0.28;461.70;-610.93;35.00;1.12;179.81;3.84;70.97 
9.247;0.10;1.02;-0.35;-0.42;0.35;0.56;455.73;-610.93;35.00;1.08;179.83;3.84;70.94 
9.276;0.08;1.05;-0.36;-0.63;-0.56;-0.70;460.71;-611.89;33.00;1.11;179.84;3.85;70.92 
9.305;0.10;1.04;-0.36;-0.70;-0.07;-0.35;460.71;-608.07;34.00;1.11;179.88;3.82;70.93 
9.336;0.08;1.04;-0.36;0.07;0.00;-0.35;459.71;-609.98;36.00;1.10;179.90;3.82;70.90 
9.366;0.09;1.03;-0.36;-0.35;0.14;-1.60;459.71;-612.84;31.00;1.09;179.94;3.79;70.88 
9.396;0.08;1.05;-0.37;0.35;0.42;-0.35;460.71;-608.07;32.00;1.12;-180.00;3.75;70.86 
9.426;0.06;1.03;-0.38;0.42;0.35;0.70;459.71;-610.93;34.00;1.10;-179.97;3.74;70.82 
9.456;0.10;1.04;-0.34;-0.63;0.56;0.07;460.71;-609.98;34.00;1.10;-179.96;3.76;70.78 
9.486;0.09;1.02;-0.34;-1.11;0.07;-1.25;462.70;-610.93;35.00;1.08;-179.95;3.76;70.79 
9.516;0.07;1.03;-0.38;-0.49;-0.77;-0.83;461.70;-609.98;36.00;1.10;-179.91;3.73;70.79 
9.547;0.08;1.04;-0.37;-0.42;-0.14;-0.42;460.71;-610.93;35.00;1.11;-179.88;3.71;70.79 
9.577;0.07;1.04;-0.37;-0.56;0.14;-0.56;460.71;-610.93;37.00;1.11;-179.85;3.69;70.79 
9.607;0.08;1.03;-0.35;-0.07;0.00;-1.04;461.70;-610.93;32.00;1.09;-179.80;3.66;70.77 
9.637;0.08;1.02;-0.31;0.35;-0.56;-0.56;457.72;-607.11;34.00;1.07;-179.75;3.63;70.74 
9.666;0.09;1.02;-0.38;-0.35;0.28;-1.04;458.72;-609.02;36.00;1.09;-179.72;3.62;70.71 
9.696;0.07;1.05;-0.35;-0.28;1.04;-0.63;458.72;-609.98;33.00;1.11;-179.68;3.60;70.69 
9.726;0.06;1.02;-0.36;0.63;0.42;-0.97;459.71;-610.93;37.00;1.08;-179.64;3.59;70.67 
9.756;0.08;1.02;-0.37;1.11;-0.14;0.07;460.71;-609.98;35.00;1.09;-179.62;3.59;70.59 
9.786;0.09;1.02;-0.36;0.21;-0.14;-0.83;462.70;-610.93;38.00;1.09;-179.58;3.57;70.53 
9.816;0.07;1.02;-0.38;-0.97;-0.42;-0.14;462.70;-608.07;35.00;1.09;-179.54;3.55;70.53 
9.847;0.08;1.03;-0.37;-1.11;-0.28;0.35;463.69;-608.07;36.00;1.10;-179.53;3.54;70.52 
9.877;0.05;1.03;-0.38;-1.04;0.14;1.18;459.71;-608.07;34.00;1.10;-179.55;3.57;70.52 
9.907;0.06;1.04;-0.38;-0.97;1.25;1.81;456.73;-609.98;37.00;1.11;-179.57;3.61;70.50 
9.937;0.08;1.05;-0.34;-0.70;0.77;1.18;461.70;-609.98;35.00;1.11;-179.62;3.67;70.48 
9.967;0.08;1.03;-0.37;0.07;1.04;0.77;461.70;-610.93;37.00;1.10;-179.64;3.72;70.46 
9.997;0.08;1.03;-0.26;0.21;1.25;0.35;461.70;-609.98;39.00;1.07;-179.64;3.75;70.42 
10.027;0.10;1.02;-0.38;0.49;1.11;-0.28;459.71;-608.07;33.00;1.09;-179.64;3.77;70.40 
10.058;0.07;1.04;-0.36;0.14;0.63;-0.83;460.71;-610.93;37.00;1.10;-179.61;3.77;70.37 
10.088;0.06;1.06;-0.38;-0.49;0.42;1.18;462.70;-610.93;36.00;1.13;-179.58;3.76;70.35 
10.118;0.02;1.08;-0.33;-0.90;0.77;6.12;459.71;-612.84;32.00;1.13;-179.63;3.83;70.30 
10.149;0.00;1.12;-0.40;-1.95;4.03;18.78;457.72;-613.80;33.00;1.19;-179.96;4.15;70.26 
10.178;-0.04;1.15;-0.38;-4.24;9.74;35.76;453.74;-615.71;36.00;1.21;179.26;4.96;70.14 
10.208;0.08;1.11;-0.41;-2.78;14.89;40.28;449.76;-623.34;33.00;1.19;178.19;6.08;69.90 
