Time(s) acc_x(g) acc_y(g) acc_z(g) gyr_x(°/s) gyr_y(°/s) gyr_z(°/s) mag_x(G) mag_y(G) mag_z(G) SVM(g) yaw(°) pitch(°) roll(°)
0.000;-0.46;0.01;0.62;6.96;14.47;-4.94;152.62;-347.88;-403.00;0.77;-138.84;-14.40;-1.38 
0.030;-0.45;0.00;0.80;10.16;22.47;-2.78;153.62;-345.97;-407.00;0.92;-139.11;-15.19;-1.07 
0.060;-0.50;0.00;0.83;10.09;10.23;-6.96;152.62;-343.11;-404.00;0.97;-139.34;-15.82;-0.81 
0.091;-0.50;0.03;0.74;11.62;4.59;-5.91;160.60;-338.35;-404.00;0.89;-139.60;-16.14;-0.52 
0.121;-0.51;0.05;0.73;12.17;10.64;-3.97;164.59;-332.63;-406.00;0.89;-139.84;-16.57;-0.14 
0.151;-0.50;0.10;0.78;12.94;7.17;1.74;165.59;-337.39;-404.00;0.93;-140.23;-17.04;0.32 
0.181;-0.54;0.04;0.77;13.77;-1.18;9.04;167.59;-335.49;-405.00;0.94;-140.83;-17.27;0.83 
0.212;-0.56;0.06;0.80;8.14;5.01;9.04;172.57;-337.39;-404.00;0.98;-141.49;-17.54;1.26 
0.242;-0.63;0.03;0.85;0.14;0.56;2.78;171.58;-339.30;-400.00;1.06;-142.12;-17.83;1.53 
0.272;-0.58;0.07;0.82;-6.89;-8.97;-1.60;171.58;-337.39;-402.00;1.01;-142.63;-17.95;1.51 
0.303;-0.51;0.13;0.66;-7.03;-12.73;-0.49;172.57;-338.35;-403.00;0.84;-143.17;-17.82;1.42 
0.333;-0.50;0.17;0.58;-3.55;-1.60;4.52;170.58;-342.16;-402.00;0.78;-143.79;-17.84;1.49 
0.362;-0.54;0.17;0.66;-2.30;16.07;6.89;171.58;-341.20;-403.00;0.87;-144.43;-18.30;1.67 
0.392;-0.56;0.21;0.78;-2.85;12.94;7.51;167.59;-342.16;-399.00;0.98;-145.02;-18.98;1.86 
0.421;-0.59;0.26;0.82;-3.41;-6.68;11.34;168.58;-336.44;-403.00;1.04;-145.82;-19.28;2.09 
0.451;-0.62;0.29;0.73;-0.42;-19.20;15.72;168.58;-342.16;-403.00;1.00;-146.72;-19.06;2.40 
0.481;-0.57;0.25;0.66;0.00;-16.63;17.11;169.58;-346.92;-404.00;0.91;-147.76;-18.73;2.82 
0.512;-0.51;0.22;0.63;0.97;-10.30;10.71;168.58;-352.64;-400.00;0.84;-148.73;-18.54;3.24 
0.542;-0.52;0.32;0.72;5.70;-6.96;7.72;170.58;-352.64;-401.00;0.94;-149.48;-18.49;3.69 
0.572;-0.50;0.33;0.77;7.72;-8.42;8.00;171.58;-355.50;-400.00;0.98;-150.18;-18.42;4.28 
0.602;-0.43;0.29;0.78;4.80;-17.18;3.55;171.58;-359.31;-401.00;0.94;-150.82;-18.19;4.81 
0.631;-0.35;0.32;0.65;5.70;-12.94;-0.90;174.57;-363.13;-399.00;0.80;-151.32;-17.87;5.23 
0.660;-0.50;0.34;0.70;6.89;-3.41;-0.77;174.57;-366.94;-395.00;0.92;-151.72;-17.79;5.72 
0.689;-0.47;0.34;0.74;5.36;-1.46;-0.56;180.55;-369.80;-396.00;0.94;-152.09;-17.86;6.17 
0.718;-0.42;0.31;0.75;6.05;-1.74;-1.53;180.55;-368.84;-400.00;0.91;-152.49;-17.93;6.62 
0.748;-0.40;0.27;0.74;5.50;-0.07;-0.49;178.56;-372.66;-399.00;0.88;-152.87;-18.01;7.09 
0.778;-0.37;0.25;0.72;3.20;-1.18;-6.68;179.56;-367.89;-394.00;0.85;-153.21;-18.07;7.45 
0.809;-0.39;0.22;0.78;-7.03;-9.53;-12.38;180.55;-368.84;-396.00;0.90;-153.37;-18.02;7.59 
0.839;-0.41;0.11;0.67;-14.40;-11.20;-14.19;177.56;-370.75;-397.00;0.79;-153.56;-17.83;7.32 
0.869;-0.54;0.28;0.60;-18.23;8.42;-17.95;175.57;-371.70;-402.00;0.85;-153.57;-17.94;6.87 
0.900;-0.58;0.31;0.79;-9.88;35.06;-7.03;169.58;-365.03;-397.00;1.03;-153.67;-18.96;6.62 
0.930;-0.71;0.38;0.86;-5.01;6.61;0.28;170.58;-360.27;-400.00;1.18;-153.94;-19.96;6.66 
0.960;-0.73;0.34;0.74;-0.14;-8.35;23.17;172.57;-356.45;-397.00;1.09;-154.68;-20.05;6.98 
0.990;-0.56;0.02;0.62;-8.00;-9.81;20.10;166.59;-364.08;-399.00;0.84;-155.86;-19.99;7.32 
1.020;-0.47;-0.04;0.57;-16.07;-4.31;-0.14;165.59;-365.03;-399.00;0.74;-156.67;-19.87;7.04 
1.050;-0.47;0.05;0.60;-8.49;28.38;-4.24;163.60;-365.03;-400.00;0.76;-157.13;-20.17;6.77 
1.080;-0.53;0.10;0.85;-7.51;44.17;1.11;156.61;-355.50;-399.00;1.01;-157.37;-21.51;6.63 
1.111;-0.51;0.00;0.97;-13.57;6.33;3.27;158.61;-351.69;-402.00;1.10;-157.85;-22.47;6.44 
1.141;-0.47;0.06;0.82;-12.45;-14.89;3.97;155.61;-351.69;-403.00;0.95;-158.49;-22.36;6.19 
1.171;-0.48;0.06;0.67;-10.16;-1.11;4.59;150.63;-354.55;-402.00;0.83;-159.17;-22.18;6.07 
1.201;-0.45;0.10;0.74;-11.13;12.10;7.17;151.62;-354.55;-405.00;0.87;-159.77;-22.50;5.94 
1.231;-0.47;0.13;0.76;-7.58;5.15;12.94;150.63;-347.88;-404.00;0.90;-160.54;-22.82;5.93 
1.261;-0.46;0.01;0.66;0.77;3.90;15.86;146.64;-351.69;-402.00;0.80;-161.37;-23.01;6.13 
1.291;-0.47;-0.05;0.76;3.48;7.23;11.41;149.63;-350.74;-400.00;0.89;-162.11;-23.15;6.49 
1.322;-0.51;0.01;0.75;1.67;5.77;8.56;146.64;-349.78;-400.00;0.91;-162.70;-23.43;6.76 
1.352;-0.51;0.08;0.71;5.29;8.97;8.83;148.63;-346.92;-399.00;0.88;-163.26;-23.77;7.09 
1.382;-0.56;0.03;0.75;7.72;5.15;12.59;153.62;-345.97;-402.00;0.94;-163.81;-24.11;7.53 
1.413;-0.54;0.03;0.75;6.47;-4.38;13.22;154.62;-349.78;-403.00;0.92;-164.45;-24.20;8.00 
1.443;-0.56;0.06;0.70;5.84;-4.24;12.52;154.62;-349.78;-401.00;0.90;-165.12;-24.11;8.43 
1.473;-0.55;0.05;0.74;6.75;2.64;13.98;159.60;-351.69;-402.00;0.92;-165.75;-24.24;8.87 
1.503;-0.56;0.10;0.73;4.73;-4.45;16.42;161.60;-357.41;-399.00;0.93;-166.41;-24.29;9.38 
1.533;-0.59;0.14;0.70;1.67;-8.14;18.16;161.60;-354.55;-399.00;0.93;-167.22;-24.17;9.83 
1.563;-0.54;0.16;0.68;1.39;-13.63;21.57;161.60;-356.45;-402.00;0.88;-168.08;-23.92;10.31 
1.593;-0.56;0.08;0.59;0.07;-14.61;23.03;166.59;-359.31;-398.00;0.82;-169.06;-23.54;10.76 
1.624;-0.64;0.06;0.62;0.90;-11.20;18.85;163.60;-363.13;-397.00;0.89;-169.98;-23.27;11.16 
1.654;-0.51;0.15;0.67;1.74;-17.74;18.78;161.60;-370.75;-395.00;0.86;-170.84;-22.96;11.58 
1.684;-0.53;0.21;0.69;5.08;-28.17;20.59;161.60;-374.56;-397.00;0.90;-171.66;-22.30;12.07 
1.714;-0.51;0.21;0.58;8.35;-35.76;18.78;163.60;-382.19;-398.00;0.80;-172.46;-21.42;12.69 
1.744;-0.34;0.22;0.53;7.30;-20.52;23.03;166.59;-394.58;-396.00;0.67;-173.30;-20.47;13.40 
1.774;-0.38;0.22;0.62;11.06;12.73;20.73;166.59;-396.48;-395.00;0.76;-174.09;-20.26;14.16 
1.804;-0.50;0.26;0.78;15.93;18.71;24.83;170.58;-397.44;-392.00;0.96;-174.76;-20.72;14.97 
1.835;-0.38;0.29;0.88;12.45;-13.29;33.60;168.58;-395.53;-394.00;1.00;-175.74;-20.67;15.99 
1.865;-0.34;0.22;0.76;4.10;-38.54;39.23;174.57;-403.16;-392.00;0.86;-177.05;-19.49;16.81 
1.895;-0.35;0.23;0.65;6.89;-35.06;36.52;177.56;-415.55;-387.00;0.77;-178.41;-18.06;17.50 
1.926;-0.38;0.19;0.65;13.91;-30.75;39.37;177.56;-426.03;-388.00;0.78;-179.64;-16.87;18.34 
1.955;-0.25;0.09;0.62;14.61;-36.17;41.53;182.55;-439.37;-384.00;0.67;179.05;-15.58;19.24 
1.985;-0.30;0.00;0.55;16.83;-34.64;38.75;176.56;-445.09;-383.00;0.63;177.85;-14.23;19.99 
2.015;-0.36;0.00;0.50;19.90;-32.21;26.78;182.55;-457.48;-379.00;0.62;176.87;-13.09;20.68 
2.045;-0.22;0.14;0.56;26.78;-10.43;21.84;186.54;-469.87;-379.00;0.62;176.20;-12.27;21.51 
2.075;-0.27;0.14;0.70;25.25;-8.83;25.04;191.53;-471.78;-375.00;0.76;175.53;-11.79;22.53 
2.105;-0.37;0.05;0.60;21.01;-37.43;29.63;192.52;-481.31;-374.00;0.71;174.76;-10.98;23.36 
2.136;-0.24;0.17;0.26;19.48;-21.50;26.23;194.52;-490.84;-368.00;0.39;174.01;-9.91;24.22 
2.166;0.00;0.12;0.46;32.63;33.74;29.57;196.51;-496.56;-369.00;0.48;173.18;-9.75;25.35 
2.195;-0.26;-0.03;0.77;47.44;3.41;36.24;203.50;-496.56;-368.00;0.81;172.30;-9.96;26.59 
2.224;-0.30;0.00;0.47;40.28;-41.74;12.31;212.47;-503.23;-363.00;0.56;171.72;-9.14;27.83 
2.254;0.01;0.25;0.18;45.36;-9.39;-7.37;219.46;-509.90;-362.00;0.31;171.90;-8.32;29.07 
2.283;0.10;0.24;0.63;71.37;12.59;12.45;229.43;-512.76;-363.00;0.68;171.92;-8.05;30.98 
2.313;-0.18;0.20;0.71;86.40;-54.47;12.03;246.39;-516.57;-357.00;0.76;171.80;-7.24;33.26 
2.343;0.02;0.27;0.34;105.53;-59.41;-4.87;260.36;-529.92;-352.00;0.43;172.34;-5.63;36.17 
2.373;0.10;0.31;0.61;135.58;-26.85;6.61;294.27;-541.35;-338.00;0.69;172.88;-4.35;39.94 
2.403;-0.51;0.58;0.78;136.70;-57.32;13.36;319.21;-544.21;-325.00;1.10;173.20;-3.23;43.99 
2.434;-0.44;1.53;0.50;122.85;-91.97;69.57;342.15;-560.41;-309.00;1.67;172.91;-0.69;48.48 
2.464;0.46;2.06;0.66;103.10;-108.03;238.26;349.14;-582.34;-292.00;2.21;169.21;4.19;51.79 
2.494;0.79;2.57;1.18;131.69;9.67;237.50;333.18;-635.71;-264.00;2.94;161.47;12.59;53.62 
2.524;-0.09;7.75;2.00;69.84;-33.88;-59.27;302.25;-655.72;-251.00;8.00;155.13;17.15;53.64 
2.553;-0.17;1.82;1.70;309.84;-239.72;329.39;320.21;-652.86;-233.00;2.50;151.59;20.37;56.11 
2.583;-1.02;-1.31;1.65;340.17;-347.41;204.80;315.22;-696.71;-170.00;2.34;147.97;29.00;57.51 
2.613;0.19;-2.27;0.72;152.63;-308.87;203.55;281.30;-738.64;-51.00;2.39;141.95;38.01;51.96 
2.642;1.54;-0.22;-0.50;11.27;-210.23;-133.57;293.27;-739.60;5.00;1.63;142.31;37.68;51.65 
2.672;0.08;1.54;-1.36;50.64;-96.28;31.23;296.27;-737.69;28.00;2.06;141.56;37.83;50.55 
2.702;0.50;0.64;-0.92;103.51;-68.17;13.22;291.28;-731.97;48.00;1.23;141.09;37.03;48.95 
2.733;0.70;0.79;-0.78;110.82;-67.41;-63.51;286.29;-728.16;71.00;1.31;141.68;35.51;47.60 
2.763;0.62;1.25;-1.17;73.11;-77.22;-8.70;294.27;-719.58;98.00;1.82;142.27;33.84;46.44 
2.792;0.35;0.95;-1.27;27.76;-43.27;13.22;290.28;-717.67;107.00;1.62;142.21;32.91;45.32 
2.822;0.29;0.59;-1.10;-6.33;-8.90;9.60;286.29;-714.81;116.00;1.28;141.58;32.89;44.50 
2.852;0.34;0.72;-0.77;-13.98;14.47;28.52;284.30;-711.96;113.00;1.11;141.09;33.32;44.20 
2.882;0.38;0.57;-0.62;0.83;-12.87;46.68;271.33;-716.72;113.00;0.92;139.85;34.42;43.31 
2.912;0.34;0.30;-0.70;5.70;-30.33;56.42;262.35;-715.77;116.00;0.83;138.02;35.61;41.71 
2.943;0.34;0.36;-1.02;0.63;-33.74;25.60;249.38;-717.67;119.00;1.13;136.27;36.41;40.10 
2.973;0.47;0.76;-1.28;-8.90;-15.44;15.86;250.38;-716.72;123.00;1.56;135.54;36.38;39.50 
3.003;0.67;0.77;-1.02;-16.42;11.48;4.38;244.40;-716.72;128.00;1.44;135.01;36.80;39.18 
3.034;0.65;0.66;-0.73;-20.94;7.65;6.89;245.39;-718.63;126.00;1.18;134.66;37.35;39.21 
3.064;0.58;0.72;-0.63;-27.20;12.59;-7.10;245.39;-720.53;122.00;1.12;134.60;37.72;39.56 
3.094;0.56;0.57;-0.54;-37.84;4.45;-13.29;246.39;-721.49;121.00;0.96;134.62;38.03;40.04 
3.124;0.65;0.73;-0.60;-47.72;3.20;-29.36;256.37;-720.53;114.00;1.15;135.16;37.79;41.14 
3.154;0.62;0.74;-0.59;-51.48;12.03;-23.72;265.34;-720.53;108.00;1.13;135.84;37.52;42.49 
3.184;0.66;0.78;-0.58;-55.72;26.16;-40.56;274.32;-721.49;103.00;1.17;136.72;37.26;43.99 
3.214;0.59;0.77;-0.44;-54.96;40.42;-47.23;286.29;-714.81;93.00;1.07;137.88;36.94;45.68 
3.245;0.66;0.88;-0.32;-57.04;51.48;-65.46;304.25;-711.00;74.00;1.15;139.76;36.16;47.98 
3.274;0.45;0.83;-0.19;-60.73;26.57;-60.94;317.21;-711.96;59.00;0.96;141.62;35.21;50.24 
3.304;0.46;0.82;-0.22;-76.17;-15.93;-72.28;328.19;-703.38;52.00;0.97;143.55;33.69;52.68 
3.334;0.23;0.93;-0.26;-69.50;-7.51;-76.31;346.14;-696.71;47.00;0.99;145.89;31.57;55.54 
3.364;0.20;1.17;-0.18;-53.36;24.07;-67.27;374.07;-686.22;30.00;1.20;148.27;29.64;58.22 
3.394;0.24;1.15;-0.03;-52.10;14.89;-64.07;380.06;-676.69;21.00;1.18;150.51;27.87;60.61 
3.424;0.25;1.02;0.06;-43.76;-9.32;-61.22;393.03;-671.93;15.00;1.05;152.58;26.13;62.82 
3.455;0.17;0.97;0.06;-23.30;-1.67;-61.50;404.00;-665.25;11.00;0.99;154.50;24.42;64.81 
3.485;0.16;1.02;0.02;-18.09;-1.25;-61.84;419.96;-651.91;5.00;1.03;156.47;22.61;66.77 
3.515;0.09;0.99;0.04;-7.37;-15.17;-52.66;432.93;-641.43;5.00;0.99;158.26;20.91;68.56 
3.545;0.25;1.04;0.01;2.09;-18.57;-41.46;436.92;-635.71;4.00;1.07;159.50;19.66;69.80 
3.575;0.00;1.18;-0.09;11.34;-31.30;-41.46;444.90;-627.13;9.00;1.18;160.57;18.48;70.88 
3.605;-0.04;1.25;-0.26;11.76;-27.55;-32.42;450.88;-618.55;19.00;1.28;161.56;17.29;71.86 
3.634;0.06;1.11;-0.32;12.87;-0.77;-24.90;453.88;-616.65;17.00;1.16;162.05;16.68;72.31 
3.664;0.05;1.02;-0.25;9.60;17.25;-26.78;457.87;-609.98;18.00;1.05;162.68;16.04;72.80 
3.693;0.02;1.10;-0.14;9.25;11.83;-20.31;461.86;-608.07;19.00;1.11;163.23;15.55;73.24 
3.723;0.01;1.08;-0.10;9.67;-3.90;-14.54;465.85;-603.30;18.00;1.08;163.49;15.30;73.42 
3.753;0.02;1.09;-0.22;7.10;-13.70;-12.38;463.85;-602.35;25.00;1.11;163.71;15.01;73.57 
3.782;-0.02;1.14;-0.30;2.92;-7.93;-11.41;465.85;-599.49;24.00;1.18;163.78;14.90;73.62 
3.812;-0.02;1.12;-0.29;-0.83;4.31;-9.11;466.84;-599.49;26.00;1.16;163.83;14.87;73.66 
3.843;-0.04;1.08;-0.22;-1.60;7.58;-2.99;468.84;-597.59;24.00;1.10;164.00;14.76;73.81 
3.873;-0.03;1.10;-0.18;-2.50;-0.21;2.43;468.84;-594.73;23.00;1.12;163.96;14.85;73.78 
3.903;0.01;1.09;-0.23;-2.85;-1.25;6.54;465.85;-599.49;21.00;1.11;163.62;15.24;73.48 
3.933;0.02;1.06;-0.21;-2.71;2.02;7.03;467.84;-599.49;26.00;1.08;163.21;15.70;73.11 
3.963;0.05;1.08;-0.19;-1.39;0.63;10.78;465.85;-601.40;21.00;1.10;162.69;16.27;72.63 
3.992;0.02;1.07;-0.21;0.28;0.21;12.03;466.84;-600.44;24.00;1.09;162.30;16.68;72.26 
4.022;0.05;1.08;-0.18;0.49;2.92;13.29;463.85;-606.16;23.00;1.10;161.86;17.14;71.83 
4.053;0.08;1.06;-0.21;0.63;5.57;12.31;459.86;-603.30;23.00;1.08;161.36;17.67;71.34 
4.083;0.08;1.06;-0.20;1.60;6.19;12.31;458.86;-609.02;19.00;1.08;160.87;18.20;70.85 
4.113;0.08;1.05;-0.16;2.64;4.52;10.57;458.86;-609.02;22.00;1.07;160.43;18.68;70.39 
4.144;0.13;1.06;-0.19;3.62;3.06;9.11;455.87;-611.88;24.00;1.08;160.01;19.11;69.97 
4.174;0.10;1.03;-0.22;3.06;1.18;8.49;454.87;-613.79;23.00;1.06;159.63;19.51;69.56 
4.204;0.10;1.05;-0.24;1.95;1.88;6.19;452.88;-614.74;24.00;1.08;159.29;19.85;69.22 
4.234;0.10;1.06;-0.22;0.90;3.62;4.59;452.88;-615.69;26.00;1.09;159.05;20.11;68.96 
4.263;0.10;1.02;-0.22;0.35;3.69;3.83;451.88;-617.60;24.00;1.05;158.83;20.36;68.73 
4.292;0.10;1.04;-0.18;0.00;2.09;2.37;449.89;-614.74;20.00;1.06;158.67;20.54;68.56 
4.321;0.10;1.07;-0.22;0.21;0.70;2.50;449.89;-617.60;25.00;1.10;158.53;20.71;68.41 
4.351;0.10;1.05;-0.21;0.21;1.04;1.39;451.88;-616.65;20.00;1.08;158.37;20.88;68.25 
4.380;0.11;1.04;-0.21;0.14;1.95;0.63;447.89;-617.60;26.00;1.07;158.27;20.99;68.14 
4.410;0.14;1.04;-0.22;-0.07;0.97;0.63;450.88;-615.69;25.00;1.07;158.17;21.11;68.02 
4.441;0.10;1.04;-0.18;-0.28;1.04;0.21;450.88;-614.74;27.00;1.06;158.07;21.22;67.92 
4.471;0.10;1.07;-0.17;0.00;0.97;-0.21;448.89;-619.51;26.00;1.09;158.02;21.29;67.86 
4.501;0.10;1.06;-0.22;-0.28;0.63;0.00;449.89;-617.60;26.00;1.09;157.98;21.35;67.81 
4.531;0.18;1.10;-0.14;-0.77;1.67;-1.04;447.89;-616.65;25.00;1.12;157.93;21.42;67.76 
4.561;0.10;1.05;-0.20;-0.49;1.18;-1.39;444.90;-616.65;25.00;1.07;157.91;21.46;67.72 
4.591;0.12;1.04;-0.21;-0.42;0.56;-1.04;447.89;-614.74;24.00;1.07;157.88;21.50;67.69 
4.621;0.10;1.05;-0.22;-0.49;1.32;-0.56;449.89;-619.51;25.00;1.08;157.85;21.54;67.64 
4.652;0.12;1.10;-0.22;-0.83;0.90;0.00;448.89;-617.60;24.00;1.13;157.83;21.58;67.60 
4.682;0.10;1.06;-0.20;-0.77;0.42;0.00;447.89;-617.60;27.00;1.08;157.78;21.64;67.55 
4.712;0.09;1.05;-0.22;-0.49;1.04;0.63;445.90;-615.69;26.00;1.08;157.74;21.69;67.49 
4.742;0.10;1.06;-0.23;-0.70;1.53;0.77;447.89;-616.65;27.00;1.09;157.69;21.76;67.43 
4.772;0.11;1.06;-0.19;-0.42;1.04;0.56;447.89;-617.60;25.00;1.08;157.62;21.84;67.36 
4.802;0.09;1.06;-0.20;-0.07;0.97;1.04;448.89;-617.60;24.00;1.08;157.57;21.90;67.29 
4.832;0.13;1.03;-0.21;-0.14;1.18;0.97;451.88;-617.60;25.00;1.06;157.51;21.97;67.22 
4.863;0.10;1.06;-0.20;0.07;1.39;0.77;449.89;-619.51;26.00;1.08;157.45;22.04;67.16 
4.892;0.08;1.06;-0.22;0.00;1.25;0.49;446.89;-617.60;21.00;1.09;157.39;22.11;67.08 
4.921;0.08;1.05;-0.21;0.07;0.56;0.83;449.89;-617.60;27.00;1.07;157.34;22.18;67.02 
4.952;0.08;1.06;-0.20;0.00;1.04;0.70;446.89;-619.51;25.00;1.08;157.31;22.23;66.97 
4.982;0.11;1.06;-0.24;-0.21;1.11;0.56;450.88;-620.46;25.00;1.09;157.28;22.27;66.93 
5.012;0.09;1.06;-0.18;-0.21;1.32;0.28;447.89;-618.55;24.00;1.08;157.23;22.33;66.87 
5.042;0.10;1.06;-0.21;-0.07;0.90;0.63;447.89;-618.55;27.00;1.09;157.19;22.38;66.81 
5.072;0.10;1.03;-0.21;-0.21;0.83;0.49;444.90;-616.65;26.00;1.06;157.17;22.41;66.78 
5.102;0.10;1.06;-0.22;-0.28;1.32;0.56;449.89;-620.46;28.00;1.09;157.14;22.45;66.74 
5.132;0.10;1.06;-0.19;-0.07;1.04;0.42;447.89;-618.55;25.00;1.08;157.12;22.48;66.71 
5.163;0.16;1.06;-0.18;0.07;0.35;0.83;447.89;-619.51;26.00;1.09;157.09;22.52;66.66 
5.193;0.11;1.06;-0.21;-0.07;0.90;0.42;446.89;-614.74;26.00;1.09;157.05;22.57;66.61 
5.223;0.11;1.05;-0.21;-0.21;1.39;0.56;445.90;-618.55;22.00;1.08;157.02;22.61;66.57 
5.254;0.09;1.06;-0.21;0.07;1.04;-0.14;445.90;-618.55;25.00;1.08;157.01;22.64;66.55 
5.284;0.12;1.05;-0.23;0.21;0.42;0.14;448.89;-621.41;27.00;1.08;157.01;22.65;66.53 
5.313;0.11;1.06;-0.22;0.07;0.63;0.00;446.89;-620.46;23.00;1.09;157.00;22.67;66.50 
5.343;0.07;1.06;-0.19;-0.42;0.97;0.21;448.89;-617.60;25.00;1.08;157.01;22.67;66.49 
5.373;0.11;1.04;-0.21;-0.14;1.39;0.21;447.89;-619.51;28.00;1.07;157.00;22.68;66.47 
5.403;0.13;1.06;-0.22;-0.14;1.04;0.63;447.89;-621.41;27.00;1.09;156.99;22.71;66.45 
5.433;0.10;1.06;-0.21;-0.21;0.97;0.77;446.89;-620.46;25.00;1.09;156.99;22.72;66.44 
5.464;0.13;1.05;-0.21;-0.28;1.32;0.70;444.90;-617.60;27.00;1.08;156.97;22.75;66.40 
5.494;0.14;1.06;-0.22;-0.28;1.53;0.77;441.91;-618.55;26.00;1.09;156.96;22.78;66.38 
5.524;0.10;1.04;-0.22;0.21;1.53;1.04;445.90;-619.51;28.00;1.07;156.94;22.81;66.35 
5.554;0.13;1.04;-0.20;0.21;1.11;0.28;446.89;-620.46;27.00;1.07;156.92;22.84;66.31 
5.584;0.10;1.04;-0.20;0.00;1.04;0.21;444.90;-618.55;31.00;1.06;156.93;22.84;66.30 
5.614;0.10;1.06;-0.21;0.07;0.83;0.14;446.89;-622.37;28.00;1.09;156.92;22.86;66.28 
5.644;0.12;1.06;-0.17;0.14;1.11;-0.14;445.90;-619.51;26.00;1.08;156.92;22.87;66.26 
5.675;0.10;1.06;-0.22;-0.56;1.46;-0.42;445.90;-620.46;27.00;1.09;156.95;22.86;66.27 
5.705;0.11;1.05;-0.20;-0.28;1.11;0.00;445.90;-620.46;28.00;1.07;156.96;22.85;66.27 
5.735;0.11;1.05;-0.22;-0.35;0.97;-0.35;447.89;-619.51;27.00;1.08;156.98;22.85;66.27 
5.766;0.10;1.05;-0.18;-0.21;1.39;-0.63;444.90;-618.55;25.00;1.07;157.02;22.82;66.29 
5.796;0.13;1.03;-0.23;-0.14;0.97;-0.56;447.89;-620.46;28.00;1.06;157.05;22.80;66.31 
5.826;0.10;1.07;-0.23;-0.14;0.77;-0.28;446.89;-617.60;28.00;1.10;157.10;22.76;66.33 
5.856;0.10;1.05;-0.21;-0.28;0.83;-0.56;443.90;-620.46;25.00;1.08;157.14;22.72;66.36 
5.887;0.10;1.08;-0.19;-0.42;1.11;-0.35;443.90;-618.55;26.00;1.10;157.19;22.69;66.38 
5.917;0.12;1.05;-0.18;-0.56;1.25;-0.70;448.89;-617.60;27.00;1.07;157.24;22.65;66.42 
5.947;0.10;1.06;-0.20;-0.56;0.97;-0.28;444.90;-618.55;30.00;1.08;157.26;22.64;66.42 
5.978;0.11;1.06;-0.21;-0.42;0.77;-0.97;448.89;-620.46;27.00;1.09;157.31;22.60;66.46 
6.008;0.11;1.05;-0.23;-0.49;0.83;-0.77;446.89;-619.51;27.00;1.08;157.38;22.55;66.50 
6.038;0.11;1.06;-0.22;-0.42;1.18;-0.42;450.88;-619.51;29.00;1.09;157.42;22.51;66.53 
6.068;0.09;1.07;-0.22;-0.63;1.60;0.00;446.89;-615.69;28.00;1.10;157.46;22.49;66.54 
6.098;0.11;1.06;-0.22;-0.63;0.77;-0.07;446.89;-620.46;28.00;1.09;157.51;22.44;66.58 
6.128;0.11;1.06;-0.23;-0.70;1.18;-0.07;441.91;-618.55;25.00;1.09;157.54;22.42;66.59 
6.158;0.10;1.06;-0.22;-0.35;1.39;0.07;445.90;-619.51;27.00;1.09;157.59;22.39;66.62 
6.189;0.12;1.05;-0.22;-0.63;1.32;0.28;447.89;-621.41;28.00;1.08;157.63;22.36;66.65 
6.219;0.11;1.05;-0.24;-0.63;1.25;-0.28;447.89;-618.55;27.00;1.08;157.68;22.33;66.68 
6.249;0.11;1.06;-0.21;-0.49;1.04;-0.07;446.89;-619.51;28.00;1.09;157.71;22.31;66.68 
6.279;0.14;1.06;-0.20;-0.28;0.90;-0.07;444.90;-619.51;30.00;1.09;157.74;22.28;66.70 
6.308;0.11;1.05;-0.21;-0.49;0.90;-0.21;443.90;-618.55;29.00;1.08;157.79;22.25;66.73 
6.337;0.10;1.07;-0.22;-0.49;0.90;-0.70;446.89;-619.51;23.00;1.10;157.84;22.20;66.77 
6.367;0.10;1.05;-0.23;-0.63;0.63;-0.49;444.90;-617.60;26.00;1.08;157.90;22.16;66.81 
6.397;0.12;1.06;-0.22;-0.42;1.25;-0.35;447.89;-620.46;26.00;1.09;157.95;22.12;66.84 
6.427;0.10;1.02;-0.17;-0.56;1.46;-0.42;448.89;-619.51;28.00;1.04;158.00;22.08;66.87 
6.457;0.10;1.07;-0.21;-0.49;1.18;-0.21;444.90;-620.46;28.00;1.09;158.04;22.05;66.90 
6.487;0.10;1.05;-0.20;-0.42;1.18;0.00;447.89;-618.55;25.00;1.07;158.12;21.98;66.95 
6.516;0.10;1.06;-0.21;-0.42;0.90;0.07;450.88;-617.60;26.00;1.09;158.15;21.97;66.97 
6.546;0.10;1.06;-0.22;-0.42;1.18;-0.14;444.90;-617.60;28.00;1.09;158.21;21.92;67.00 
6.576;0.11;1.05;-0.22;-0.70;1.18;0.07;447.89;-622.37;25.00;1.08;158.24;21.90;67.01 
6.606;0.10;1.04;-0.22;-0.56;1.11;0.07;445.90;-619.51;29.00;1.07;158.31;21.84;67.06 
6.636;0.11;1.06;-0.21;-0.63;0.77;0.49;447.89;-618.55;26.00;1.09;158.35;21.81;67.08 
6.666;0.10;1.06;-0.24;-0.77;1.46;-0.42;446.89;-618.55;28.00;1.09;158.41;21.76;67.12 
6.697;0.09;1.05;-0.25;-0.77;1.32;0.07;446.89;-618.55;28.00;1.08;158.46;21.73;67.15 
6.727;0.10;1.06;-0.19;-0.28;1.04;-0.07;446.89;-617.60;27.00;1.08;158.52;21.68;67.18 
6.757;0.10;1.02;-0.21;-0.14;0.90;-0.35;445.90;-616.65;29.00;1.05;158.58;21.63;67.23 
6.788;0.12;1.06;-0.22;-0.35;1.25;-0.63;447.89;-618.55;27.00;1.09;158.64;21.58;67.26 
6.818;0.12;1.06;-0.21;-0.49;1.25;-0.42;445.90;-617.60;29.00;1.09;158.71;21.52;67.31 
6.848;0.11;1.07;-0.18;-0.70;0.90;0.07;445.90;-615.69;29.00;1.09;158.78;21.47;67.34 
6.878;0.10;1.03;-0.26;-0.77;0.83;-0.28;446.89;-619.51;29.00;1.07;158.85;21.41;67.39 
6.908;0.11;1.06;-0.18;-0.42;1.39;0.00;448.89;-617.60;30.00;1.08;158.92;21.35;67.44 
6.938;0.10;1.06;-0.19;-0.49;0.83;0.42;446.89;-615.69;26.00;1.08;158.97;21.32;67.46 
6.968;0.10;1.06;-0.24;-0.28;0.90;0.83;448.89;-621.41;27.00;1.09;159.01;21.28;67.48 
6.999;0.10;1.06;-0.22;0.07;1.74;1.25;446.89;-617.60;26.00;1.09;159.05;21.26;67.47 
7.029;0.11;1.04;-0.21;0.21;0.14;1.81;449.89;-620.46;31.00;1.07;159.06;21.26;67.45 
7.059;0.13;1.06;-0.24;-0.14;0.56;1.88;446.89;-618.55;28.00;1.09;159.06;21.27;67.42 
7.089;0.10;1.06;-0.19;-0.14;2.30;1.74;445.90;-621.41;27.00;1.08;159.07;21.28;67.39 
7.119;0.14;1.05;-0.18;-0.42;1.04;1.32;444.90;-620.46;28.00;1.07;159.08;21.28;67.38 
7.149;0.12;1.04;-0.22;-0.21;0.97;0.97;442.90;-619.51;24.00;1.07;159.08;21.29;67.36 
7.179;0.10;1.06;-0.20;-0.14;1.39;0.49;445.90;-622.37;25.00;1.08;159.12;21.28;67.37 
7.210;0.11;1.06;-0.21;0.28;0.28;0.70;445.90;-620.46;26.00;1.09;159.14;21.27;67.36 
7.240;0.13;1.06;-0.22;-0.35;0.07;0.56;443.90;-619.51;22.00;1.09;159.20;21.22;67.39 
7.270;0.12;1.08;-0.22;0.35;1.46;0.56;446.89;-620.46;27.00;1.11;159.25;21.19;67.39 
7.301;0.11;1.06;-0.20;0.07;0.49;0.83;448.89;-621.41;27.00;1.08;159.31;21.14;67.41 
7.331;0.10;1.06;-0.22;-0.42;0.56;0.83;445.90;-623.32;27.00;1.09;159.35;21.11;67.43 
7.361;0.09;1.04;-0.24;-0.07;1.95;0.77;447.89;-622.37;27.00;1.07;159.40;21.08;67.44 
7.390;0.12;1.04;-0.21;-0.14;1.46;0.70;446.89;-619.51;31.00;1.07;159.45;21.05;67.47 
7.419;0.14;1.05;-0.18;0.28;1.25;0.21;441.91;-622.37;24.00;1.07;159.51;21.00;67.50 
7.448;0.12;1.07;-0.19;0.14;0.90;0.49;445.90;-623.32;28.00;1.09;159.57;20.95;67.52 
7.477;0.10;1.07;-0.22;0.42;1.18;-0.07;444.90;-620.46;29.00;1.10;159.64;20.90;67.55 
7.506;0.12;1.06;-0.21;0.77;2.02;0.56;444.90;-620.46;28.00;1.09;159.70;20.86;67.57 
7.535;0.10;1.06;-0.23;0.83;-0.63;0.97;447.89;-620.46;25.00;1.09;159.75;20.82;67.58 
7.564;0.13;1.07;-0.24;0.21;-1.46;1.74;443.90;-622.37;30.00;1.10;159.80;20.79;67.57 
7.594;0.11;1.08;-0.25;-0.49;1.04;1.53;443.90;-620.46;29.00;1.11;159.81;20.78;67.55 
7.623;0.11;1.06;-0.23;-1.60;2.23;1.11;442.90;-623.32;28.00;1.09;159.84;20.77;67.55 
7.652;0.14;1.02;-0.21;-1.60;2.57;0.83;443.90;-623.32;28.00;1.05;159.86;20.77;67.56 
7.682;0.16;1.04;-0.21;-1.39;1.32;0.35;439.91;-622.37;28.00;1.07;159.90;20.74;67.59 
7.711;0.14;1.03;-0.20;-0.90;0.83;-0.21;444.90;-622.37;27.00;1.06;159.96;20.70;67.63 
7.741;0.12;1.06;-0.19;-0.21;0.97;-0.49;440.91;-624.27;25.00;1.08;160.03;20.64;67.67 
7.771;0.14;1.03;-0.18;0.28;0.97;-0.70;441.91;-623.32;27.00;1.05;160.12;20.56;67.74 
7.800;0.11;1.04;-0.22;0.77;0.21;-0.83;443.90;-623.32;28.00;1.07;160.25;20.45;67.81 
7.829;0.12;1.07;-0.22;0.77;0.42;-0.83;443.90;-622.37;30.00;1.10;160.36;20.35;67.86 
7.858;0.13;1.04;-0.21;0.21;0.63;-0.83;443.90;-620.46;28.00;1.07;160.46;20.27;67.91 
7.888;0.11;1.06;-0.20;-0.21;1.11;-0.35;443.90;-621.41;28.00;1.08;160.56;20.19;67.97 
7.917;0.12;1.06;-0.22;-0.56;0.70;0.07;442.90;-622.37;27.00;1.09;160.64;20.12;68.01 
7.946;0.12;1.06;-0.23;-0.56;1.46;0.35;443.90;-624.27;30.00;1.09;160.70;20.07;68.05 
7.975;0.11;1.06;-0.20;-0.07;1.39;1.04;444.90;-622.37;27.00;1.08;160.75;20.04;68.07 
8.004;0.11;1.04;-0.22;0.00;1.25;1.18;444.90;-622.37;31.00;1.07;160.80;20.01;68.08 
8.033;0.10;1.07;-0.24;0.35;1.11;0.90;440.91;-623.32;29.00;1.10;160.86;19.97;68.10 
8.064;0.13;1.06;-0.20;0.35;0.97;1.04;441.91;-622.37;30.00;1.09;160.91;19.93;68.12 
8.094;0.12;1.05;-0.23;0.21;0.70;0.97;440.91;-621.41;29.00;1.08;160.95;19.91;68.12 
8.124;0.13;1.08;-0.22;0.07;0.90;0.83;437.92;-621.41;27.00;1.11;161.01;19.87;68.13 
8.155;0.10;1.06;-0.19;-0.28;1.18;0.14;442.90;-625.22;32.00;1.08;161.07;19.82;68.15 
8.185;0.12;1.06;-0.24;-0.49;1.39;0.00;438.91;-622.37;29.00;1.09;161.15;19.77;68.19 
8.215;0.11;1.06;-0.23;-0.42;0.97;0.07;442.90;-621.41;27.00;1.09;161.21;19.72;68.22 
8.245;0.12;1.07;-0.20;-0.21;0.42;0.28;442.90;-625.22;30.00;1.10;161.29;19.65;68.25 
8.276;0.10;1.06;-0.22;-0.49;1.39;-0.14;442.90;-625.22;31.00;1.09;161.38;19.58;68.30 
8.306;0.14;1.04;-0.22;-0.21;1.18;1.04;439.91;-625.22;33.00;1.07;161.46;19.52;68.33 
8.336;0.11;1.06;-0.19;-0.14;0.97;-0.21;440.91;-624.27;26.00;1.08;161.53;19.47;68.36 
8.367;0.14;1.05;-0.24;0.21;0.83;-0.21;438.91;-622.37;31.00;1.09;161.61;19.41;68.39 
8.397;0.14;1.04;-0.23;0.14;1.25;-0.28;440.91;-626.18;29.00;1.07;161.72;19.32;68.45 
8.427;0.14;1.07;-0.22;-0.42;1.74;-0.14;441.91;-624.27;28.00;1.10;161.81;19.25;68.49 
8.457;0.10;1.06;-0.26;-0.42;0.97;0.21;441.91;-621.41;28.00;1.10;161.89;19.19;68.52 
8.487;0.12;1.05;-0.22;-0.70;0.70;-0.07;441.91;-624.27;28.00;1.08;161.97;19.12;68.58 
8.517;0.12;1.07;-0.27;-0.49;0.70;0.14;442.90;-620.46;31.00;1.11;162.04;19.06;68.62 
8.547;0.14;1.04;-0.20;-0.70;1.11;0.21;443.90;-626.18;30.00;1.07;162.11;19.01;68.65 
8.578;0.13;1.05;-0.22;-0.70;1.53;0.07;441.91;-622.37;32.00;1.08;162.19;18.95;68.68 
8.608;0.10;1.07;-0.22;-0.14;1.04;0.00;441.91;-625.22;25.00;1.10;162.26;18.90;68.71 
8.638;0.11;1.05;-0.22;-0.63;0.83;0.00;444.90;-622.37;30.00;1.08;162.34;18.84;68.75 
8.668;0.15;1.06;-0.23;-0.63;1.53;-0.21;441.91;-620.46;29.00;1.09;162.41;18.78;68.78 
8.698;0.10;1.05;-0.22;-0.97;1.04;-0.63;440.91;-621.41;29.00;1.08;162.52;18.69;68.84 
8.728;0.14;1.03;-0.22;-0.77;0.56;-0.56;439.91;-622.37;31.00;1.06;162.62;18.60;68.91 
8.758;0.14;1.03;-0.21;-0.97;1.11;-1.25;439.91;-622.37;27.00;1.06;162.73;18.51;68.98 
8.789;0.12;1.03;-0.23;-1.32;1.11;-1.60;441.91;-623.32;29.00;1.06;162.85;18.41;69.07 
8.819;0.12;1.06;-0.21;-1.18;0.97;-2.02;441.91;-625.22;31.00;1.09;163.00;18.27;69.19 
8.849;0.12;1.05;-0.22;-0.70;1.25;-1.81;443.90;-622.37;27.00;1.08;163.14;18.15;69.28 
8.880;0.12;1.04;-0.20;-0.56;1.32;-1.67;442.90;-621.41;30.00;1.07;163.28;18.02;69.38 
8.910;0.11;1.06;-0.19;-0.28;0.63;-0.77;441.91;-622.37;30.00;1.08;163.41;17.91;69.46 
8.940;0.11;1.04;-0.22;-0.42;0.90;-0.35;445.90;-621.41;31.00;1.07;163.52;17.82;69.51 
8.970;0.12;1.06;-0.22;-0.42;1.81;-0.42;442.90;-622.37;29.00;1.09;163.62;17.74;69.57 
9.001;0.11;1.05;-0.22;-0.28;1.53;0.00;443.90;-620.46;28.00;1.08;163.72;17.66;69.62 
9.031;0.12;1.04;-0.22;-0.70;0.83;0.56;442.90;-623.32;27.00;1.07;163.79;17.61;69.65 
9.061;0.14;1.05;-0.21;-0.56;1.74;0.07;444.90;-620.46;28.00;1.08;163.86;17.55;69.70 
9.092;0.12;1.06;-0.21;-0.21;1.81;0.35;443.90;-621.41;27.00;1.09;163.93;17.51;69.71 
9.122;0.11;1.06;-0.22;0.21;0.97;0.28;443.90;-623.32;24.00;1.09;164.00;17.45;69.74 
9.152;0.13;1.04;-0.24;0.14;0.35;0.90;443.90;-620.46;29.00;1.08;164.08;17.39;69.76 
9.182;0.10;1.06;-0.23;-0.14;1.67;0.70;443.90;-622.37;30.00;1.09;164.15;17.34;69.77 
9.212;0.11;1.06;-0.23;-0.35;1.95;0.42;440.91;-624.27;30.00;1.09;164.22;17.30;69.80 
9.242;0.12;1.06;-0.23;-0.70;0.83;0.83;442.90;-620.46;29.00;1.09;164.28;17.25;69.81 
9.272;0.13;1.02;-0.22;-0.56;1.32;0.70;441.91;-623.32;27.00;1.05;164.34;17.21;69.83 
9.303;0.13;1.04;-0.22;-0.56;1.46;0.56;439.91;-622.37;28.00;1.07;164.40;17.17;69.84 
9.333;0.12;1.05;-0.21;-0.28;0.90;0.42;442.90;-623.32;30.00;1.08;164.48;17.11;69.87 
9.363;0.11;1.02;-0.23;-0.28;1.11;0.00;441.91;-622.37;29.00;1.05;164.56;17.05;69.90 
9.393;0.12;1.06;-0.22;-0.49;0.70;0.21;439.91;-620.46;27.00;1.09;164.63;17.00;69.92 
9.423;0.14;1.05;-0.21;-0.77;1.11;-0.28;442.90;-619.51;29.00;1.08;164.70;16.94;69.99 
9.453;0.12;1.03;-0.19;-0.77;1.60;-0.83;441.91;-623.32;26.00;1.05;164.79;16.87;70.03 
9.483;0.10;1.04;-0.18;-0.90;0.77;-1.67;443.90;-623.32;27.00;1.06;164.89;16.78;70.10 
9.514;0.13;1.06;-0.22;-0.49;0.49;-1.39;444.90;-624.27;28.00;1.09;165.02;16.67;70.17 
9.544;0.12;1.06;-0.18;-0.28;0.90;-1.18;440.91;-620.46;29.00;1.08;165.13;16.57;70.24 
9.574;0.10;1.05;-0.26;-0.14;0.77;-1.32;443.90;-621.41;28.00;1.09;165.27;16.45;70.33 
9.605;0.12;1.03;-0.23;-0.35;1.18;-0.97;444.90;-624.27;27.00;1.06;165.38;16.36;70.38 
9.635;0.10;1.06;-0.18;-0.77;0.70;-1.25;442.90;-622.37;26.00;1.08;165.50;16.25;70.46 
9.665;0.14;1.06;-0.24;-0.83;0.28;-0.77;445.90;-621.41;26.00;1.10;165.61;16.16;70.52 
9.695;0.10;1.07;-0.22;-0.83;0.42;-0.70;443.90;-620.46;27.00;1.10;165.71;16.07;70.59 
9.725;0.12;1.06;-0.22;-0.97;0.63;-0.35;444.90;-621.41;30.00;1.09;165.82;15.97;70.65 
9.755;0.14;1.04;-0.23;-0.97;0.77;-0.49;443.90;-620.46;28.00;1.07;165.91;15.90;70.69 
9.784;0.10;1.06;-0.23;-1.04;1.18;-0.35;444.90;-620.46;30.00;1.09;165.99;15.83;70.73 
9.814;0.15;1.09;-0.21;-1.04;0.83;-0.42;446.89;-621.41;28.00;1.12;166.07;15.76;70.78 
9.843;0.13;1.06;-0.22;-1.18;0.70;-0.56;441.91;-618.55;28.00;1.09;166.16;15.69;70.83 
9.873;0.10;1.06;-0.22;-1.11;2.23;-0.90;445.90;-619.51;24.00;1.09;166.25;15.62;70.87 
9.904;0.14;1.04;-0.19;-1.04;2.30;-0.63;445.90;-621.41;25.00;1.07;166.34;15.54;70.92 
9.934;0.14;1.06;-0.18;-0.97;1.53;-0.70;444.90;-620.46;25.00;1.08;166.47;15.44;71.01 
9.964;0.07;1.04;-0.21;-0.42;1.04;-0.21;444.90;-620.46;27.00;1.06;166.56;15.36;71.06 
9.994;0.12;1.06;-0.22;-0.21;1.11;0.00;442.90;-620.46;25.00;1.09;166.64;15.30;71.10 
10.025;0.10;1.06;-0.21;-0.35;1.74;0.70;447.89;-622.37;26.00;1.09;166.72;15.25;71.12 
10.055;0.11;1.06;-0.18;-0.35;1.67;1.11;444.90;-619.51;29.00;1.08;166.78;15.21;71.13 
10.085;0.12;1.05;-0.22;-0.56;1.32;1.53;445.90;-621.41;25.00;1.08;166.83;15.17;71.12 
10.116;0.10;1.06;-0.23;-0.56;1.74;1.39;445.90;-623.32;25.00;1.09;166.88;15.15;71.13 
10.146;0.10;1.06;-0.20;-0.35;1.95;1.53;443.90;-622.37;26.00;1.08;166.92;15.13;71.12 
10.176;0.14;1.03;-0.20;-0.56;1.95;1.18;439.91;-623.32;26.00;1.06;166.93;15.15;71.10 
10.206;0.14;1.05;-0.23;-0.28;1.81;1.04;443.90;-622.37;27.00;1.08;166.97;15.13;71.08 
10.236;0.12;1.06;-0.21;-0.14;1.81;1.25;444.90;-623.32;28.00;1.09;166.99;15.13;71.05 
10.266;0.13;1.06;-0.22;0.14;1.95;0.83;443.90;-624.27;27.00;1.09;167.03;15.11;71.04 
10.296;0.11;1.04;-0.20;0.07;1.39;0.70;440.91;-623.32;27.00;1.06;167.08;15.09;71.04 
10.327;0.12;1.05;-0.22;0.00;1.11;1.11;442.90;-623.32;30.00;1.08;167.13;15.06;71.04 
10.356;0.13;1.05;-0.22;0.14;1.46;0.56;442.90;-622.37;29.00;1.08;167.18;15.03;71.03 
10.386;0.13;1.05;-0.24;-0.14;1.74;0.21;443.90;-625.22;29.00;1.08;167.23;15.00;71.02 
10.416;0.11;1.06;-0.19;0.00;1.67;0.49;441.91;-622.37;25.00;1.08;167.29;14.96;71.03 
10.446;0.14;1.02;-0.22;0.21;1.81;0.49;438.91;-625.22;29.00;1.05;167.35;14.92;71.04 
10.476;0.14;1.05;-0.22;0.00;1.67;0.63;441.91;-621.41;24.00;1.08;167.42;14.89;71.04 
10.505;0.13;1.06;-0.23;-0.07;1.53;0.14;443.90;-625.22;27.00;1.09;167.47;14.85;71.04 
10.534;0.12;1.04;-0.21;0.00;1.53;-0.14;441.91;-627.13;29.00;1.07;167.53;14.82;71.06 
10.563;0.14;1.06;-0.22;0.07;1.46;0.07;442.90;-623.32;27.00;1.09;167.61;14.76;71.08 
10.592;0.12;1.07;-0.22;-0.49;0.63;0.28;438.91;-622.37;26.00;1.10;167.68;14.70;71.10 
10.621;0.11;1.06;-0.24;-0.70;1.25;-0.83;442.90;-624.27;29.00;1.09;167.76;14.64;71.13 
10.651;0.11;1.03;-0.20;-0.21;1.11;-0.35;442.90;-621.41;27.00;1.05;167.84;14.58;71.17 
10.681;0.11;1.07;-0.22;0.07;1.11;-1.11;441.91;-622.37;28.00;1.10;167.92;14.52;71.19 
10.711;0.13;1.02;-0.24;0.07;0.77;-0.90;442.90;-625.22;27.00;1.06;168.02;14.44;71.22 
10.740;0.14;1.05;-0.20;-0.28;0.70;-1.60;442.90;-624.27;28.00;1.08;168.11;14.36;71.26 
10.770;0.12;1.06;-0.22;-0.63;0.97;-1.46;444.90;-622.37;29.00;1.09;168.23;14.27;71.31 
10.800;0.13;1.06;-0.22;-0.63;0.35;-0.42;440.91;-623.32;28.00;1.09;168.34;14.17;71.38 
10.830;0.11;1.07;-0.20;-1.04;0.90;-0.21;440.91;-626.18;27.00;1.09;168.43;14.10;71.41 
10.860;0.10;1.06;-0.23;-1.25;1.88;-0.90;446.89;-625.22;24.00;1.09;168.52;14.02;71.46 
10.890;0.14;1.07;-0.24;-0.42;2.85;-2.30;442.90;-622.37;28.00;1.11;168.67;13.88;71.54 
10.921;0.07;1.10;-0.22;1.95;4.31;-2.71;444.90;-623.32;25.00;1.12;168.78;13.81;71.57 
10.951;0.08;1.09;-0.22;4.66;6.26;5.57;443.90;-621.41;24.00;1.11;168.95;13.71;71.55 
10.981;0.04;1.11;-0.23;7.23;19.06;4.03;443.90;-622.37;24.00;1.13;168.96;13.81;71.37 
11.012;0.02;1.17;-0.20;11.13;23.10;12.94;442.90;-623.32;28.00;1.19;168.91;14.05;71.08 
11.042;0.03;1.14;-0.20;12.52;24.35;22.19;440.91;-628.08;26.00;1.16;168.59;14.59;70.51 
11.072;0.12;1.09;-0.23;15.10;29.98;34.09;436.92;-630.94;21.00;1.12;168.00;15.44;69.69 
