Time(s) acc_x(g) acc_y(g) acc_z(g) gyr_x(°/s) gyr_y(°/s) gyr_z(°/s) mag_x(G) mag_y(G) mag_z(G) SVM(g) yaw(°) pitch(°) roll(°)
0.000;-0.47;0.01;0.77;37.84;-9.04;-37.70;127.93;-427.15;-398.00;0.90;-163.40;-20.64;0.15 
0.031;-0.31;0.30;0.91;26.30;-14.96;-45.29;130.91;-428.11;-399.00;1.01;-161.71;-20.29;0.95 
0.061;-0.27;0.30;0.87;-7.58;-1.95;-37.50;141.82;-431.94;-396.00;0.96;-160.32;-19.90;0.96 
0.091;-0.26;0.17;0.77;1.04;-0.90;-7.23;142.81;-430.03;-398.00;0.83;-159.70;-19.79;0.70 
0.121;-0.31;-0.03;0.80;10.02;1.74;7.93;139.83;-433.86;-393.00;0.86;-159.64;-19.74;0.85 
0.151;-0.22;0.02;0.79;22.61;-2.71;13.84;143.80;-433.86;-399.00;0.82;-159.92;-19.90;1.42 
0.181;-0.33;0.06;0.94;12.45;-20.52;6.61;148.76;-434.82;-398.00;1.00;-160.09;-19.60;2.17 
0.211;-0.34;0.18;0.80;1.81;-40.70;19.62;147.77;-437.69;-396.00;0.89;-160.51;-18.71;2.39 
0.242;-0.40;0.17;0.76;20.10;-45.43;38.12;149.75;-453.01;-391.00;0.88;-161.47;-17.25;3.24 
0.272;-0.42;-0.18;0.92;28.94;-34.50;16.77;152.72;-459.72;-387.00;1.03;-162.40;-15.84;4.20 
0.302;-0.24;-0.19;1.00;33.67;15.86;-9.95;161.65;-464.51;-387.00;1.05;-162.22;-15.53;4.98 
0.333;-0.26;0.10;0.97;4.80;-9.18;-9.32;164.62;-459.72;-390.00;1.01;-161.68;-15.92;5.07 
0.363;-0.25;0.08;0.82;2.64;-6.05;-5.57;163.63;-463.55;-388.00;0.86;-161.50;-15.61;5.11 
0.393;-0.24;0.13;0.86;3.55;0.70;-2.30;167.60;-463.55;-390.00;0.90;-161.33;-15.53;5.18 
0.423;-0.24;0.11;0.85;2.64;1.04;1.67;169.58;-461.63;-390.00;0.89;-161.29;-15.51;5.29 
0.453;-0.26;0.13;0.84;3.13;1.74;6.82;167.60;-465.46;-388.00;0.89;-161.40;-15.47;5.45 
0.483;-0.25;0.14;0.95;3.41;1.11;8.70;173.55;-463.55;-391.00;0.99;-161.59;-15.48;5.66 
0.513;-0.22;0.13;0.85;4.03;-3.76;12.45;168.59;-464.51;-387.00;0.89;-161.88;-15.37;5.89 
0.544;-0.21;0.14;0.86;3.76;-2.78;13.91;170.57;-463.55;-388.00;0.90;-162.25;-15.18;6.15 
0.574;-0.26;0.14;0.83;2.78;-3.27;18.43;172.56;-464.51;-390.00;0.88;-162.71;-15.00;6.45 
0.604;-0.26;0.18;0.84;1.46;-1.88;18.43;169.58;-468.34;-389.00;0.90;-163.21;-14.84;6.70 
0.634;-0.29;0.19;0.83;3.69;2.71;20.94;169.58;-468.34;-387.00;0.90;-163.74;-14.79;7.00 
0.664;-0.31;0.17;0.83;7.51;7.65;20.80;166.61;-466.42;-387.00;0.90;-164.32;-14.91;7.41 
0.694;-0.26;0.18;0.93;10.23;3.34;21.57;167.60;-469.30;-387.00;0.98;-164.83;-15.02;7.87 
0.724;-0.24;0.21;0.82;10.78;-3.55;21.98;168.59;-467.38;-389.00;0.88;-165.41;-14.90;8.42 
0.754;-0.22;0.19;0.85;10.02;-1.32;19.97;170.57;-464.51;-386.00;0.90;-165.93;-14.68;9.00 
0.784;-0.14;0.17;0.83;8.83;5.91;14.54;168.59;-468.34;-387.00;0.86;-166.33;-14.61;9.47 
0.814;-0.16;0.14;0.91;-2.85;3.06;16.83;170.57;-469.30;-386.00;0.93;-166.76;-14.60;9.73 
0.845;-0.30;0.18;0.90;-8.77;-7.86;10.85;169.58;-466.42;-387.00;0.97;-167.21;-14.42;9.66 
0.875;-0.26;0.18;0.85;-18.37;-7.23;9.04;165.62;-470.25;-386.00;0.91;-167.63;-14.12;9.26 
0.905;-0.25;0.19;0.78;-12.31;3.34;9.39;162.64;-471.21;-382.00;0.84;-167.96;-14.00;8.94 
0.935;-0.31;0.17;0.83;-6.61;7.93;9.60;155.70;-469.30;-384.00;0.90;-168.20;-14.18;8.80 
0.965;-0.30;0.15;0.79;-2.23;7.93;7.93;153.72;-464.51;-387.00;0.86;-168.43;-14.46;8.74 
0.995;-0.29;0.12;0.77;1.53;11.06;4.80;155.70;-467.38;-387.00;0.83;-168.51;-14.77;8.79 
1.025;-0.26;0.14;0.74;3.41;14.40;1.60;155.70;-465.46;-387.00;0.80;-168.52;-15.15;8.89 
1.056;-0.24;0.13;0.80;7.37;14.47;0.63;156.69;-461.63;-387.00;0.85;-168.40;-15.63;9.09 
1.086;-0.26;0.14;0.80;12.03;18.37;2.23;163.63;-460.68;-386.00;0.85;-168.28;-16.08;9.38 
1.116;-0.30;0.15;0.88;14.12;19.76;9.67;162.64;-453.97;-387.00;0.94;-168.25;-16.64;9.83 
1.146;-0.36;0.14;0.88;17.81;5.91;12.03;162.64;-452.06;-390.00;0.96;-168.37;-17.04;10.38 
1.176;-0.30;0.11;0.84;24.00;2.92;14.68;169.58;-453.01;-390.00;0.90;-168.51;-17.12;11.10 
1.206;-0.33;0.10;0.83;26.71;1.25;16.70;174.54;-449.18;-390.00;0.90;-168.70;-17.12;11.92 
1.236;-0.32;0.06;0.75;29.22;-2.43;12.45;181.48;-451.10;-390.00;0.82;-168.87;-17.07;12.74 
1.267;-0.35;0.00;0.71;29.15;2.37;15.10;185.45;-451.10;-390.00;0.79;-169.08;-16.97;13.75 
1.297;-0.30;0.00;0.72;26.37;12.17;17.81;187.43;-454.93;-389.00;0.78;-169.13;-16.98;14.64 
1.327;-0.38;0.08;0.62;16.42;22.26;17.53;191.40;-450.14;-388.00;0.73;-169.31;-17.43;15.29 
1.358;-0.28;0.14;0.54;5.22;25.18;23.51;195.37;-450.14;-388.00;0.62;-169.64;-18.08;15.79 
1.388;-0.17;0.19;0.54;6.12;33.60;23.23;194.38;-445.35;-389.00;0.60;-170.18;-18.76;16.27 
1.417;-0.18;0.18;0.56;17.46;22.96;28.24;193.38;-441.52;-394.00;0.62;-170.74;-19.30;16.79 
1.447;-0.24;0.07;0.51;18.78;8.77;37.91;198.34;-435.77;-390.00;0.57;-171.39;-19.42;17.68 
1.477;-0.21;0.10;0.56;9.18;21.91;17.32;200.33;-436.73;-391.00;0.61;-172.03;-19.65;18.15 
1.507;-0.22;0.12;0.64;33.74;21.01;18.85;204.29;-431.94;-393.00;0.69;-172.22;-20.21;18.90 
1.537;-0.26;0.06;0.77;34.23;-2.85;30.75;206.28;-429.07;-393.00;0.81;-172.46;-20.15;20.04 
1.568;-0.23;0.00;0.64;15.51;-16.56;21.50;214.21;-436.73;-388.00;0.68;-173.01;-19.53;20.79 
1.598;-0.18;0.04;0.74;29.84;-16.56;14.61;215.20;-441.52;-390.00;0.76;-173.19;-18.98;21.47 
1.628;-0.24;0.14;0.59;16.77;-53.15;26.85;220.16;-446.31;-386.00;0.65;-173.44;-17.77;22.29 
1.658;-0.14;0.18;0.42;16.07;-36.38;19.27;217.19;-454.93;-383.00;0.48;-173.94;-16.34;22.83 
1.688;-0.18;0.18;0.48;40.28;-26.43;23.93;222.14;-470.25;-379.00;0.54;-174.14;-15.40;23.91 
1.718;-0.32;0.26;0.39;42.30;-41.46;44.10;231.07;-479.83;-374.00;0.57;-174.79;-14.14;25.32 
1.748;-0.22;0.10;0.42;45.43;-35.13;38.61;236.03;-492.28;-370.00;0.48;-175.42;-12.88;26.94 
1.779;-0.11;0.30;0.51;83.55;-35.55;49.25;242.97;-497.07;-365.00;0.60;-176.26;-11.47;29.32 
1.809;-0.15;0.26;0.39;100.94;-88.14;56.42;261.81;-518.14;-353.00;0.49;-177.30;-8.96;32.57 
1.838;-0.56;0.67;0.18;114.16;-143.72;75.48;276.69;-541.13;-337.00;0.89;-178.35;-5.80;36.22 
1.869;1.02;1.62;0.98;109.98;22.61;82.71;283.63;-565.07;-323.00;2.15;179.34;-1.77;40.02 
1.899;-0.96;1.11;1.78;-95.86;-110.47;109.63;294.54;-565.07;-327.00;2.31;177.14;-1.84;41.54 
1.929;-0.10;1.35;1.02;-47.03;-270.05;126.12;270.74;-590.93;-317.00;1.69;174.16;4.05;39.46 
1.958;0.54;4.61;3.32;-20.66;-285.50;133.50;233.05;-658.93;-264.00;5.71;171.30;12.63;37.31 
1.988;1.65;2.47;1.25;338.50;-115.48;-15.86;235.04;-688.62;-217.00;3.22;169.17;19.19;40.92 
2.017;2.03;-0.76;1.31;450.99;38.40;-100.38;287.60;-682.87;-200.00;2.53;167.63;18.20;51.77 
2.047;-0.67;-1.86;0.72;382.75;-281.04;192.70;330.24;-679.04;-161.00;2.10;162.92;20.44;60.05 
2.078;0.00;0.18;0.30;99.97;4.03;-138.09;330.24;-702.99;-74.00;0.35;158.96;23.71;63.22 
2.108;1.39;1.04;0.00;87.44;8.90;-62.26;368.92;-683.83;-82.00;1.74;163.31;18.87;68.33 
2.138;0.61;1.72;0.44;82.23;-151.58;61.77;369.91;-689.58;-61.00;1.88;161.74;19.88;68.93 
2.169;0.14;0.87;-0.31;79.44;-310.33;72.77;355.03;-700.11;-18.00;0.93;157.86;22.87;67.06 
2.198;0.28;1.16;-1.08;137.60;-313.88;35.76;336.19;-700.11;72.00;1.61;153.23;24.06;65.33 
2.228;0.03;1.25;-1.38;214.33;-211.69;-3.41;318.34;-688.62;134.00;1.86;147.61;23.09;62.75 
2.258;-0.22;0.92;-1.25;138.99;-72.21;-7.23;305.45;-675.21;177.00;1.57;143.45;21.25;59.51 
2.288;0.30;0.90;-0.93;49.67;7.65;5.01;294.54;-672.34;188.00;1.33;142.01;20.60;57.39 
2.317;0.43;0.56;-0.67;-27.90;-53.57;20.66;289.58;-670.42;193.00;0.97;141.22;20.82;56.64 
2.347;0.44;0.58;-0.74;-56.90;-114.92;-2.57;291.56;-659.89;204.00;1.04;140.48;20.23;57.12 
2.378;0.10;0.47;-0.94;-49.53;-126.40;10.16;297.51;-645.52;213.00;1.06;139.63;18.52;58.34 
2.408;-0.11;0.55;-1.09;-15.65;-56.63;4.73;302.47;-635.94;227.00;1.23;138.46;17.38;58.89 
2.438;0.06;0.62;-0.98;3.20;13.36;-0.90;305.45;-631.15;232.00;1.16;138.30;16.94;58.92 
2.468;0.34;0.83;-0.75;30.47;23.58;-10.78;300.49;-636.90;226.00;1.17;138.73;17.20;58.62 
2.498;0.30;0.83;-0.63;45.84;-12.66;-16.07;302.47;-635.94;228.00;1.08;138.73;16.99;57.84 
2.528;0.31;0.82;-0.69;40.97;-25.95;-16.83;296.52;-632.11;240.00;1.12;138.43;16.37;57.02 
2.558;0.35;0.82;-0.68;33.04;-20.03;-27.69;297.51;-626.37;240.00;1.12;138.41;15.57;56.50 
2.589;0.45;0.90;-0.52;21.84;-25.60;-25.81;295.53;-618.70;253.00;1.13;138.91;14.70;56.32 
2.619;0.36;0.83;-0.64;-10.16;-64.28;8.07;294.54;-612.96;259.00;1.11;138.84;13.91;56.50 
2.649;0.24;0.72;-0.79;-13.98;-44.73;0.07;297.51;-605.30;263.00;1.10;138.20;13.34;56.76 
2.680;0.24;0.82;-0.82;-20.73;-22.40;-4.45;298.51;-603.38;268.00;1.18;138.32;12.82;57.29 
2.710;0.20;0.86;-0.78;-25.04;1.88;-6.40;304.46;-597.63;271.00;1.18;138.91;12.62;57.96 
2.740;0.18;0.90;-0.70;-25.18;13.98;-10.23;305.45;-599.55;268.00;1.15;140.04;12.58;58.80 
2.770;0.16;0.88;-0.66;-24.21;24.14;-8.77;316.36;-600.51;260.00;1.11;141.33;12.66;59.66 
2.800;0.18;0.94;-0.64;-22.40;32.21;-10.02;317.35;-599.55;259.00;1.15;142.87;12.83;60.55 
2.830;0.16;0.98;-0.61;-23.10;31.58;2.43;325.28;-606.25;248.00;1.17;144.14;13.19;61.33 
2.859;0.18;1.02;-0.59;-24.42;34.09;1.11;328.26;-610.08;244.00;1.19;145.29;13.67;62.05 
2.890;0.26;0.97;-0.54;-22.33;26.02;7.03;330.24;-616.79;238.00;1.14;146.26;14.21;62.68 
2.920;0.28;0.95;-0.53;-16.56;10.37;8.14;334.21;-619.66;232.00;1.12;146.86;14.73;63.15 
2.950;0.22;0.94;-0.60;-13.91;8.21;9.46;336.19;-618.70;228.00;1.14;147.17;15.10;63.42 
2.980;0.26;0.97;-0.56;-10.02;11.41;10.64;331.23;-623.49;221.00;1.15;147.39;15.52;63.58 
3.010;0.30;0.92;-0.55;-9.25;10.78;7.93;333.22;-624.45;219.00;1.11;147.58;15.98;63.65 
3.040;0.29;0.89;-0.54;-5.91;9.39;6.61;331.23;-627.32;222.00;1.08;147.74;16.37;63.70 
3.070;0.31;0.90;-0.55;-2.57;6.75;3.41;331.23;-629.24;222.00;1.10;147.88;16.64;63.70 
3.101;0.30;0.92;-0.50;0.83;7.93;2.99;331.23;-629.24;221.00;1.09;148.01;16.88;63.66 
3.131;0.28;0.96;-0.51;3.41;5.63;7.37;329.25;-630.20;219.00;1.12;148.04;17.14;63.54 
3.161;0.34;0.97;-0.51;5.22;2.23;7.44;328.26;-632.11;217.00;1.15;147.94;17.44;63.34 
3.192;0.27;0.94;-0.54;5.91;-3.62;8.90;325.28;-632.11;215.00;1.12;147.76;17.70;63.09 
3.222;0.29;0.95;-0.57;6.05;-6.26;10.57;322.31;-634.03;222.00;1.15;147.46;17.92;62.79 
3.252;0.34;0.90;-0.58;6.75;-2.92;8.28;323.30;-634.03;219.00;1.12;147.15;18.17;62.47 
3.282;0.37;0.83;-0.57;6.75;-1.95;5.63;321.32;-635.94;225.00;1.07;146.88;18.41;62.15 
3.312;0.33;0.89;-0.59;6.47;-3.41;4.31;318.34;-636.90;223.00;1.12;146.67;18.58;61.86 
3.342;0.34;0.89;-0.58;5.70;-3.41;2.16;315.37;-634.03;225.00;1.12;146.51;18.71;61.62 
3.372;0.30;0.90;-0.60;3.69;-4.52;1.81;315.37;-631.15;227.00;1.12;146.43;18.76;61.46 
3.403;0.34;0.89;-0.62;1.46;-1.81;1.46;313.38;-632.11;227.00;1.14;146.41;18.80;61.35 
3.433;0.33;0.87;-0.61;0.90;0.21;1.60;312.39;-633.07;230.00;1.11;146.44;18.87;61.27 
3.463;0.32;0.91;-0.62;-0.07;1.53;1.32;313.38;-633.07;228.00;1.15;146.50;18.95;61.23 
3.493;0.30;0.87;-0.60;-0.77;0.42;1.46;312.39;-634.03;231.00;1.10;146.56;19.03;61.18 
3.523;0.33;0.87;-0.60;-1.53;2.50;0.00;314.37;-633.07;226.00;1.11;146.65;19.11;61.16 
3.553;0.34;0.94;-0.53;-1.25;2.64;-0.28;313.38;-632.11;227.00;1.13;146.81;19.15;61.18 
3.583;0.34;0.90;-0.57;-1.04;1.53;-0.90;310.41;-635.94;227.00;1.12;146.98;19.18;61.23 
3.614;0.34;0.90;-0.58;-0.56;-0.28;-0.77;313.38;-632.11;228.00;1.12;147.13;19.20;61.26 
3.644;0.34;0.89;-0.59;0.28;-0.07;-1.60;313.38;-634.99;225.00;1.12;147.29;19.19;61.30 
3.674;0.31;0.92;-0.59;0.77;-0.90;-1.32;313.38;-634.03;227.00;1.14;147.43;19.16;61.32 
3.705;0.33;0.90;-0.61;1.11;0.83;-2.23;313.38;-633.07;229.00;1.14;147.58;19.13;61.34 
3.735;0.32;0.93;-0.61;0.83;-0.21;-2.30;311.40;-634.03;226.00;1.16;147.75;19.08;61.36 
3.765;0.30;0.93;-0.60;0.49;-1.25;-1.39;315.37;-631.15;228.00;1.15;147.89;19.03;61.38 
3.795;0.33;0.90;-0.57;0.63;-0.90;-1.32;314.37;-634.99;225.00;1.12;148.04;18.98;61.41 
3.826;0.28;0.90;-0.62;-0.07;-0.83;0.49;312.39;-630.20;233.00;1.13;148.13;18.97;61.40 
3.856;0.32;0.90;-0.58;-0.63;2.09;1.32;313.38;-630.20;229.00;1.12;148.20;19.00;61.37 
3.886;0.34;0.89;-0.59;-0.21;1.74;1.46;316.36;-632.11;229.00;1.12;148.29;19.07;61.35 
3.917;0.34;0.87;-0.61;-0.97;0.90;0.63;313.38;-633.07;229.00;1.12;148.34;19.14;61.30 
3.947;0.32;0.90;-0.58;-1.18;0.83;0.77;311.40;-635.94;233.00;1.12;148.43;19.18;61.29 
3.977;0.30;0.90;-0.61;-1.67;3.27;0.49;313.38;-631.15;225.00;1.13;148.51;19.24;61.27 
4.007;0.32;0.90;-0.58;-2.57;3.55;1.04;314.37;-634.03;228.00;1.12;148.64;19.31;61.29 
4.037;0.36;0.94;-0.59;-2.50;3.62;1.11;314.37;-634.99;229.00;1.17;148.77;19.39;61.31 
4.067;0.34;0.89;-0.58;-1.74;2.16;1.32;315.37;-633.07;228.00;1.12;148.87;19.47;61.33 
4.097;0.33;0.89;-0.59;-1.53;1.88;1.18;314.37;-634.03;224.00;1.12;148.96;19.53;61.33 
4.128;0.32;0.90;-0.61;-0.77;1.18;1.25;313.38;-634.99;224.00;1.13;149.06;19.58;61.33 
4.158;0.34;0.89;-0.58;-0.70;1.81;0.90;314.37;-634.03;223.00;1.12;149.16;19.61;61.34 
4.188;0.34;0.90;-0.57;-0.70;0.42;0.83;311.40;-635.94;224.00;1.12;149.22;19.66;61.30 
4.218;0.34;0.89;-0.57;-0.70;0.28;0.28;316.36;-637.86;224.00;1.11;149.29;19.70;61.29 
4.248;0.32;0.90;-0.57;-1.18;2.37;-0.56;314.37;-634.99;225.00;1.11;149.40;19.71;61.30 
4.278;0.34;0.92;-0.55;-2.30;1.81;-1.18;315.37;-632.11;224.00;1.12;149.51;19.73;61.31 
4.308;0.32;0.90;-0.57;-1.81;0.35;-0.21;313.38;-634.03;222.00;1.11;149.64;19.72;61.34 
4.339;0.31;0.92;-0.59;-1.81;0.14;-0.14;313.38;-636.90;226.00;1.14;149.74;19.71;61.36 
4.369;0.34;0.90;-0.61;-1.74;2.16;-0.21;314.37;-634.99;224.00;1.14;149.87;19.71;61.38 
4.399;0.27;0.86;-0.59;-2.16;2.64;-0.63;313.38;-634.03;225.00;1.08;149.99;19.72;61.40 
4.430;0.30;0.92;-0.59;-1.39;2.99;0.49;314.37;-634.03;221.00;1.13;150.08;19.75;61.40 
4.460;0.33;0.90;-0.62;-0.97;3.76;1.04;315.37;-634.99;222.00;1.14;150.21;19.79;61.43 
4.490;0.33;0.92;-0.58;-0.90;3.13;1.04;316.36;-638.82;226.00;1.14;150.30;19.83;61.42 
4.520;0.32;0.92;-0.55;-0.21;2.85;1.04;314.37;-638.82;220.00;1.12;150.37;19.88;61.39 
4.551;0.34;0.91;-0.58;0.07;2.43;0.97;317.35;-638.82;221.00;1.13;150.44;19.94;61.35 
4.581;0.34;0.90;-0.58;0.21;0.97;1.25;315.37;-638.82;220.00;1.12;150.51;19.97;61.31 
4.611;0.30;0.92;-0.58;1.04;-0.63;1.81;313.38;-635.94;222.00;1.13;150.53;20.00;61.25 
4.642;0.33;0.88;-0.58;1.04;0.56;1.04;313.38;-634.99;220.00;1.10;150.54;20.05;61.16 
4.672;0.35;0.88;-0.56;1.18;-0.14;0.42;312.39;-637.86;220.00;1.10;150.58;20.06;61.09 
4.702;0.36;0.88;-0.55;1.88;-0.56;0.70;312.39;-634.99;223.00;1.10;150.62;20.07;61.02 
4.732;0.34;0.90;-0.59;1.60;-2.30;0.83;312.39;-636.90;224.00;1.13;150.63;20.09;60.94 
4.762;0.32;0.91;-0.56;1.88;-2.23;0.90;314.37;-636.90;224.00;1.12;150.65;20.07;60.85 
4.792;0.34;0.88;-0.57;1.32;-1.53;0.21;311.40;-636.90;224.00;1.10;150.67;20.06;60.77 
4.822;0.33;0.90;-0.59;1.04;-0.90;0.14;313.38;-635.94;223.00;1.13;150.70;20.06;60.69 
4.853;0.34;0.90;-0.55;0.70;-0.56;0.35;312.39;-635.94;226.00;1.11;150.76;20.04;60.64 
4.883;0.31;0.91;-0.58;0.35;-0.83;0.21;310.41;-637.86;225.00;1.12;150.81;20.04;60.60 
4.913;0.34;0.92;-0.58;0.42;-0.21;0.07;309.42;-637.86;225.00;1.14;150.88;20.02;60.56 
4.943;0.34;0.89;-0.57;0.56;-0.35;0.21;311.40;-637.86;226.00;1.11;150.95;20.00;60.52 
4.973;0.36;0.89;-0.58;0.28;0.63;-0.07;311.40;-636.90;227.00;1.12;151.03;19.96;60.48 
5.003;0.41;0.91;-0.55;0.21;-0.14;-0.35;310.41;-637.86;227.00;1.14;151.09;19.97;60.44 
5.033;0.34;0.88;-0.61;-0.28;-0.28;-0.90;311.40;-636.90;225.00;1.12;151.19;19.93;60.43 
5.064;0.32;0.88;-0.58;-0.14;-0.07;-0.83;312.39;-635.94;226.00;1.10;151.28;19.89;60.41 
5.094;0.32;0.90;-0.59;-0.07;-0.63;-0.63;307.43;-634.99;225.00;1.12;151.38;19.85;60.38 
5.124;0.33;0.91;-0.58;0.35;0.00;-0.97;311.40;-634.03;227.00;1.13;151.47;19.82;60.36 
5.155;0.34;0.90;-0.58;0.49;-2.09;-0.77;311.40;-634.03;227.00;1.12;151.56;19.78;60.35 
5.185;0.33;0.89;-0.59;-0.07;-1.04;-0.90;308.42;-635.94;226.00;1.12;151.66;19.72;60.33 
5.215;0.33;0.89;-0.58;-0.28;-0.07;-0.70;310.41;-634.99;228.00;1.11;151.75;19.67;60.32 
5.245;0.33;0.92;-0.59;-0.28;0.35;-0.14;310.41;-634.99;227.00;1.14;151.85;19.63;60.30 
5.276;0.34;0.89;-0.58;0.00;-0.14;0.00;315.37;-635.94;227.00;1.12;151.94;19.60;60.28 
5.305;0.32;0.88;-0.58;0.21;-1.46;0.28;313.38;-634.99;229.00;1.10;152.01;19.58;60.23 
5.335;0.33;0.90;-0.58;0.21;-0.83;-0.07;310.41;-634.03;226.00;1.12;152.06;19.56;60.17 
5.366;0.30;0.90;-0.62;0.07;0.56;-0.21;309.42;-632.11;228.00;1.13;152.13;19.53;60.12 
5.395;0.33;0.90;-0.58;0.28;0.97;-0.35;311.40;-635.94;228.00;1.12;152.22;19.51;60.09 
5.424;0.34;0.89;-0.59;0.21;0.63;-0.49;311.40;-634.03;230.00;1.12;152.33;19.48;60.07 
5.453;0.33;0.90;-0.57;0.42;0.63;-0.56;312.39;-635.94;228.00;1.12;152.42;19.44;60.04 
5.482;0.31;0.92;-0.60;0.07;-0.21;-0.83;313.38;-634.99;230.00;1.14;152.52;19.40;60.00 
5.512;0.31;0.91;-0.57;0.83;-0.14;-0.90;309.42;-634.99;226.00;1.12;152.62;19.36;59.99 
5.542;0.34;0.88;-0.58;0.70;0.70;-1.39;311.40;-636.90;230.00;1.11;152.72;19.31;59.94 
5.571;0.32;0.90;-0.60;0.56;0.42;-0.70;312.39;-632.11;228.00;1.13;152.83;19.26;59.91 
5.601;0.32;0.92;-0.58;0.21;0.28;-0.35;312.39;-633.07;226.00;1.13;152.92;19.23;59.88 
5.631;0.32;0.88;-0.59;0.14;0.90;-0.21;310.41;-634.99;227.00;1.11;153.00;19.22;59.83 
5.662;0.30;0.86;-0.60;-0.28;1.53;-0.56;313.38;-632.11;229.00;1.09;153.09;19.20;59.79 
5.692;0.32;0.90;-0.59;-0.21;2.30;0.21;313.38;-632.11;229.00;1.12;153.19;19.20;59.76 
5.721;0.30;0.88;-0.59;-0.49;2.64;0.97;314.37;-632.11;228.00;1.10;153.28;19.20;59.73 
5.752;0.30;0.90;-0.58;-0.63;2.30;1.04;308.42;-634.03;228.00;1.11;153.34;19.24;59.70 
5.781;0.33;0.89;-0.58;-0.49;2.50;1.46;314.37;-635.94;227.00;1.11;153.41;19.28;59.65 
5.811;0.34;0.88;-0.60;-0.63;2.71;1.53;314.37;-634.03;227.00;1.12;153.45;19.32;59.61 
5.841;0.34;0.88;-0.58;-0.77;2.92;1.04;307.43;-634.99;228.00;1.11;153.51;19.37;59.56 
5.871;0.35;0.89;-0.62;-1.04;2.64;0.49;311.40;-639.77;225.00;1.14;153.57;19.41;59.51 
5.901;0.34;0.89;-0.58;-0.90;2.30;0.00;312.39;-635.94;227.00;1.12;153.64;19.43;59.47 
5.931;0.36;0.89;-0.57;-0.70;1.46;-0.42;313.38;-634.99;227.00;1.12;153.72;19.43;59.44 
5.962;0.32;0.91;-0.60;-1.11;1.32;0.00;310.41;-635.94;224.00;1.14;153.82;19.41;59.41 
5.991;0.34;0.90;-0.57;-1.32;1.95;-0.07;310.41;-634.03;226.00;1.12;153.92;19.40;59.41 
6.020;0.33;0.90;-0.58;-1.60;2.23;-0.42;310.41;-635.94;227.00;1.12;154.01;19.40;59.39 
6.050;0.35;0.90;-0.58;-1.95;1.81;-0.90;310.41;-636.90;222.00;1.13;154.11;19.38;59.39 
6.079;0.33;0.90;-0.58;-1.60;2.37;-1.11;310.41;-636.90;228.00;1.12;154.25;19.34;59.42 
6.109;0.32;0.90;-0.58;-1.39;2.30;-1.11;312.39;-635.94;226.00;1.12;154.38;19.32;59.44 
6.139;0.34;0.90;-0.58;-1.46;1.46;-0.70;313.38;-637.86;225.00;1.12;154.50;19.29;59.44 
6.168;0.33;0.90;-0.58;-0.77;1.53;-0.14;312.39;-638.82;223.00;1.12;154.63;19.24;59.45 
6.197;0.32;0.88;-0.59;-1.32;1.74;0.21;310.41;-635.94;225.00;1.11;154.72;19.23;59.44 
6.227;0.32;0.90;-0.60;-1.18;1.67;0.35;312.39;-635.94;223.00;1.13;154.80;19.23;59.42 
6.256;0.34;0.87;-0.57;-1.04;1.95;0.35;313.38;-634.03;225.00;1.09;154.89;19.22;59.39 
6.286;0.33;0.89;-0.59;-1.04;0.97;0.56;313.38;-637.86;222.00;1.12;154.96;19.23;59.36 
6.316;0.33;0.92;-0.60;-0.70;2.30;0.63;317.35;-636.90;225.00;1.15;155.04;19.24;59.33 
6.346;0.32;0.90;-0.58;-0.42;2.37;0.56;313.38;-638.82;222.00;1.12;155.11;19.25;59.29 
6.375;0.33;0.90;-0.54;-0.42;1.81;0.42;311.40;-638.82;220.00;1.10;155.18;19.27;59.24 
6.405;0.34;0.87;-0.55;-0.14;1.60;-0.28;312.39;-638.82;219.00;1.08;155.26;19.27;59.21 
6.434;0.34;0.91;-0.57;0.21;0.00;0.07;314.37;-638.82;223.00;1.13;155.35;19.25;59.18 
6.464;0.33;0.90;-0.55;0.63;-0.07;-0.07;312.39;-638.82;221.00;1.11;155.43;19.21;59.12 
6.494;0.34;0.90;-0.58;1.18;-0.97;0.28;310.41;-638.82;220.00;1.12;155.53;19.17;59.07 
6.524;0.34;0.89;-0.58;0.77;-0.70;0.14;310.41;-637.86;221.00;1.12;155.59;19.13;58.99 
6.554;0.35;0.89;-0.58;1.11;-0.63;-0.35;311.40;-637.86;225.00;1.12;155.68;19.10;58.92 
6.584;0.34;0.92;-0.58;1.32;-1.32;-0.63;307.43;-636.90;226.00;1.14;155.77;19.04;58.86 
6.614;0.32;0.90;-0.58;1.39;-2.16;-0.35;314.37;-639.77;224.00;1.12;155.86;18.98;58.79 
6.645;0.34;0.88;-0.62;1.04;-2.50;-0.14;311.40;-637.86;224.00;1.13;155.96;18.90;58.73 
6.675;0.33;0.90;-0.58;0.49;-1.25;0.07;311.40;-637.86;224.00;1.12;156.02;18.85;58.66 
6.705;0.33;0.92;-0.59;0.14;-0.56;-0.14;311.40;-638.82;223.00;1.14;156.10;18.80;58.59 
6.735;0.30;0.90;-0.57;0.28;-0.14;0.42;311.40;-636.90;227.00;1.11;156.18;18.77;58.53 
6.765;0.35;0.90;-0.57;0.28;0.49;0.56;311.40;-635.94;226.00;1.12;156.26;18.75;58.47 
6.795;0.32;0.88;-0.62;-0.14;0.90;0.83;312.39;-636.90;224.00;1.12;156.32;18.75;58.41 
6.825;0.34;0.88;-0.57;-0.21;2.02;0.63;309.42;-638.82;224.00;1.10;156.39;18.77;58.35 
6.856;0.32;0.90;-0.55;0.07;1.25;-0.35;312.39;-635.94;225.00;1.10;156.49;18.75;58.32 
6.886;0.34;0.90;-0.58;-0.28;0.07;-0.63;315.37;-637.86;225.00;1.12;156.59;18.72;58.28 
6.916;0.33;0.90;-0.60;-0.63;0.42;-1.18;309.42;-637.86;225.00;1.13;156.69;18.69;58.25 
6.947;0.34;0.90;-0.57;-0.63;-1.67;-0.97;312.39;-634.03;228.00;1.12;156.81;18.63;58.23 
6.977;0.35;0.90;-0.56;0.07;-1.11;-1.18;311.40;-636.90;225.00;1.12;156.95;18.54;58.21 
7.007;0.35;0.90;-0.59;-0.21;-1.74;-0.83;308.42;-635.94;227.00;1.13;157.07;18.46;58.20 
7.037;0.30;0.94;-0.59;0.00;-1.67;-1.11;312.39;-632.11;229.00;1.15;157.17;18.39;58.16 
7.068;0.34;0.92;-0.59;0.42;-0.90;-1.88;313.38;-633.07;225.00;1.14;157.30;18.31;58.12 
7.098;0.32;0.90;-0.59;0.28;-0.14;-1.25;312.39;-634.03;229.00;1.12;157.42;18.25;58.08 
7.128;0.33;0.94;-0.58;0.21;0.70;-1.39;312.39;-635.94;226.00;1.15;157.56;18.18;58.07 
7.158;0.35;0.88;-0.59;0.42;-0.70;-1.11;311.40;-635.94;228.00;1.12;157.68;18.13;58.03 
7.188;0.30;0.87;-0.63;-0.28;-0.77;-0.56;311.40;-633.07;227.00;1.12;157.78;18.09;57.97 
7.218;0.32;0.92;-0.58;-0.49;0.97;0.00;312.39;-634.99;228.00;1.13;157.87;18.05;57.92 
7.247;0.32;0.91;-0.57;-0.28;0.28;-0.07;310.41;-633.07;228.00;1.12;157.97;18.02;57.88 
7.276;0.30;0.90;-0.60;0.21;0.14;-0.07;310.41;-632.11;228.00;1.12;158.06;18.00;57.83 
7.305;0.31;0.91;-0.58;0.35;0.90;0.21;313.38;-630.20;226.00;1.12;158.14;17.97;57.77 
7.334;0.32;0.90;-0.57;0.77;1.88;0.00;309.42;-635.94;227.00;1.11;158.23;17.96;57.71 
7.363;0.31;0.89;-0.58;1.25;1.11;0.00;313.38;-634.03;226.00;1.11;158.31;17.96;57.63 
7.393;0.32;0.90;-0.58;1.11;1.04;0.00;313.38;-634.03;228.00;1.12;158.40;17.96;57.55 
7.423;0.34;0.90;-0.58;0.56;1.74;0.14;313.38;-635.94;227.00;1.12;158.49;17.95;57.49 
7.454;0.33;0.90;-0.61;0.14;0.77;0.21;313.38;-634.03;228.00;1.14;158.58;17.95;57.43 
7.484;0.34;0.88;-0.58;0.00;0.77;-0.07;313.38;-630.20;229.00;1.11;158.68;17.92;57.37 
7.514;0.30;0.90;-0.62;-0.42;1.88;0.14;312.39;-636.90;228.00;1.13;158.77;17.90;57.31 
7.545;0.33;0.90;-0.61;-0.70;3.69;0.28;312.39;-634.99;230.00;1.14;158.86;17.90;57.26 
7.575;0.34;0.89;-0.59;-1.11;3.83;-0.21;312.39;-635.94;225.00;1.12;158.95;17.94;57.20 
7.605;0.33;0.91;-0.60;-1.11;2.23;-0.28;314.37;-637.86;229.00;1.14;159.03;17.97;57.17 
7.635;0.35;0.89;-0.60;-1.11;2.99;-0.49;315.37;-635.94;226.00;1.13;159.13;17.97;57.16 
7.666;0.31;0.91;-0.59;-1.32;2.02;0.14;311.40;-634.99;225.00;1.13;159.22;17.98;57.13 
7.696;0.33;0.89;-0.58;-1.25;2.09;0.83;311.40;-635.94;227.00;1.11;159.28;18.02;57.09 
7.726;0.31;0.89;-0.59;-1.04;3.83;-0.07;313.38;-637.86;220.00;1.11;159.33;18.07;57.04 
7.757;0.33;0.92;-0.59;-0.90;3.34;0.35;312.39;-638.82;225.00;1.14;159.43;18.09;57.02 
7.787;0.33;0.90;-0.58;-1.25;2.99;1.11;311.40;-637.86;224.00;1.12;159.49;18.14;56.99 
7.817;0.31;0.90;-0.57;-1.60;2.78;0.90;313.38;-637.86;225.00;1.11;159.55;18.18;56.95 
7.847;0.31;0.90;-0.56;-1.04;2.02;0.35;310.41;-641.69;223.00;1.10;159.61;18.21;56.91 
7.876;0.32;0.90;-0.58;-0.63;1.32;0.07;312.39;-636.90;224.00;1.12;159.68;18.22;56.85 
7.905;0.34;0.90;-0.57;-0.21;1.25;0.28;312.39;-640.73;221.00;1.12;159.75;18.24;56.79 
7.934;0.34;0.91;-0.58;-1.60;1.74;0.42;310.41;-638.82;222.00;1.13;159.82;18.25;56.76 
7.964;0.34;0.88;-0.58;-2.09;1.95;0.21;316.36;-639.77;221.00;1.11;159.90;18.26;56.74 
7.993;0.32;0.88;-0.60;-2.30;2.30;0.35;314.37;-636.90;223.00;1.11;159.98;18.27;56.73 
8.023;0.34;0.90;-0.58;-2.23;4.10;0.42;313.38;-639.77;222.00;1.12;160.06;18.29;56.73 
8.054;0.34;0.94;-0.57;-3.48;4.38;1.53;314.37;-638.82;219.00;1.15;160.12;18.35;56.72 
8.084;0.37;0.88;-0.58;-2.92;3.76;0.90;312.39;-637.86;223.00;1.12;160.17;18.41;56.71 
8.114;0.37;0.91;-0.58;-2.23;2.09;-0.42;311.40;-641.69;219.00;1.14;160.27;18.41;56.75 
8.144;0.34;0.90;-0.56;-1.18;0.28;-1.18;311.40;-642.65;219.00;1.11;160.38;18.38;56.75 
8.174;0.34;0.90;-0.58;-1.32;0.70;-1.53;311.40;-636.90;219.00;1.12;160.49;18.35;56.73 
8.204;0.34;0.90;-0.58;-1.60;0.77;-0.49;314.37;-640.73;219.00;1.12;160.61;18.31;56.72 
8.234;0.32;0.91;-0.54;-1.67;2.57;-0.07;317.35;-638.82;218.00;1.11;160.72;18.28;56.68 
8.265;0.33;0.92;-0.58;-1.81;2.85;0.49;314.37;-639.77;217.00;1.14;160.82;18.28;56.67 
8.295;0.30;0.92;-0.57;-2.57;2.57;0.90;313.38;-642.65;218.00;1.12;160.89;18.31;56.65 
8.325;0.34;0.88;-0.58;-0.77;2.16;1.46;314.37;-639.77;217.00;1.11;160.95;18.33;56.64 
8.355;0.33;0.86;-0.58;-0.63;2.64;1.11;316.36;-643.61;217.00;1.09;161.00;18.37;56.58 
8.385;0.34;0.91;-0.58;-0.42;1.53;2.09;314.37;-644.56;216.00;1.13;161.02;18.43;56.48 
8.415;0.34;0.89;-0.57;-0.14;1.32;1.11;311.40;-640.73;216.00;1.11;161.06;18.47;56.38 
8.445;0.34;0.89;-0.55;0.35;1.32;1.39;313.38;-640.73;215.00;1.10;161.11;18.50;56.29 
8.476;0.36;0.91;-0.53;0.90;0.77;1.18;314.37;-643.61;216.00;1.11;161.15;18.53;56.20 
8.506;0.36;0.90;-0.55;1.67;-1.04;0.56;315.37;-642.65;214.00;1.11;161.21;18.54;56.09 
8.536;0.35;0.90;-0.58;1.74;-2.09;0.21;312.39;-643.61;215.00;1.13;161.27;18.52;55.98 
8.567;0.33;0.91;-0.56;1.74;-2.50;0.07;312.39;-639.77;217.00;1.12;161.36;18.46;55.88 
8.597;0.31;0.90;-0.58;1.67;-2.71;0.14;313.38;-640.73;216.00;1.11;161.46;18.39;55.77 
8.627;0.34;0.91;-0.58;1.46;-2.23;-0.70;312.39;-639.77;221.00;1.13;161.56;18.33;55.67 
8.657;0.32;0.90;-0.57;1.11;-1.88;-0.63;310.41;-643.61;220.00;1.11;161.66;18.26;55.58 
8.687;0.34;0.90;-0.55;0.83;-0.63;-1.04;313.38;-642.65;220.00;1.11;161.79;18.19;55.51 
8.717;0.35;0.91;-0.61;0.70;-0.97;-0.63;313.38;-638.82;220.00;1.15;161.90;18.13;55.43 
8.747;0.34;0.90;-0.57;0.49;-0.14;-0.70;313.38;-640.73;221.00;1.12;162.01;18.09;55.37 
8.778;0.34;0.92;-0.60;0.21;-0.14;-0.56;311.40;-640.73;221.00;1.15;162.13;18.04;55.31 
8.808;0.33;0.90;-0.61;0.00;0.14;0.28;314.37;-637.86;221.00;1.14;162.22;18.02;55.25 
8.838;0.34;0.91;-0.59;0.49;0.56;0.77;313.38;-640.73;219.00;1.14;162.27;18.05;55.19 
8.868;0.34;0.89;-0.57;0.77;-0.70;1.32;313.38;-641.69;221.00;1.11;162.32;18.07;55.09 
8.898;0.34;0.88;-0.58;0.77;-0.70;1.46;312.39;-639.77;222.00;1.11;162.38;18.05;55.00 
8.928;0.38;0.88;-0.57;0.63;-0.07;1.04;311.40;-639.77;221.00;1.12;162.44;18.06;54.89 
8.957;0.34;0.90;-0.58;0.70;-0.42;1.53;311.40;-640.73;223.00;1.12;162.48;18.08;54.78 
8.986;0.34;0.88;-0.59;0.35;0.70;1.25;310.41;-636.90;222.00;1.11;162.52;18.11;54.67 
9.016;0.34;0.90;-0.60;-0.21;-0.42;1.95;305.45;-640.73;224.00;1.13;162.56;18.14;54.59 
9.045;0.34;0.89;-0.57;-0.70;0.35;1.81;307.43;-643.61;226.00;1.11;162.58;18.18;54.52 
9.075;0.34;0.94;-0.58;-0.97;0.14;1.32;307.43;-639.77;222.00;1.16;162.62;18.21;54.46 
9.105;0.34;0.92;-0.60;-1.39;0.28;1.04;309.42;-640.73;225.00;1.15;162.66;18.23;54.41 
9.135;0.34;0.91;-0.62;-1.46;0.00;0.83;309.42;-641.69;222.00;1.15;162.70;18.26;54.34 
9.165;0.34;0.90;-0.58;-1.81;-0.56;0.42;311.40;-639.77;223.00;1.12;162.76;18.26;54.32 
9.195;0.35;0.90;-0.60;-1.39;-1.67;0.00;307.43;-638.82;223.00;1.14;162.82;18.25;54.29 
9.225;0.34;0.90;-0.56;-1.32;-2.37;-1.11;312.39;-640.73;220.00;1.11;162.91;18.21;54.26 
9.255;0.41;0.91;-0.51;-0.28;-2.16;-3.41;312.39;-637.86;224.00;1.12;163.06;18.10;54.26 
9.285;0.34;0.90;-0.58;-0.42;-3.48;-3.06;315.37;-635.94;225.00;1.12;163.27;17.94;54.25 
9.315;0.33;0.92;-0.59;-0.42;-1.60;-2.50;310.41;-639.77;226.00;1.14;163.45;17.80;54.27 
9.345;0.33;0.90;-0.59;-0.35;-0.49;-2.16;309.42;-638.82;224.00;1.13;163.61;17.70;54.24 
9.376;0.34;0.91;-0.58;0.14;-0.42;-1.46;311.40;-639.77;226.00;1.13;163.76;17.62;54.23 
9.406;0.34;0.86;-0.58;1.04;0.83;-0.77;312.39;-638.82;225.00;1.09;163.90;17.56;54.18 
9.436;0.31;0.90;-0.62;1.53;0.63;0.49;314.37;-635.94;223.00;1.14;164.01;17.53;54.12 
9.466;0.32;0.91;-0.59;1.67;0.56;0.97;312.39;-636.90;227.00;1.13;164.09;17.54;54.01 
9.496;0.32;0.92;-0.61;1.88;0.83;1.46;312.39;-638.82;225.00;1.15;164.15;17.56;53.86 
9.526;0.34;0.88;-0.58;1.74;0.35;1.04;311.40;-636.90;224.00;1.11;164.19;17.60;53.70 
9.556;0.34;0.90;-0.58;-0.07;-0.28;0.56;311.40;-636.90;225.00;1.12;164.26;17.61;53.61 
9.587;0.34;0.90;-0.57;0.56;4.45;-3.41;310.41;-640.73;227.00;1.12;164.35;17.64;53.56 
9.617;0.34;0.97;-0.58;-0.77;-8.90;-2.99;311.40;-636.90;225.00;1.18;164.60;17.49;53.58 
