Time(s) acc_x(g) acc_y(g) acc_z(g) gyr_x(°/s) gyr_y(°/s) gyr_z(°/s) mag_x(G) mag_y(G) mag_z(G) SVM(g) yaw(°) pitch(°) roll(°)
0.000;-0.22;0.13;0.84;-0.97;-0.70;-0.42;151.73;-466.42;-390.00;0.88;-164.57;-13.08;8.23 
0.030;-0.22;0.15;0.86;-0.70;0.00;-1.74;146.77;-467.38;-389.00;0.90;-164.49;-13.06;8.18 
0.060;-0.23;0.18;0.82;-0.42;-1.04;-0.97;148.76;-470.25;-389.00;0.87;-164.40;-13.02;8.15 
0.090;-0.24;0.19;0.82;-0.49;0.28;0.63;146.77;-469.30;-390.00;0.88;-164.37;-12.97;8.15 
0.120;-0.21;0.21;0.83;-0.90;0.90;2.92;147.77;-468.34;-387.00;0.88;-164.39;-12.94;8.16 
0.151;-0.20;0.19;0.87;-1.46;2.30;6.75;148.76;-466.42;-390.00;0.91;-164.50;-12.94;8.22 
0.181;-0.22;0.20;0.87;-2.85;1.88;8.56;146.77;-468.34;-387.00;0.92;-164.69;-12.91;8.24 
0.211;-0.20;0.18;0.89;-3.83;2.30;10.71;142.81;-467.38;-389.00;0.93;-164.96;-12.88;8.25 
0.242;-0.23;0.16;0.87;-5.29;-0.07;11.27;144.79;-468.34;-388.00;0.91;-165.29;-12.85;8.23 
0.272;-0.24;0.14;0.86;-5.63;-0.56;8.83;141.82;-465.46;-387.00;0.90;-165.60;-12.77;8.12 
0.302;-0.22;0.10;0.85;-4.10;1.18;5.29;138.84;-470.25;-390.00;0.88;-165.79;-12.73;7.98 
0.332;-0.24;0.14;0.86;-1.67;1.60;1.04;138.84;-466.42;-385.00;0.90;-165.85;-12.75;7.85 
0.361;-0.22;0.12;0.86;0.28;-0.28;-3.13;136.86;-468.34;-390.00;0.90;-165.79;-12.75;7.79 
0.391;-0.24;0.10;0.86;2.37;-2.09;-6.40;138.84;-468.34;-389.00;0.90;-165.61;-12.72;7.75 
0.420;-0.26;0.11;0.85;2.64;-2.64;-11.06;140.82;-469.30;-387.00;0.90;-165.30;-12.67;7.73 
0.450;-0.26;0.10;0.88;3.48;-3.55;-14.12;137.85;-471.21;-389.00;0.92;-164.88;-12.63;7.71 
0.480;-0.24;0.14;0.83;3.97;-3.97;-15.79;144.79;-470.25;-392.00;0.88;-164.38;-12.58;7.70 
0.510;-0.23;0.13;0.82;6.05;0.49;-17.53;145.78;-469.30;-386.00;0.86;-163.83;-12.59;7.72 
0.540;-0.24;0.15;0.82;6.26;3.90;-18.57;146.77;-470.25;-387.00;0.87;-163.22;-12.72;7.78 
0.570;-0.21;0.14;0.86;6.40;8.00;-19.27;153.72;-470.25;-391.00;0.90;-162.58;-12.95;7.85 
0.600;-0.23;0.17;0.89;6.40;6.82;-17.74;155.70;-466.42;-389.00;0.93;-161.97;-13.22;7.91 
0.630;-0.26;0.19;0.83;4.59;4.31;-17.11;157.68;-463.55;-389.00;0.89;-161.40;-13.43;7.96 
0.661;-0.19;0.22;0.83;6.40;12.10;-15.44;158.67;-464.51;-389.00;0.88;-160.84;-13.71;8.03 
0.691;-0.22;0.25;0.88;9.32;14.12;-6.26;162.64;-459.72;-394.00;0.94;-160.44;-14.10;8.28 
0.721;-0.26;0.14;0.90;6.40;6.61;-6.40;165.62;-460.68;-390.00;0.95;-160.20;-14.41;8.50 
0.752;-0.27;0.07;0.89;9.81;2.30;3.90;163.63;-455.89;-390.00;0.93;-160.01;-14.54;8.71 
0.782;-0.26;0.08;0.86;1.88;2.92;-19.76;167.60;-456.85;-392.00;0.90;-159.69;-14.65;8.65 
0.812;-0.29;0.07;0.87;4.52;1.18;-11.83;170.57;-459.72;-393.00;0.92;-159.24;-14.70;8.50 
0.842;-0.18;0.05;0.88;-7.86;20.52;-68.87;172.56;-451.10;-395.00;0.90;-157.74;-15.57;7.73 
0.871;-0.27;0.17;0.90;1.74;-4.94;-17.39;172.56;-450.14;-394.00;0.95;-156.57;-15.81;7.21 
0.900;-0.26;0.16;0.86;4.94;-7.17;-7.37;174.54;-450.14;-394.00;0.91;-156.22;-15.65;7.24 
0.930;-0.19;0.05;0.85;2.43;2.43;-16.07;177.52;-450.14;-391.00;0.87;-155.76;-15.72;6.92 
0.961;-0.18;0.22;0.75;-2.64;-4.59;37.70;172.56;-454.93;-391.00;0.80;-156.33;-14.57;7.82 
0.991;-0.40;0.14;1.13;-19.34;1.81;-17.60;176.53;-454.93;-393.00;1.21;-156.21;-14.72;8.24 
1.021;-0.35;0.10;0.98;7.65;11.20;-28.10;175.53;-457.80;-389.00;1.05;-155.38;-14.40;7.45 
1.052;0.00;-0.25;1.10;-83.13;43.20;-11.06;161.65;-452.06;-392.00;1.13;-155.12;-14.67;5.40 
1.082;-0.30;-0.27;0.98;-49.46;132.24;-6.40;149.75;-439.61;-399.00;1.06;-155.52;-16.49;3.24 
1.112;-0.59;0.47;0.57;-37.43;125.01;-25.60;146.77;-408.00;-404.00;0.95;-154.74;-21.49;2.49 
1.141;-0.51;0.19;0.60;-10.02;-17.32;-44.66;141.82;-393.63;-406.00;0.81;-153.87;-23.35;1.47 
1.171;-0.34;0.16;0.70;13.50;-19.69;-32.56;135.86;-398.42;-405.00;0.79;-152.86;-22.86;1.17 
1.201;-0.37;0.25;0.79;14.61;-8.63;-15.72;144.79;-400.34;-408.00;0.91;-152.03;-22.47;1.26 
1.231;-0.34;0.12;0.73;20.73;8.90;-13.15;149.75;-402.25;-402.00;0.81;-151.39;-22.38;1.56 
1.262;-0.22;0.02;0.86;12.10;27.69;12.17;153.72;-398.42;-407.00;0.89;-151.21;-22.81;2.03 
1.292;-0.36;0.06;0.80;10.43;24.63;31.03;155.70;-392.68;-405.00;0.88;-151.72;-23.54;2.57 
1.322;-0.68;0.17;0.83;0.00;-9.88;10.09;161.65;-388.85;-407.00;1.09;-152.59;-23.82;3.17 
1.352;-0.43;0.11;0.85;-6.89;-30.82;10.50;155.70;-395.55;-406.00;0.96;-152.98;-23.05;2.95 
1.382;-0.37;0.07;0.80;-1.67;-49.32;15.86;152.72;-403.21;-403.00;0.88;-153.73;-21.64;2.88 
1.412;-0.29;-0.11;0.77;23.65;-1.32;32.90;150.74;-410.87;-402.00;0.83;-154.40;-20.49;3.27 
1.442;-0.18;0.51;0.79;67.27;-80.56;92.59;162.64;-419.49;-402.00;0.96;-155.97;-19.73;5.41 
1.473;-0.34;0.02;0.98;50.92;-108.66;44.24;171.57;-438.65;-395.00;1.04;-158.02;-16.35;7.76 
1.503;-0.24;-0.24;1.07;6.75;12.87;4.03;177.52;-452.06;-390.00;1.12;-158.71;-14.56;8.67 
1.533;-0.15;0.25;0.93;-8.35;-8.83;-8.42;179.50;-453.97;-389.00;0.97;-158.32;-14.50;8.41 
1.564;-0.31;0.18;0.86;-2.85;-1.88;19.83;176.53;-455.89;-392.00;0.93;-158.81;-14.14;8.49 
1.594;-0.26;0.22;0.78;-7.37;-3.62;12.03;176.53;-458.76;-389.00;0.85;-159.22;-14.00;8.43 
1.624;-0.32;0.20;0.78;-6.82;-2.37;17.18;174.54;-458.76;-389.00;0.87;-159.73;-13.87;8.38 
1.654;-0.26;0.16;0.79;-5.22;2.37;19.06;174.54;-459.72;-386.00;0.85;-160.27;-13.82;8.32 
1.685;-0.34;0.11;0.76;-3.13;5.63;19.20;168.59;-457.80;-387.00;0.84;-160.88;-13.88;8.33 
1.715;-0.27;0.10;0.82;-0.49;5.36;20.03;171.57;-459.72;-391.00;0.87;-161.47;-14.01;8.39 
1.745;-0.28;0.08;0.79;4.66;7.65;18.37;167.60;-459.72;-389.00;0.84;-162.01;-14.11;8.53 
1.776;-0.26;0.09;0.85;7.51;15.23;18.50;166.61;-457.80;-389.00;0.89;-162.50;-14.39;8.78 
1.806;-0.33;0.10;0.87;8.77;9.39;20.73;165.62;-453.01;-394.00;0.94;-163.03;-14.70;9.09 
1.836;-0.35;0.14;0.85;10.43;0.97;22.26;171.57;-453.97;-392.00;0.93;-163.54;-14.79;9.46 
1.866;-0.35;0.09;0.80;11.13;-0.63;26.09;170.57;-454.93;-391.00;0.88;-164.16;-14.73;9.91 
1.896;-0.34;0.13;0.77;11.62;8.70;21.63;167.60;-452.06;-390.00;0.85;-164.76;-14.79;10.36 
1.926;-0.30;0.07;0.74;12.66;18.30;20.24;176.53;-451.10;-391.00;0.80;-165.23;-15.10;10.78 
1.955;-0.32;0.10;0.85;13.98;28.94;17.32;175.53;-447.27;-391.00;0.91;-165.60;-15.72;11.19 
1.986;-0.35;0.14;0.86;12.59;23.65;20.24;178.51;-445.35;-394.00;0.94;-165.94;-16.48;11.65 
2.016;-0.42;0.17;0.78;16.07;9.39;22.61;174.54;-442.48;-396.00;0.90;-166.41;-16.88;12.18 
2.046;-0.39;0.14;0.70;22.89;11.69;22.26;179.50;-436.73;-395.00;0.81;-166.85;-17.12;12.85 
2.076;-0.41;0.18;0.70;31.58;17.18;23.72;186.44;-436.73;-394.00;0.83;-167.19;-17.52;13.77 
2.105;-0.34;0.15;0.69;34.71;19.13;26.64;189.42;-434.82;-394.00;0.78;-167.56;-17.95;14.93 
2.135;-0.31;0.16;0.69;29.84;31.37;25.53;194.38;-430.99;-395.00;0.77;-167.91;-18.42;15.98 
2.165;-0.38;0.12;0.71;24.90;32.49;28.10;200.33;-424.28;-396.00;0.81;-168.29;-19.23;16.91 
2.195;-0.30;0.06;0.67;18.85;25.32;23.51;203.30;-418.54;-397.00;0.74;-168.77;-19.91;17.70 
2.225;-0.22;0.01;0.66;11.27;22.05;14.82;211.24;-418.54;-395.00;0.70;-169.07;-20.42;18.13 
2.254;-0.17;0.07;0.66;13.50;17.18;-4.03;208.26;-413.75;-398.00;0.69;-169.07;-20.86;18.30 
2.285;-0.14;0.08;0.70;23.65;-8.14;3.20;215.20;-411.83;-398.00;0.72;-168.65;-21.00;18.64 
2.315;-0.24;-0.01;0.52;12.73;-18.85;6.40;219.17;-417.58;-393.00;0.57;-168.71;-20.43;19.05 
2.344;-0.16;0.06;0.50;7.03;11.13;-33.04;222.14;-420.45;-393.00;0.53;-168.15;-20.61;18.95 
2.374;-0.03;0.02;0.64;17.53;-5.77;-35.83;225.12;-415.66;-393.00;0.64;-166.91;-21.00;18.71 
2.404;-0.35;0.10;0.46;10.64;-36.24;-28.94;227.10;-419.49;-391.00;0.59;-165.74;-20.62;18.47 
2.434;-0.40;0.22;0.42;23.37;-1.74;-28.52;233.05;-423.32;-392.00;0.62;-164.76;-20.47;18.58 
2.464;-0.08;0.45;0.63;55.10;16.56;-26.99;241.98;-419.49;-388.00;0.78;-163.17;-21.30;19.44 
2.494;-0.26;0.30;0.66;43.76;-31.51;41.25;253.88;-424.28;-382.00;0.77;-163.40;-20.74;21.09 
2.524;-0.38;0.40;0.50;46.75;-44.80;40.14;255.86;-433.86;-379.00;0.74;-164.14;-19.34;22.85 
2.553;-0.30;0.34;0.34;36.24;-56.56;46.82;263.80;-445.35;-379.00;0.57;-165.10;-17.67;24.58 
2.584;-0.22;0.30;0.34;52.03;-23.30;48.49;267.76;-464.51;-372.00;0.50;-166.20;-15.99;26.44 
2.614;-0.26;0.34;0.42;70.05;-17.39;56.83;276.69;-473.13;-367.00;0.60;-167.29;-14.96;28.76 
2.644;-0.41;0.52;0.41;92.52;-6.26;73.81;287.60;-479.83;-361.00;0.78;-168.67;-13.70;31.71 
2.674;-0.81;0.54;0.77;110.19;-24.35;89.39;304.46;-490.37;-357.00;1.24;-170.08;-12.39;35.36 
2.704;0.18;1.86;1.19;74.99;-15.58;118.47;318.34;-504.73;-348.00;2.22;-172.94;-10.31;38.95 
2.734;-0.29;0.85;0.85;-46.96;-217.32;81.88;300.49;-519.10;-349.00;1.24;-174.84;-7.44;35.15 
2.764;-0.34;0.94;1.17;4.87;-341.22;141.63;287.60;-559.32;-332.00;1.54;-178.25;0.08;34.90 
2.795;1.42;4.18;2.09;145.11;-266.37;166.19;269.75;-621.58;-290.00;4.88;178.35;11.02;35.18 
2.825;1.54;1.82;1.02;318.96;29.63;6.26;275.70;-668.51;-228.00;2.59;173.89;16.98;41.12 
2.855;-0.27;-0.25;0.94;485.84;26.92;36.45;322.31;-656.06;-216.00;1.01;170.99;14.81;52.50 
2.885;0.30;-1.82;0.80;284.45;-100.80;149.57;346.11;-667.55;-168.00;2.01;164.64;19.11;59.24 
2.915;0.29;0.45;0.44;165.63;75.90;-104.90;349.08;-680.96;-128.00;0.69;163.06;19.53;63.23 
2.945;0.90;1.94;0.62;205.91;-106.37;59.76;379.83;-672.34;-110.00;2.23;162.71;18.84;67.24 
2.975;0.29;0.98;0.26;153.95;-308.66;133.91;372.88;-682.87;-65.00;1.05;159.63;21.61;67.54 
3.005;0.02;0.81;-1.00;210.37;-414.40;162.71;344.13;-703.94;20.00;1.29;151.17;27.01;62.50 
3.035;0.23;0.63;-1.96;186.09;-381.36;31.51;308.42;-701.07;110.00;2.07;142.66;27.38;57.33 
3.065;-0.41;0.70;-1.82;24.00;-142.47;8.00;289.58;-662.76;207.00;1.99;137.36;23.95;54.53 
3.096;0.40;0.90;-1.38;-104.07;254.89;-16.21;291.56;-671.38;193.00;1.70;138.88;24.32;55.62 
3.126;0.23;0.62;-0.25;-103.23;156.31;-17.46;304.46;-688.62;140.00;0.71;143.94;26.62;58.23 
3.156;0.42;0.58;0.02;-82.57;-26.50;15.10;312.39;-695.32;106.00;0.72;145.70;27.53;59.45 
3.186;0.28;0.51;-0.27;-40.14;-127.17;16.14;311.40;-692.45;116.00;0.64;145.43;27.61;59.73 
3.216;0.17;0.42;-0.82;-3.41;-167.93;23.51;315.37;-685.75;121.00;0.94;143.37;26.97;59.41 
3.246;0.28;0.65;-1.26;47.17;-100.31;12.10;307.43;-669.46;161.00;1.45;140.63;26.31;58.56 
3.276;0.24;0.93;-1.30;96.28;-11.83;13.77;301.48;-668.51;177.00;1.62;137.99;25.83;56.87 
3.307;0.27;1.04;-1.19;73.60;36.94;4.24;281.65;-671.38;187.00;1.60;136.75;26.12;55.03 
3.337;0.37;1.02;-0.89;2.09;58.50;-9.67;279.66;-675.21;188.00;1.40;136.60;26.59;54.01 
3.367;0.38;0.90;-0.56;-30.68;91.83;-26.02;284.62;-678.08;173.00;1.13;138.69;26.85;54.98 
3.398;0.50;0.86;-0.25;-38.54;29.70;-7.72;289.58;-681.92;164.00;1.03;140.66;27.16;56.20 
3.428;0.48;0.72;-0.25;-40.56;-32.97;7.17;294.54;-682.87;155.00;0.90;141.37;27.21;56.97 
3.458;0.50;0.76;-0.46;-30.05;-29.08;16.83;294.54;-682.87;156.00;1.02;141.25;27.34;57.26 
3.488;0.60;0.77;-0.58;-17.81;-23.10;9.04;295.53;-680.96;157.00;1.14;140.86;27.60;57.20 
3.517;0.52;0.87;-0.58;-15.03;-15.23;-3.97;296.52;-679.04;159.00;1.17;140.72;27.56;57.29 
3.547;0.44;0.88;-0.58;-18.99;10.99;-9.60;300.49;-679.04;165.00;1.14;141.18;27.33;57.71 
3.577;0.43;0.90;-0.52;-22.68;29.77;-17.81;306.44;-679.04;161.00;1.12;142.23;27.11;58.41 
3.608;0.46;0.88;-0.42;-17.53;34.37;-18.85;308.42;-682.87;152.00;1.08;143.59;26.86;59.23 
3.638;0.48;0.88;-0.33;-7.10;25.81;-26.30;315.37;-684.79;147.00;1.06;144.96;26.41;60.08 
3.668;0.49;0.98;-0.32;-6.61;3.83;-13.15;321.32;-681.92;139.00;1.14;146.01;25.92;60.81 
3.698;0.43;1.01;-0.41;-6.61;-0.21;-9.88;325.28;-681.92;141.00;1.17;146.59;25.59;61.26 
3.727;0.42;0.98;-0.40;-7.03;1.60;-9.25;325.28;-680.96;139.00;1.14;147.12;25.29;61.68 
3.756;0.40;1.01;-0.40;-3.76;-4.73;-8.14;325.28;-679.04;139.00;1.16;147.63;24.95;62.10 
3.785;0.36;0.95;-0.40;-1.74;-11.20;-6.40;331.23;-679.04;142.00;1.09;147.95;24.65;62.41 
3.815;0.41;0.97;-0.46;1.60;-14.54;-4.66;330.24;-677.13;144.00;1.15;148.11;24.35;62.62 
3.845;0.38;0.97;-0.46;4.94;-12.80;-5.15;336.19;-676.17;143.00;1.14;148.16;24.09;62.74 
3.875;0.37;0.96;-0.48;7.30;-11.34;-3.97;333.22;-675.21;143.00;1.14;148.20;23.84;62.83 
3.906;0.37;0.96;-0.47;7.10;-13.70;-1.18;331.23;-672.34;149.00;1.13;148.13;23.64;62.82 
3.936;0.38;0.93;-0.48;6.33;-12.45;0.35;330.24;-670.42;154.00;1.11;147.99;23.51;62.76 
3.966;0.36;0.94;-0.49;4.10;-12.17;1.18;332.22;-672.34;155.00;1.12;147.84;23.40;62.68 
3.996;0.36;0.93;-0.51;3.48;-7.30;0.97;333.22;-665.63;157.00;1.12;147.73;23.33;62.61 
4.026;0.37;0.92;-0.54;3.55;-3.41;0.70;331.23;-665.63;158.00;1.13;147.67;23.27;62.55 
4.056;0.34;0.95;-0.53;3.06;1.11;0.77;328.26;-667.55;158.00;1.14;147.68;23.22;62.52 
4.086;0.35;0.93;-0.50;1.88;4.17;1.67;332.22;-670.42;160.00;1.11;147.73;23.22;62.48 
4.117;0.35;0.96;-0.51;0.42;4.31;3.55;329.25;-668.51;162.00;1.14;147.76;23.29;62.43 
4.147;0.38;0.94;-0.51;0.70;8.00;3.48;328.26;-668.51;160.00;1.13;147.79;23.41;62.35 
4.177;0.40;0.93;-0.51;1.46;8.28;4.10;326.27;-671.38;157.00;1.13;147.82;23.56;62.26 
4.208;0.41;0.90;-0.49;1.32;7.23;4.10;326.27;-671.38;156.00;1.10;147.83;23.71;62.16 
4.238;0.40;0.94;-0.46;1.18;6.54;4.66;325.28;-673.30;156.00;1.12;147.81;23.90;62.03 
4.268;0.42;0.91;-0.49;0.70;5.57;5.98;326.27;-671.38;157.00;1.12;147.78;24.06;61.91 
4.298;0.42;0.89;-0.50;-0.14;6.26;5.98;322.31;-673.30;159.00;1.10;147.71;24.26;61.76 
4.328;0.43;0.91;-0.46;-0.70;4.38;5.22;321.32;-675.21;156.00;1.11;147.67;24.45;61.63 
4.358;0.42;0.90;-0.49;-0.42;2.43;3.13;321.32;-677.13;153.00;1.11;147.62;24.59;61.52 
4.388;0.41;0.89;-0.46;0.00;2.02;1.60;323.30;-676.17;153.00;1.08;147.60;24.69;61.44 
4.419;0.42;0.87;-0.48;0.28;0.21;1.88;317.35;-679.04;154.00;1.08;147.61;24.74;61.39 
4.449;0.41;0.91;-0.50;-0.28;1.39;0.49;319.33;-677.13;152.00;1.12;147.64;24.76;61.37 
4.479;0.42;0.93;-0.48;-0.21;2.37;-0.21;318.34;-676.17;151.00;1.13;147.72;24.75;61.39 
4.509;0.42;0.92;-0.47;-1.04;1.53;-1.32;319.33;-677.13;152.00;1.12;147.83;24.73;61.42 
4.539;0.44;0.86;-0.47;-1.04;-0.56;-0.83;319.33;-674.25;151.00;1.07;147.94;24.67;61.47 
4.569;0.42;0.93;-0.48;-0.56;-0.42;-0.77;321.32;-674.25;154.00;1.13;148.03;24.62;61.51 
4.599;0.42;0.91;-0.50;-0.63;0.00;-0.63;320.32;-678.08;153.00;1.12;148.10;24.59;61.54 
4.630;0.42;0.94;-0.50;-1.04;-1.81;-0.83;320.32;-677.13;153.00;1.14;148.20;24.53;61.59 
4.660;0.42;0.91;-0.51;-1.53;-5.15;-0.14;320.32;-677.13;151.00;1.12;148.29;24.45;61.65 
4.690;0.40;0.90;-0.50;-1.74;-3.41;-0.14;321.32;-677.13;153.00;1.10;148.33;24.39;61.68 
4.721;0.40;0.90;-0.52;-1.88;-0.07;-1.04;320.32;-674.25;150.00;1.11;148.42;24.34;61.73 
4.750;0.43;0.91;-0.49;-2.09;-0.35;-0.90;318.34;-673.30;156.00;1.12;148.52;24.28;61.78 
4.779;0.41;0.92;-0.46;-1.32;0.00;-1.46;321.32;-675.21;154.00;1.11;148.62;24.23;61.83 
4.808;0.41;0.88;-0.51;-0.49;0.21;-2.02;324.29;-675.21;155.00;1.10;148.72;24.17;61.88 
4.838;0.42;0.90;-0.46;-0.35;1.11;-2.71;321.32;-674.25;154.00;1.09;148.85;24.09;61.95 
4.868;0.41;0.92;-0.47;-0.70;-0.49;-1.60;320.32;-675.21;155.00;1.11;148.97;24.01;62.01 
4.898;0.40;0.94;-0.49;-1.25;-0.49;-1.25;321.32;-675.21;153.00;1.13;149.09;23.92;62.07 
4.929;0.41;0.94;-0.49;-0.63;1.67;-2.09;323.30;-673.30;154.00;1.14;149.21;23.84;62.13 
4.959;0.42;0.90;-0.46;0.70;-0.77;-2.50;324.29;-674.25;153.00;1.09;149.35;23.76;62.20 
4.989;0.41;0.90;-0.46;1.25;-3.06;-1.53;323.30;-673.30;154.00;1.09;149.45;23.66;62.25 
5.020;0.41;0.93;-0.49;1.32;-3.27;-1.67;327.27;-674.25;160.00;1.13;149.53;23.55;62.29 
5.050;0.39;0.92;-0.50;1.60;-2.23;-0.90;322.31;-673.30;156.00;1.12;149.58;23.47;62.29 
5.080;0.38;0.94;-0.50;1.53;0.21;-0.56;324.29;-669.46;157.00;1.13;149.65;23.39;62.31 
5.110;0.37;0.93;-0.49;0.83;0.21;-0.21;325.28;-674.25;159.00;1.11;149.72;23.34;62.31 
5.141;0.40;0.91;-0.50;-0.42;-0.70;-0.07;325.28;-672.34;157.00;1.11;149.77;23.30;62.30 
5.171;0.38;0.91;-0.48;-1.04;-1.04;0.35;322.31;-672.34;158.00;1.10;149.82;23.28;62.30 
5.201;0.40;0.94;-0.52;-0.42;-0.21;-0.70;323.30;-672.34;158.00;1.15;149.89;23.24;62.33 
5.232;0.39;0.92;-0.51;0.00;0.70;-0.42;323.30;-675.21;158.00;1.12;149.97;23.19;62.34 
5.261;0.40;0.93;-0.50;-0.77;2.37;-0.07;324.29;-672.34;158.00;1.13;150.05;23.16;62.36 
5.290;0.39;0.90;-0.51;-1.18;2.64;-1.04;323.30;-671.38;158.00;1.11;150.13;23.14;62.37 
5.320;0.41;0.92;-0.48;-0.83;0.56;-1.18;326.27;-672.34;157.00;1.12;150.25;23.09;62.43 
5.350;0.41;0.90;-0.49;-0.63;0.49;-1.18;326.27;-673.30;157.00;1.10;150.37;23.02;62.48 
5.380;0.41;0.90;-0.49;-0.63;0.56;-1.25;324.29;-673.30;157.00;1.10;150.48;22.96;62.53 
5.410;0.40;0.93;-0.49;-0.42;-1.53;-1.18;324.29;-672.34;159.00;1.12;150.59;22.89;62.58 
5.441;0.36;0.93;-0.51;0.14;-1.46;-0.90;325.28;-672.34;156.00;1.12;150.68;22.81;62.62 
5.471;0.39;0.92;-0.50;0.49;-1.04;-0.97;328.26;-669.46;160.00;1.12;150.76;22.74;62.63 
5.501;0.38;0.93;-0.48;0.63;-0.70;-0.63;325.28;-671.38;162.00;1.11;150.84;22.68;62.65 
5.532;0.37;0.94;-0.50;0.21;-0.63;-0.14;325.28;-673.30;159.00;1.13;150.89;22.63;62.64 
5.562;0.38;0.92;-0.54;0.21;0.42;0.14;326.27;-674.25;161.00;1.13;150.96;22.59;62.64 
5.592;0.42;0.90;-0.51;0.00;1.46;0.35;325.28;-670.42;158.00;1.12;151.01;22.57;62.62 
5.622;0.38;0.91;-0.54;0.00;0.63;0.49;325.28;-669.46;160.00;1.12;151.05;22.56;62.60 
5.653;0.39;0.90;-0.50;0.00;0.35;0.63;324.29;-672.34;157.00;1.10;151.09;22.54;62.58 
5.683;0.42;0.90;-0.50;-0.21;0.83;0.14;325.28;-670.42;158.00;1.11;151.13;22.54;62.55 
5.713;0.38;0.94;-0.54;-0.21;1.60;-0.14;325.28;-671.38;160.00;1.15;151.20;22.52;62.55 
5.744;0.39;0.93;-0.47;0.00;1.32;-0.35;325.28;-670.42;156.00;1.11;151.25;22.51;62.53 
5.773;0.39;0.92;-0.50;-0.21;0.21;-0.21;326.27;-671.38;162.00;1.12;151.32;22.48;62.53 
5.803;0.40;0.91;-0.52;-0.70;-0.90;-0.35;325.28;-667.55;160.00;1.12;151.39;22.45;62.54 
5.833;0.38;0.90;-0.51;-0.56;-0.63;-0.77;327.27;-673.30;159.00;1.10;151.46;22.40;62.55 
5.863;0.40;0.93;-0.49;-0.63;1.11;-0.56;327.27;-672.34;160.00;1.12;151.53;22.35;62.55 
5.893;0.38;0.91;-0.50;-0.63;0.70;-0.97;328.26;-670.42;161.00;1.11;151.62;22.30;62.58 
5.923;0.42;0.90;-0.51;0.00;1.18;-0.90;326.27;-674.25;161.00;1.12;151.72;22.24;62.60 
5.954;0.39;0.89;-0.48;0.07;1.11;-1.53;328.26;-668.51;159.00;1.08;151.82;22.19;62.62 
5.983;0.38;0.93;-0.52;-0.56;-0.56;-0.07;328.26;-671.38;158.00;1.13;151.91;22.13;62.64 
6.013;0.37;0.93;-0.51;-0.97;0.56;-0.28;326.27;-669.46;160.00;1.12;151.98;22.10;62.65 
6.044;0.38;0.92;-0.51;-0.90;1.25;0.42;325.28;-670.42;159.00;1.12;152.03;22.09;62.63 
6.074;0.38;0.92;-0.50;-0.49;1.74;0.90;326.27;-673.30;160.00;1.11;152.08;22.09;62.62 
6.104;0.40;0.88;-0.51;-0.56;1.32;0.97;328.26;-669.46;159.00;1.09;152.11;22.13;62.59 
6.134;0.39;0.94;-0.50;-0.83;1.67;0.83;326.27;-669.46;159.00;1.13;152.14;22.14;62.55 
6.165;0.41;0.94;-0.46;-0.90;1.81;-0.07;324.29;-668.51;159.00;1.12;152.21;22.13;62.56 
6.195;0.42;0.91;-0.45;-1.18;1.74;-0.63;323.30;-667.55;156.00;1.10;152.30;22.11;62.58 
6.225;0.39;0.91;-0.48;-1.18;1.39;-0.63;326.27;-675.21;157.00;1.10;152.38;22.10;62.59 
6.256;0.40;0.91;-0.50;-0.83;0.83;-0.49;325.28;-670.42;158.00;1.11;152.46;22.06;62.60 
6.286;0.38;0.91;-0.48;-0.97;2.16;-0.56;327.27;-671.38;157.00;1.10;152.56;22.02;62.62 
6.316;0.38;0.93;-0.47;-0.90;2.09;-0.90;330.24;-673.30;156.00;1.11;152.66;21.97;62.65 
6.346;0.39;0.92;-0.50;-0.77;1.04;-0.07;326.27;-671.38;156.00;1.12;152.75;21.94;62.67 
6.376;0.39;0.91;-0.49;-0.77;0.97;-0.07;325.28;-671.38;155.00;1.10;152.86;21.89;62.72 
6.406;0.37;0.93;-0.52;-0.28;0.77;-0.42;326.27;-671.38;154.00;1.13;152.94;21.85;62.72 
6.436;0.40;0.93;-0.50;0.49;0.28;-0.35;325.28;-668.51;159.00;1.13;153.01;21.80;62.71 
6.467;0.39;0.94;-0.48;0.56;0.28;-0.56;326.27;-670.42;157.00;1.13;153.09;21.76;62.70 
6.497;0.40;0.91;-0.50;0.90;-0.97;0.07;327.27;-669.46;157.00;1.11;153.17;21.70;62.70 
6.527;0.41;0.90;-0.51;0.49;-1.32;0.00;327.27;-667.55;155.00;1.11;153.22;21.66;62.68 
6.556;0.38;0.90;-0.51;0.21;0.42;0.07;326.27;-672.34;158.00;1.10;153.27;21.62;62.65 
6.585;0.37;0.94;-0.51;-0.21;1.25;0.28;327.27;-670.42;159.00;1.13;153.31;21.61;62.61 
6.615;0.40;0.92;-0.51;-0.14;1.60;0.56;327.27;-673.30;156.00;1.13;153.37;21.60;62.59 
6.645;0.39;0.91;-0.50;0.49;1.18;0.70;327.27;-671.38;156.00;1.11;153.41;21.60;62.56 
6.675;0.42;0.91;-0.51;0.35;1.88;0.07;328.26;-670.42;158.00;1.12;153.45;21.61;62.52 
6.705;0.41;0.91;-0.50;0.07;1.95;0.21;327.27;-670.42;159.00;1.12;153.48;21.63;62.47 
6.735;0.37;0.94;-0.48;-0.56;1.25;0.07;327.27;-671.38;158.00;1.12;153.53;21.62;62.44 
6.765;0.39;0.91;-0.50;-1.32;0.35;-0.07;325.28;-670.42;157.00;1.11;153.59;21.61;62.44 
6.794;0.42;0.90;-0.49;-0.83;-0.07;-1.04;324.29;-672.34;156.00;1.11;153.67;21.56;62.44 
6.824;0.38;0.92;-0.51;0.00;0.07;-0.35;328.26;-671.38;156.00;1.12;153.73;21.52;62.43 
6.854;0.39;0.91;-0.50;-0.14;1.67;-0.21;327.27;-669.46;156.00;1.11;153.81;21.49;62.42 
6.883;0.40;0.94;-0.47;-0.63;1.04;0.00;324.29;-670.42;158.00;1.12;153.88;21.47;62.41 
6.913;0.38;0.93;-0.48;-0.77;0.77;-0.14;329.25;-672.34;156.00;1.11;153.94;21.44;62.40 
6.943;0.42;0.92;-0.45;0.21;-0.35;-0.49;326.27;-670.42;159.00;1.11;154.02;21.40;62.40 
6.973;0.39;0.92;-0.46;0.56;-0.63;-0.77;327.27;-669.46;159.00;1.10;154.09;21.35;62.38 
7.003;0.38;0.93;-0.50;0.21;-1.32;-0.49;325.28;-672.34;158.00;1.12;154.17;21.29;62.37 
7.033;0.40;0.92;-0.49;-0.07;-1.39;0.21;324.29;-669.46;157.00;1.12;154.23;21.24;62.35 
7.064;0.38;0.90;-0.51;0.35;-0.77;0.56;324.29;-669.46;159.00;1.10;154.28;21.19;62.31 
7.094;0.39;0.91;-0.50;-0.14;-0.07;-0.07;326.27;-667.55;159.00;1.11;154.32;21.18;62.27 
7.124;0.39;0.93;-0.54;-0.14;0.14;0.35;324.29;-671.38;157.00;1.14;154.38;21.15;62.24 
7.154;0.38;0.90;-0.48;0.07;1.32;0.56;326.27;-670.42;157.00;1.09;154.41;21.16;62.19 
7.184;0.39;0.91;-0.51;-0.07;1.11;0.28;327.27;-671.38;158.00;1.11;154.46;21.15;62.15 
7.214;0.39;0.92;-0.52;0.07;1.04;0.28;326.27;-669.46;160.00;1.13;154.51;21.15;62.11 
7.244;0.40;0.91;-0.51;0.14;0.70;0.21;326.27;-670.42;157.00;1.12;154.54;21.16;62.05 
7.273;0.40;0.94;-0.49;0.21;0.35;-0.14;328.26;-670.42;157.00;1.13;154.59;21.15;62.02 
7.302;0.38;0.92;-0.47;0.28;0.00;-0.07;327.27;-668.51;159.00;1.10;154.65;21.13;61.99 
7.332;0.40;0.93;-0.51;0.14;-0.49;-0.28;325.28;-669.46;159.00;1.13;154.70;21.11;61.95 
7.363;0.40;0.92;-0.46;0.28;-0.77;-0.56;330.24;-671.38;162.00;1.10;154.77;21.06;61.92 
7.393;0.38;0.92;-0.50;0.28;-0.14;-0.21;326.27;-669.46;156.00;1.11;154.83;21.03;61.90 
7.423;0.39;0.92;-0.49;0.35;0.21;-0.56;329.25;-669.46;159.00;1.11;154.88;21.01;61.85 
7.453;0.41;0.90;-0.49;0.28;-0.42;-0.70;327.27;-670.42;161.00;1.10;154.96;20.97;61.83 
7.483;0.39;0.93;-0.48;0.07;-0.70;-0.63;327.27;-669.46;159.00;1.12;155.04;20.92;61.82 
7.513;0.40;0.93;-0.51;-0.14;-0.77;-0.56;327.27;-672.34;160.00;1.13;155.12;20.86;61.81 
7.543;0.38;0.91;-0.53;-0.49;1.11;-0.14;326.27;-670.42;163.00;1.12;155.20;20.82;61.79 
7.574;0.39;0.90;-0.49;-0.35;1.81;-0.21;327.27;-668.51;160.00;1.10;155.27;20.79;61.76 
7.604;0.40;0.91;-0.51;-0.07;0.70;0.28;328.26;-669.46;161.00;1.12;155.33;20.79;61.71 
7.633;0.39;0.91;-0.50;-0.28;1.95;0.35;326.27;-668.51;159.00;1.11;155.36;20.81;61.67 
7.664;0.38;0.91;-0.53;-0.83;2.23;0.70;329.25;-669.46;162.00;1.12;155.42;20.80;61.63 
7.693;0.38;0.91;-0.51;-0.97;2.30;0.77;325.28;-668.51;159.00;1.11;155.48;20.81;61.61 
7.723;0.38;0.90;-0.51;-0.90;1.67;0.97;328.26;-669.46;160.00;1.10;155.53;20.82;61.59 
7.753;0.38;0.92;-0.48;-0.83;0.49;0.63;326.27;-668.51;157.00;1.11;155.58;20.82;61.56 
7.782;0.39;0.91;-0.50;-0.77;0.42;-0.21;325.28;-671.38;157.00;1.11;155.62;20.82;61.51 
7.811;0.40;0.92;-0.51;-0.70;0.83;-0.21;325.28;-671.38;158.00;1.13;155.68;20.81;61.48 
7.840;0.42;0.94;-0.51;-0.42;1.04;-0.21;328.26;-671.38;160.00;1.15;155.74;20.79;61.45 
7.869;0.40;0.91;-0.51;-0.70;0.14;-0.21;327.27;-670.42;159.00;1.12;155.80;20.78;61.42 
7.899;0.39;0.90;-0.49;-0.83;0.14;-0.63;328.26;-670.42;157.00;1.10;155.88;20.74;61.41 
7.929;0.38;0.92;-0.51;-0.70;1.04;-0.70;325.28;-669.46;160.00;1.12;155.95;20.71;61.40 
7.959;0.41;0.92;-0.51;-1.18;1.46;-0.63;325.28;-672.34;161.00;1.13;156.04;20.67;61.39 
7.988;0.38;0.92;-0.51;-1.74;0.63;-0.42;324.29;-672.34;157.00;1.12;156.11;20.66;61.37 
8.018;0.39;0.90;-0.51;-1.53;1.25;-0.35;329.25;-673.30;160.00;1.11;156.17;20.65;61.36 
8.049;0.37;0.94;-0.50;-1.60;1.88;-0.07;330.24;-671.38;159.00;1.13;156.24;20.64;61.34 
8.079;0.40;0.90;-0.50;-0.97;2.99;-0.49;329.25;-672.34;159.00;1.10;156.31;20.63;61.32 
8.108;0.41;0.91;-0.49;0.42;2.23;-0.56;329.25;-671.38;157.00;1.11;156.38;20.63;61.29 
8.138;0.40;0.92;-0.50;0.21;1.39;-0.35;328.26;-664.68;155.00;1.12;156.47;20.60;61.27 
8.167;0.38;0.93;-0.49;-0.49;0.56;-0.21;328.26;-671.38;156.00;1.12;156.56;20.56;61.25 
8.196;0.38;0.92;-0.49;-0.35;0.77;0.56;328.26;-670.42;156.00;1.11;156.62;20.53;61.21 
8.226;0.38;0.94;-0.50;-0.56;2.09;0.56;326.27;-673.30;157.00;1.13;156.67;20.54;61.18 
8.256;0.35;1.00;-0.50;-0.56;1.95;0.28;330.24;-671.38;159.00;1.17;156.73;20.55;61.15 
8.285;0.38;0.94;-0.51;-0.49;1.46;0.14;327.27;-671.38;157.00;1.13;156.77;20.56;61.09 
8.314;0.41;0.91;-0.51;-0.97;2.37;0.42;326.27;-675.21;156.00;1.12;156.82;20.57;61.06 
8.344;0.42;0.92;-0.49;-1.18;2.50;-0.28;326.27;-670.42;152.00;1.12;156.86;20.59;61.03 
8.373;0.38;0.90;-0.50;-0.14;1.95;-0.70;328.26;-670.42;158.00;1.10;156.96;20.57;61.02 
8.402;0.40;0.93;-0.48;0.28;1.39;-1.04;329.25;-674.25;156.00;1.12;157.04;20.55;61.01 
8.432;0.40;0.91;-0.46;0.49;-0.14;-0.42;328.26;-672.34;154.00;1.10;157.11;20.53;60.98 
8.461;0.39;0.91;-0.48;0.70;0.14;-0.49;328.26;-671.38;155.00;1.10;157.19;20.49;60.93 
8.490;0.38;0.93;-0.50;0.63;0.21;-0.77;325.28;-673.30;156.00;1.12;157.26;20.46;60.88 
8.519;0.39;0.90;-0.48;0.97;-0.56;-1.11;327.27;-671.38;155.00;1.09;157.34;20.42;60.85 
8.548;0.41;0.91;-0.51;0.42;-0.77;-0.77;328.26;-669.46;158.00;1.12;157.41;20.38;60.79 
8.577;0.38;0.90;-0.50;0.21;-0.35;-0.70;329.25;-672.34;158.00;1.10;157.50;20.33;60.76 
8.606;0.40;0.92;-0.51;0.07;-0.49;-0.56;325.28;-671.38;154.00;1.13;157.59;20.28;60.73 
8.635;0.38;0.92;-0.50;0.00;0.35;0.07;330.24;-672.34;158.00;1.11;157.65;20.26;60.68 
8.665;0.39;0.94;-0.50;0.14;0.97;0.07;330.24;-671.38;155.00;1.13;157.72;20.24;60.63 
8.695;0.42;0.90;-0.50;-0.07;-0.63;0.90;327.27;-670.42;156.00;1.11;157.78;20.22;60.59 
8.726;0.38;1.00;-0.51;0.28;-1.18;0.56;331.23;-669.46;157.00;1.19;157.82;20.21;60.53 
8.756;0.38;0.91;-0.54;0.14;0.21;0.35;328.26;-670.42;158.00;1.12;157.86;20.21;60.44 
8.786;0.40;0.90;-0.51;-0.14;0.42;0.70;328.26;-670.42;161.00;1.11;157.91;20.20;60.39 
8.817;0.38;0.94;-0.48;-0.63;0.00;0.56;326.27;-672.34;156.00;1.12;157.96;20.20;60.33 
8.847;0.40;0.90;-0.49;-1.39;-0.90;0.63;325.28;-671.38;157.00;1.10;157.99;20.20;60.30 
8.877;0.38;0.92;-0.50;-1.60;0.07;0.97;324.29;-668.51;157.00;1.11;158.02;20.21;60.24 
8.907;0.39;0.92;-0.51;-1.81;1.88;0.42;324.29;-671.38;158.00;1.12;158.07;20.21;60.21 
8.937;0.38;0.89;-0.51;-2.09;0.63;0.63;325.28;-669.46;159.00;1.09;158.11;20.23;60.21 
8.967;0.40;0.90;-0.49;-1.18;-0.14;-0.21;327.27;-671.38;157.00;1.10;158.17;20.22;60.19 
8.997;0.39;0.92;-0.51;-0.83;0.21;-1.11;325.28;-671.38;156.00;1.12;158.25;20.19;60.17 
9.028;0.40;0.90;-0.50;-0.49;0.07;-0.90;329.25;-670.42;159.00;1.10;158.34;20.14;60.16 
9.058;0.38;0.94;-0.50;-0.28;0.35;-0.83;329.25;-667.55;160.00;1.13;158.45;20.08;60.15 
9.088;0.37;0.95;-0.49;-0.42;0.77;-0.77;326.27;-668.51;157.00;1.13;158.55;20.04;60.15 
9.118;0.38;0.93;-0.47;0.14;-0.56;-0.28;324.29;-669.46;158.00;1.11;158.62;20.00;60.11 
9.148;0.38;0.92;-0.50;1.18;-0.97;-0.42;327.27;-669.46;160.00;1.11;158.69;19.97;60.05 
9.178;0.38;0.94;-0.50;-0.07;0.07;0.00;330.24;-668.51;158.00;1.13;158.78;19.93;60.00 
9.208;0.37;0.91;-0.50;-0.07;1.67;-0.35;325.28;-668.51;160.00;1.10;158.84;19.92;59.96 
9.239;0.37;0.91;-0.49;0.00;1.60;-0.56;330.24;-670.42;161.00;1.10;158.92;19.91;59.91 
9.268;0.40;0.93;-0.50;1.46;0.90;-0.90;330.24;-669.46;159.00;1.13;158.99;19.90;59.85 
9.297;0.41;0.90;-0.51;1.74;0.35;-0.49;327.27;-672.34;159.00;1.11;159.05;19.90;59.77 
9.327;0.38;0.92;-0.50;1.25;0.97;0.14;330.24;-670.42;161.00;1.11;159.13;19.88;59.68 
9.356;0.38;0.91;-0.50;0.70;1.04;0.00;330.24;-670.42;161.00;1.11;159.19;19.88;59.60 
9.386;0.38;0.94;-0.51;0.56;1.25;-0.14;325.28;-668.51;162.00;1.13;159.26;19.87;59.55 
9.416;0.40;0.91;-0.51;0.35;-0.35;0.49;329.25;-669.46;159.00;1.12;159.32;19.87;59.51 
9.446;0.41;0.90;-0.51;0.14;-1.25;0.14;325.28;-667.55;159.00;1.11;159.39;19.83;59.46 
9.476;0.38;0.91;-0.51;-0.35;0.77;-0.35;327.27;-671.38;160.00;1.11;159.46;19.81;59.39 
9.506;0.38;0.93;-0.50;-0.83;2.43;-0.56;327.27;-670.42;160.00;1.12;159.52;19.81;59.35 
9.537;0.40;0.94;-0.51;-0.77;2.99;-1.11;327.27;-668.51;158.00;1.14;159.61;19.81;59.34 
9.567;0.39;0.93;-0.47;-0.35;2.43;-0.83;329.25;-667.55;161.00;1.11;159.69;19.81;59.31 
9.597;0.39;0.88;-0.51;-0.49;1.46;-0.77;328.26;-669.46;159.00;1.09;159.79;19.78;59.29 
9.628;0.37;0.94;-0.50;-0.97;1.95;-0.21;327.27;-669.46;158.00;1.13;159.88;19.76;59.27 
9.658;0.39;0.92;-0.50;-1.04;1.88;0.35;329.25;-671.38;160.00;1.12;159.95;19.77;59.23 
9.688;0.40;0.90;-0.50;-1.25;0.28;0.35;326.27;-670.42;158.00;1.10;160.01;19.77;59.20 
9.718;0.40;0.91;-0.50;-1.04;-0.77;-0.42;327.27;-670.42;155.00;1.11;160.05;19.77;59.15 
9.749;0.41;0.88;-0.48;-0.97;-0.07;0.00;329.25;-670.42;157.00;1.08;160.14;19.72;59.14 
9.779;0.37;0.93;-0.51;-1.32;1.39;-0.28;326.27;-668.51;158.00;1.12;160.22;19.70;59.12 
9.809;0.38;0.91;-0.48;-0.97;1.53;-0.42;329.25;-671.38;159.00;1.10;160.30;19.70;59.09 
9.840;0.39;0.92;-0.50;-0.56;0.83;-0.49;329.25;-669.46;159.00;1.12;160.38;19.68;59.09 
9.870;0.38;0.94;-0.47;0.35;1.18;-0.35;329.25;-669.46;160.00;1.12;160.46;19.67;59.05 
9.900;0.37;0.92;-0.49;-0.07;2.64;-0.21;330.24;-669.46;156.00;1.11;160.54;19.66;59.00 
9.930;0.39;0.91;-0.50;-0.21;1.81;-0.14;330.24;-671.38;158.00;1.11;160.60;19.68;58.95 
9.960;0.39;0.93;-0.50;-0.42;1.11;0.49;325.28;-669.46;159.00;1.13;160.66;19.69;58.90 
9.990;0.39;0.92;-0.50;-0.63;1.39;0.49;330.24;-672.34;156.00;1.12;160.71;19.70;58.87 
10.020;0.40;0.90;-0.48;-1.18;2.02;0.28;329.25;-669.46;156.00;1.10;160.76;19.72;58.81 
10.051;0.38;0.90;-0.50;-1.32;2.30;0.14;327.27;-671.38;159.00;1.10;160.81;19.73;58.75 
10.081;0.39;0.92;-0.52;-1.88;2.37;-0.28;328.26;-671.38;156.00;1.13;160.87;19.75;58.72 
10.111;0.38;0.93;-0.50;-1.53;2.50;-0.42;329.25;-671.38;157.00;1.12;160.93;19.77;58.69 
10.141;0.38;0.94;-0.51;-1.39;3.76;-0.77;328.26;-670.42;157.00;1.13;161.00;19.79;58.68 
10.171;0.41;0.92;-0.48;-1.25;3.83;-1.74;328.26;-672.34;156.00;1.12;161.07;19.80;58.66 
10.201;0.41;0.90;-0.48;-2.64;1.60;-2.43;330.24;-671.38;154.00;1.10;161.18;19.78;58.68 
10.231;0.39;0.92;-0.49;-3.48;2.30;-1.11;329.25;-670.42;154.00;1.11;161.30;19.73;58.73 
10.262;0.37;0.92;-0.51;-2.92;1.74;-1.18;333.22;-671.38;150.00;1.12;161.41;19.69;58.78 
10.292;0.35;0.94;-0.51;-1.95;5.70;-1.88;332.22;-668.51;154.00;1.13;161.51;19.68;58.79 
10.322;0.35;0.94;-0.52;-3.20;10.57;1.46;333.22;-671.38;151.00;1.13;161.60;19.72;58.79 
