Time(s) acc_x(g) acc_y(g) acc_z(g) gyr_x(°/s) gyr_y(°/s) gyr_z(°/s) mag_x(G) mag_y(G) mag_z(G) SVM(g) yaw(°) pitch(°) roll(°)
0.000;-0.18;0.01;0.82;-8.07;-9.53;-7.03;326.00;58.48;-356.70;0.84;-40.96;-6.10;17.95 
0.030;-0.18;0.00;0.77;-3.27;-8.97;-0.35;328.00;56.57;-356.70;0.79;-41.04;-5.73;17.78 
0.060;-0.16;-0.04;0.83;-1.53;2.99;4.59;326.00;55.61;-357.70;0.85;-41.33;-5.48;17.70 
0.090;-0.17;0.00;0.88;-5.08;9.88;8.70;323.00;55.61;-357.70;0.90;-41.80;-5.48;17.60 
0.121;-0.11;0.06;0.95;-5.08;4.52;16.56;328.00;56.57;-356.70;0.96;-42.47;-5.43;17.47 
0.151;-0.16;0.05;0.88;-3.55;4.94;28.87;325.00;54.65;-360.70;0.90;-43.41;-5.20;17.44 
0.180;-0.18;-0.06;0.86;-4.59;16.28;34.50;330.00;52.73;-357.70;0.88;-44.62;-4.99;17.62 
0.210;-0.25;-0.19;0.90;-8.77;29.36;32.42;336.00;56.57;-356.70;0.95;-46.02;-5.24;17.39 
0.240;-0.33;-0.21;1.05;-16.28;39.03;25.53;337.00;58.48;-353.70;1.12;-47.44;-5.91;16.95 
0.270;-0.48;-0.21;1.21;-20.38;25.04;12.52;338.00;61.36;-352.70;1.32;-48.64;-6.73;16.32 
0.300;-0.46;-0.27;1.10;-18.92;-22.19;0.07;334.00;60.40;-352.70;1.22;-49.22;-6.80;15.60 
0.331;-0.26;-0.26;0.94;-13.70;-37.43;-3.20;331.00;58.48;-357.70;1.01;-49.26;-5.85;14.93 
0.361;-0.18;-0.08;0.73;-3.34;-34.71;1.25;326.00;49.86;-362.69;0.76;-49.29;-4.75;14.41 
0.391;-0.26;0.06;0.56;14.68;-21.08;13.36;329.00;41.23;-366.69;0.62;-49.50;-3.65;14.70 
0.421;-0.38;0.15;0.51;14.61;13.57;27.97;333.00;40.27;-368.69;0.65;-50.21;-3.45;15.37 
0.451;-0.50;0.25;0.62;-4.80;36.24;34.57;335.00;43.14;-368.69;0.83;-51.46;-4.26;15.89 
0.481;-0.52;0.14;0.80;-8.21;37.98;37.84;348.00;46.02;-366.69;0.96;-53.05;-5.29;15.93 
0.511;-0.55;0.00;0.95;13.29;22.61;35.62;344.00;47.94;-362.69;1.10;-54.52;-6.04;16.11 
0.542;-0.53;-0.22;0.94;36.17;7.93;32.70;355.00;45.06;-358.70;1.10;-55.82;-6.31;16.90 
0.572;-0.47;-0.28;0.82;39.65;-11.34;9.32;366.00;46.02;-355.70;0.99;-56.54;-6.09;17.91 
0.601;-0.47;-0.11;0.66;39.03;-13.08;-14.19;371.00;42.19;-357.70;0.82;-56.37;-5.87;18.89 
0.631;-0.40;0.17;0.62;33.11;2.57;-22.47;377.00;42.19;-349.71;0.76;-55.72;-6.11;19.90 
0.660;-0.38;0.38;0.66;25.53;19.83;-15.17;379.00;43.14;-346.71;0.85;-55.20;-6.76;20.95 
0.689;-0.40;0.35;0.73;18.09;25.74;-2.71;382.00;49.86;-340.71;0.90;-55.19;-7.55;21.80 
0.719;-0.45;0.23;0.82;11.06;20.31;2.92;384.00;55.61;-340.71;0.96;-55.51;-8.28;22.39 
0.749;-0.37;0.10;0.77;4.17;5.08;-0.42;387.00;55.61;-333.72;0.86;-55.89;-8.68;22.67 
0.779;-0.32;0.09;0.74;-2.37;-3.90;-9.11;383.00;53.69;-332.72;0.81;-55.98;-8.75;22.65 
0.809;-0.27;0.10;0.62;-3.76;-1.74;-19.13;380.00;58.48;-341.71;0.68;-55.76;-8.83;22.47 
0.840;-0.23;0.12;0.66;-2.92;8.70;-27.69;382.00;58.48;-338.71;0.71;-55.36;-9.09;22.22 
0.870;-0.30;0.03;0.89;1.81;17.39;-36.17;370.00;65.20;-337.72;0.94;-54.76;-9.78;21.95 
0.899;-0.35;0.05;0.90;4.66;14.89;-43.55;367.00;70.95;-334.72;0.97;-54.00;-10.69;21.72 
0.929;-0.30;0.30;0.98;9.46;1.53;-44.38;363.00;76.70;-330.72;1.07;-52.93;-11.35;21.64 
0.958;-0.28;0.38;1.06;29.84;7.72;-27.76;356.00;82.45;-330.72;1.16;-51.88;-11.75;22.06 
0.987;-0.56;0.22;1.07;43.20;10.78;-5.29;356.00;85.33;-325.73;1.23;-51.36;-12.14;23.02 
1.016;-0.70;0.31;0.98;50.02;-0.49;4.87;364.00;84.37;-321.73;1.24;-51.14;-12.39;24.39 
1.045;-0.83;0.37;0.74;63.79;2.57;18.99;371.00;83.41;-317.73;1.17;-50.98;-12.39;26.20 
1.075;-0.66;-0.04;0.70;47.51;4.45;20.59;377.00;82.45;-312.74;0.96;-51.33;-12.37;28.04 
1.105;-0.58;-0.36;0.82;0.00;-7.79;-13.50;388.00;78.62;-305.74;1.07;-51.45;-12.40;28.63 
1.135;-0.62;-0.10;0.86;-28.66;-42.43;-51.41;383.00;76.70;-310.74;1.06;-50.49;-12.44;27.53 
1.165;-0.46;0.33;0.81;-23.86;-52.45;-40.07;363.00;74.78;-323.73;0.99;-48.86;-11.91;26.30 
1.195;-0.47;0.37;0.68;-19.69;-42.92;-4.87;358.00;69.99;-331.72;0.91;-48.04;-10.95;25.67 
1.226;-0.40;0.17;0.66;-20.45;-25.25;13.84;353.00;63.28;-336.72;0.79;-48.13;-10.03;25.21 
1.256;-0.36;0.00;0.64;-20.94;-17.74;21.29;356.00;60.40;-340.71;0.73;-48.83;-9.30;24.64 
1.286;-0.38;-0.10;0.62;-27.62;-10.43;15.37;350.00;50.81;-347.71;0.73;-49.70;-8.72;23.83 
1.316;-0.32;-0.14;0.71;-26.37;-0.28;5.63;346.00;47.94;-350.70;0.79;-50.41;-8.55;22.77 
1.346;-0.31;-0.09;0.74;-20.87;-4.80;0.83;345.00;46.02;-356.70;0.81;-50.94;-8.45;21.75 
1.376;-0.27;0.00;0.77;-15.30;-6.33;1.67;337.00;46.02;-356.70;0.82;-51.28;-8.27;21.02 
1.406;-0.25;0.09;0.66;-9.67;-1.18;11.90;336.00;42.19;-355.70;0.71;-51.73;-8.05;20.67 
1.437;-0.19;0.10;0.70;-6.75;6.05;21.36;339.00;39.31;-357.70;0.73;-52.50;-7.85;20.51 
1.467;-0.14;0.09;0.76;-10.57;16.00;28.80;342.00;38.35;-361.70;0.78;-53.64;-7.73;20.33 
1.497;-0.21;0.06;0.83;-11.34;24.07;35.55;340.00;41.23;-360.70;0.86;-55.08;-7.79;20.09 
1.528;-0.32;-0.06;0.97;-10.43;25.18;35.90;342.00;36.43;-357.70;1.02;-56.75;-7.96;20.04 
1.558;-0.34;-0.10;0.98;-1.60;7.65;23.93;352.00;35.47;-355.70;1.04;-58.12;-8.08;19.88 
1.588;-0.10;-0.03;1.10;-9.88;6.54;25.53;352.00;37.39;-355.70;1.10;-59.16;-7.89;19.70 
1.618;-0.43;-0.05;1.19;-28.52;-2.99;19.97;354.00;35.47;-358.70;1.27;-60.24;-7.57;19.11 
1.648;-0.58;0.02;1.12;-40.97;-9.60;0.63;350.00;30.68;-359.70;1.26;-60.94;-7.38;17.96 
1.678;-0.63;-0.19;0.98;-42.99;-20.38;4.03;342.00;27.80;-363.69;1.18;-61.17;-6.96;16.69 
1.708;-0.66;-0.13;0.74;-45.29;-30.61;-2.16;339.00;24.93;-369.69;1.00;-61.53;-6.61;15.00 
1.739;-0.47;0.35;0.52;-23.65;-40.83;15.86;330.00;21.09;-381.68;0.78;-61.77;-5.78;13.95 
1.769;-0.56;0.51;0.38;6.61;-14.89;43.27;332.00;6.71;-382.68;0.85;-62.60;-4.90;14.19 
1.799;-0.51;0.04;0.53;23.44;42.37;69.84;340.00;7.67;-386.67;0.74;-64.59;-5.08;15.12 
1.829;-0.45;-0.40;0.77;32.70;66.57;49.04;352.00;9.59;-378.68;0.98;-66.96;-6.42;15.90 
1.859;-0.48;-0.43;0.96;34.23;46.12;1.81;363.00;11.51;-371.69;1.16;-68.61;-8.09;16.60 
1.889;-0.59;0.09;0.98;31.93;5.08;-27.76;371.00;24.93;-361.70;1.15;-68.55;-9.19;17.27 
1.918;-0.42;0.23;0.79;24.83;-27.62;-29.91;374.00;24.93;-359.70;0.92;-67.70;-9.32;17.97 
1.949;-0.37;0.30;0.60;26.23;-29.57;-21.36;376.00;23.97;-359.70;0.77;-66.76;-8.79;18.71 
1.979;-0.30;0.30;0.51;29.36;-3.13;-8.63;375.00;21.09;-359.70;0.66;-66.17;-8.48;19.72 
2.008;-0.30;0.22;0.57;24.00;22.47;-2.78;383.00;23.97;-357.70;0.68;-66.17;-8.79;20.72 
2.039;-0.34;0.13;0.71;11.97;34.02;-9.67;386.00;29.72;-349.71;0.80;-66.51;-9.76;21.31 
2.069;-0.35;0.10;0.81;2.71;29.57;-18.57;387.00;37.39;-346.71;0.89;-66.70;-10.88;21.40 
2.099;-0.35;0.15;0.85;-1.18;16.00;-27.41;387.00;46.02;-341.71;0.93;-66.55;-11.77;21.22 
2.129;-0.31;0.11;0.90;4.03;6.68;-33.60;381.00;51.77;-338.71;0.96;-66.04;-12.30;20.98 
2.159;-0.36;0.14;0.95;8.90;3.90;-38.05;376.00;57.53;-337.72;1.03;-65.20;-12.75;20.87 
2.189;-0.33;0.19;0.98;9.53;-6.68;-39.44;373.00;60.40;-338.71;1.05;-64.29;-13.08;20.81 
2.219;-0.34;0.43;0.87;10.30;-18.85;-34.30;371.00;64.24;-337.72;1.03;-63.17;-13.02;20.90 
2.250;-0.26;0.41;0.91;26.85;6.61;-17.11;365.00;64.24;-337.72;1.03;-62.35;-12.87;21.38 
2.280;-0.54;0.26;1.06;42.23;32.49;8.56;375.00;69.99;-332.72;1.22;-62.57;-13.45;22.42 
2.310;-0.74;0.36;1.01;44.24;5.08;16.00;383.00;69.99;-327.72;1.30;-63.11;-13.93;23.78 
2.340;-0.80;0.26;0.77;51.48;0.63;32.35;394.00;66.15;-319.73;1.14;-63.68;-13.90;25.46 
2.370;-0.63;-0.24;0.72;29.15;-10.09;17.18;399.00;66.15;-319.73;0.99;-64.44;-13.22;27.13 
2.400;-0.66;-0.35;0.73;-12.87;-22.05;-24.49;410.00;60.40;-313.74;1.04;-64.39;-13.06;27.01 
2.430;-0.54;-0.02;0.81;-23.44;-39.72;-52.73;404.00;59.44;-317.73;0.97;-63.15;-12.96;25.80 
2.461;-0.46;0.42;0.75;-18.43;-39.65;-37.98;390.00;59.44;-328.72;0.97;-61.43;-12.56;24.75 
2.491;-0.46;0.32;0.70;-28.03;-27.41;-7.93;384.00;61.36;-335.72;0.90;-60.69;-11.93;24.08 
2.521;-0.42;0.18;0.67;-27.34;-23.58;10.16;378.00;52.73;-342.71;0.81;-60.76;-11.32;23.31 
2.552;-0.40;0.07;0.65;-28.17;-24.21;22.54;372.00;49.86;-349.71;0.77;-61.43;-10.51;22.56 
2.582;-0.33;-0.06;0.62;-30.33;-14.47;20.17;376.00;42.19;-351.70;0.70;-62.30;-9.51;21.89 
2.611;-0.33;-0.20;0.65;-24.90;5.57;10.71;369.00;41.23;-358.70;0.76;-63.11;-9.31;20.84 
2.640;-0.30;-0.16;0.74;-14.89;8.07;4.17;365.00;37.39;-357.70;0.81;-63.77;-9.49;19.95 
2.670;-0.26;-0.04;0.76;-8.70;0.63;0.77;365.00;40.27;-358.70;0.80;-64.18;-9.57;19.31 
2.700;-0.22;0.05;0.71;-4.17;4.59;4.59;362.00;36.43;-357.70;0.74;-64.52;-9.56;18.96 
2.730;-0.14;0.12;0.71;-6.05;18.71;15.44;359.00;42.19;-358.70;0.73;-65.16;-9.65;18.84 
2.761;-0.18;0.25;0.86;-10.09;30.75;26.50;364.00;44.10;-353.70;0.91;-66.33;-9.98;18.73 
2.791;-0.28;0.22;1.02;-8.49;21.43;37.91;370.00;44.10;-352.70;1.08;-67.90;-10.33;18.64 
2.821;-0.34;0.00;1.02;-8.56;1.67;42.85;369.00;44.10;-352.70;1.08;-69.57;-10.24;18.54 
2.851;-0.21;-0.11;1.02;-7.37;-1.60;36.24;371.00;34.52;-352.70;1.05;-70.95;-9.71;18.38 
2.880;-0.32;-0.14;1.26;-27.62;11.13;25.67;373.00;32.60;-354.70;1.31;-72.31;-9.36;17.84 
2.909;-0.71;-0.14;1.23;-39.93;11.48;3.13;370.00;33.56;-359.70;1.43;-73.26;-9.56;16.79 
2.938;-0.62;-0.14;1.14;-47.23;-23.51;-15.51;364.00;33.56;-361.70;1.31;-73.32;-9.69;15.33 
2.968;-0.67;-0.14;0.80;-54.47;-44.52;-11.83;353.00;29.72;-368.69;1.05;-73.10;-9.15;13.44 
2.998;-0.51;0.38;0.56;-31.51;-57.67;6.68;342.00;22.05;-377.68;0.85;-72.83;-7.98;12.09 
3.028;-0.51;0.59;0.31;2.09;-42.71;38.26;343.00;6.71;-387.67;0.84;-73.38;-6.55;12.08 
3.058;-0.42;0.23;0.34;25.88;19.34;78.47;348.00;-0.96;-386.67;0.59;-75.22;-5.93;13.27 
3.087;-0.48;-0.38;0.59;33.39;68.52;64.21;360.00;-8.63;-381.68;0.85;-77.98;-6.99;14.28 
3.117;-0.42;-0.63;0.93;40.49;86.68;12.87;376.00;3.84;-375.68;1.20;-80.15;-9.08;15.07 
3.148;-0.64;-0.19;1.04;42.85;36.80;-45.84;383.00;20.13;-362.69;1.24;-80.31;-11.35;15.76 
3.178;-0.54;0.23;0.94;29.01;-23.72;-50.99;384.00;25.89;-359.70;1.11;-79.08;-12.21;16.37 
3.207;-0.34;0.38;0.72;30.26;-50.23;-40.42;381.00;26.85;-357.70;0.88;-77.55;-11.62;16.96 
3.237;-0.28;0.47;0.50;33.11;-36.24;-23.93;384.00;20.13;-356.70;0.74;-76.30;-10.66;17.89 
3.267;-0.22;0.36;0.44;32.07;5.29;-2.16;387.00;21.09;-354.70;0.61;-75.89;-10.27;19.26 
3.297;-0.26;0.17;0.54;17.04;38.47;-1.04;396.00;23.97;-352.70;0.62;-76.32;-10.89;20.25 
3.327;-0.27;0.06;0.77;1.53;54.47;-17.53;392.00;27.80;-346.71;0.82;-76.91;-12.33;20.40 
3.358;-0.34;0.04;0.98;0.49;39.30;-38.05;391.00;41.23;-340.71;1.04;-76.97;-14.04;20.01 
3.388;-0.36;0.02;1.07;9.60;9.04;-46.96;390.00;46.02;-339.71;1.13;-76.21;-15.18;19.60 
3.418;-0.45;0.12;1.05;16.70;-17.46;-47.03;383.00;54.65;-336.72;1.15;-74.98;-15.52;19.38 
3.449;-0.38;0.52;0.86;19.97;-37.91;-44.80;381.00;55.61;-333.72;1.07;-73.30;-15.13;19.59 
3.479;-0.12;0.50;0.81;26.09;-5.98;-23.37;379.00;54.65;-340.71;0.96;-72.03;-14.48;20.16 
3.509;-0.57;0.14;0.99;47.72;44.45;0.07;379.00;56.57;-335.72;1.15;-71.91;-15.01;21.21 
3.539;-0.83;0.15;1.14;57.95;20.87;-9.95;392.00;66.15;-319.73;1.42;-72.49;-16.31;22.54 
3.570;-0.83;0.24;0.82;72.83;-14.26;6.33;395.00;68.07;-317.73;1.19;-72.36;-16.56;24.48 
3.600;-0.63;-0.23;0.66;43.76;-37.08;-9.18;412.00;60.40;-307.74;0.94;-71.93;-15.75;26.37 
3.630;-0.67;-0.45;0.69;-14.47;-32.56;-45.08;411.00;56.57;-309.74;1.06;-70.79;-15.35;26.17 
3.661;-0.66;0.00;0.73;-21.98;-41.95;-84.45;399.00;60.40;-317.73;0.98;-68.50;-15.48;24.54 
3.691;-0.42;0.59;0.79;-18.99;-25.60;-52.24;386.00;65.20;-323.73;1.07;-66.06;-15.49;23.30 
3.721;-0.47;0.43;0.83;-26.16;-25.60;-12.10;379.00;63.28;-328.72;1.05;-65.25;-15.15;22.64 
3.750;-0.40;0.22;0.75;-24.97;-31.03;12.10;373.00;61.36;-334.72;0.88;-65.23;-14.41;21.96 
3.779;-0.34;-0.05;0.66;-16.83;-37.22;20.87;366.00;52.73;-340.71;0.74;-65.69;-13.29;21.36 
3.809;-0.28;-0.17;0.57;-13.36;-29.43;12.31;370.00;43.14;-340.71;0.66;-66.16;-12.09;20.78 
3.839;-0.22;-0.18;0.58;-7.03;-3.20;-6.96;372.00;43.14;-350.70;0.65;-66.36;-11.56;20.07 
3.870;-0.22;-0.06;0.64;-0.77;8.49;-16.63;368.00;42.19;-345.71;0.68;-66.32;-11.77;19.52 
3.900;-0.22;0.00;0.70;1.95;2.85;-17.25;367.00;41.23;-346.71;0.73;-66.13;-12.09;19.17 
3.930;-0.14;0.10;0.65;3.69;-3.13;-9.95;364.00;42.19;-344.71;0.67;-65.93;-12.05;19.07 
3.961;-0.07;0.22;0.58;1.95;9.32;2.92;364.00;44.10;-341.71;0.62;-66.08;-11.87;19.14 
3.990;-0.16;0.34;0.70;-4.94;39.10;21.22;364.00;46.98;-339.71;0.79;-66.96;-12.15;19.30 
4.019;-0.35;0.28;0.90;-7.72;56.63;38.12;369.00;50.81;-337.72;1.01;-68.61;-13.05;19.45 
4.048;-0.46;-0.04;1.05;-0.14;44.59;39.44;374.00;49.86;-329.72;1.15;-70.66;-14.06;19.53 
4.078;-0.17;-0.15;1.34;-7.72;53.29;35.20;379.00;55.61;-323.73;1.36;-72.66;-14.78;19.58 
4.108;-0.63;-0.18;1.54;-33.81;30.05;21.22;380.00;57.53;-318.73;1.67;-74.46;-15.58;18.93 
4.138;-0.85;-0.06;1.41;-47.37;-34.57;-13.01;379.00;56.57;-320.73;1.65;-75.07;-15.60;17.62 
4.169;-0.72;-0.20;0.95;-43.90;-70.19;-9.95;368.00;48.90;-332.72;1.21;-74.35;-14.13;15.95 
4.199;-0.67;-0.10;0.51;-30.05;-76.73;-8.42;358.00;34.52;-346.71;0.85;-73.84;-12.38;14.36 
4.228;-0.44;0.28;0.28;-5.63;-60.87;5.77;356.00;30.68;-352.70;0.59;-73.45;-10.85;13.77 
4.257;-0.42;0.42;0.21;13.08;-12.52;26.99;356.00;18.22;-358.70;0.63;-73.79;-9.84;14.35 
4.286;-0.49;-0.02;0.50;15.30;57.39;39.17;361.00;13.42;-358.70;0.70;-75.35;-10.42;15.16 
4.316;-0.45;-0.36;0.89;28.66;83.90;16.35;370.00;26.85;-340.71;1.06;-77.06;-12.36;15.54 
4.346;-0.56;-0.31;1.10;40.77;49.18;-18.43;377.00;38.35;-333.72;1.27;-78.06;-14.51;16.15 
4.376;-0.72;-0.04;0.91;46.33;-19.34;-47.37;380.00;42.19;-326.72;1.16;-77.30;-15.38;16.88 
4.406;-0.48;-0.02;0.69;45.43;-39.03;-58.78;380.00;46.98;-321.73;0.84;-75.56;-14.93;17.75 
4.436;-0.42;0.02;0.57;51.97;-22.47;-65.53;382.00;46.98;-323.73;0.71;-73.46;-14.38;18.73 
4.467;-0.38;0.22;0.62;52.10;-3.69;-70.26;383.00;55.61;-316.73;0.76;-71.33;-14.79;19.71 
4.497;-0.34;0.30;0.63;42.64;5.77;-61.57;382.00;62.32;-312.74;0.78;-69.39;-15.54;20.70 
4.527;-0.36;0.26;0.67;28.52;14.26;-58.99;382.00;67.11;-305.74;0.80;-67.85;-16.42;21.29 
4.558;-0.42;0.14;0.70;19.13;16.63;-57.81;370.00;80.54;-298.75;0.83;-66.47;-17.51;21.43 
4.588;-0.31;0.18;0.82;15.65;2.23;-53.70;370.00;87.25;-295.75;0.89;-65.12;-18.35;21.36 
4.618;-0.32;0.16;0.81;10.50;-20.59;-54.47;363.00;94.92;-292.75;0.89;-63.61;-18.54;21.17 
4.648;-0.31;0.22;0.70;0.77;-28.59;-56.70;354.00;97.79;-293.75;0.80;-61.84;-18.29;20.75 
4.679;-0.26;0.19;0.70;-6.19;2.02;-52.17;345.00;101.63;-296.75;0.77;-60.26;-18.26;20.13 
4.709;-0.29;0.15;0.86;-6.96;29.22;-50.85;336.00;105.46;-294.75;0.92;-59.22;-19.12;19.36 
4.739;-0.33;0.18;1.02;7.03;16.07;-51.41;325.00;114.09;-294.75;1.09;-58.35;-20.15;18.72 
4.770;-0.48;0.18;1.02;33.60;2.30;-37.84;322.00;119.84;-291.75;1.14;-57.17;-20.65;18.76 
4.800;-0.68;0.10;0.96;54.40;7.58;-23.51;321.00;126.56;-281.76;1.18;-56.29;-21.03;19.58 
4.830;-0.75;0.22;0.95;60.66;-10.23;-18.85;325.00;129.43;-274.77;1.23;-55.37;-21.39;20.85 
4.860;-0.73;0.33;0.79;60.31;-20.10;-2.78;330.00;126.56;-273.77;1.13;-54.39;-21.19;22.45 
4.890;-0.53;0.18;0.77;27.55;-24.70;-3.69;335.00;123.68;-273.77;0.95;-53.83;-20.54;23.75 
4.920;-0.58;0.19;0.82;-6.19;-22.05;-8.00;341.00;124.64;-274.77;1.02;-53.50;-19.97;23.98 
4.950;-0.49;0.25;0.83;-20.73;-20.45;-3.41;340.00;122.72;-277.77;1.00;-53.44;-19.45;23.51 
4.981;-0.51;0.25;0.78;-23.72;-22.12;12.17;335.00;117.93;-282.76;0.96;-53.76;-18.75;22.90 
5.011;-0.52;0.11;0.70;-26.71;-26.71;24.21;334.00;114.09;-290.76;0.88;-54.58;-17.90;22.33 
5.041;-0.46;-0.02;0.62;-32.14;-23.23;20.10;333.00;106.42;-296.75;0.77;-55.51;-17.01;21.56 
5.071;-0.41;0.00;0.57;-28.87;-14.47;17.53;332.00;105.46;-302.74;0.70;-56.36;-16.29;20.72 
5.101;-0.38;0.04;0.55;-21.91;-2.23;22.61;333.00;101.63;-305.74;0.67;-57.35;-15.88;19.94 
5.131;-0.35;0.14;0.70;-17.25;15.10;28.52;331.00;98.75;-308.74;0.80;-58.61;-15.80;19.53 
5.161;-0.39;0.18;0.86;-17.53;19.97;36.17;337.00;97.79;-306.74;0.96;-60.17;-15.96;19.28 
5.192;-0.42;0.14;0.93;-20.73;7.65;44.94;340.00;96.83;-306.74;1.03;-62.05;-15.93;19.03 
5.222;-0.44;0.12;0.86;-23.17;-5.22;52.31;340.00;93.00;-305.74;0.97;-63.97;-15.42;18.74 
5.252;-0.39;0.12;0.75;-26.02;-2.99;58.37;347.00;86.29;-310.74;0.85;-65.98;-14.74;18.40 
5.283;-0.37;0.10;0.70;-26.78;7.30;66.50;353.00;76.70;-314.73;0.80;-68.32;-14.18;18.03 
5.313;-0.36;0.06;0.75;-26.99;18.71;71.10;359.00;71.91;-316.73;0.83;-70.96;-13.90;17.67 
5.343;-0.43;0.11;0.75;-27.55;26.30;75.69;366.00;69.03;-315.73;0.87;-73.75;-13.89;17.33 
5.373;-0.39;0.13;0.81;-29.84;28.52;81.18;372.00;62.32;-315.73;0.91;-76.73;-14.04;17.01 
