Time(s) acc_x(g) acc_y(g) acc_z(g) gyr_x(°/s) gyr_y(°/s) gyr_z(°/s) mag_x(G) mag_y(G) mag_z(G) SVM(g) yaw(°) pitch(°) roll(°)
0.000;-0.08;0.09;0.77;4.45;1.04;-6.33;310.95;-115.93;-357.00;0.78;40.21;4.22;25.33 
0.030;-0.03;0.01;0.90;10.02;7.51;-0.42;314.94;-114.97;-353.00;0.90;40.26;4.36;25.69 
0.060;0.00;-0.06;1.14;16.90;6.19;-8.07;313.94;-115.93;-351.00;1.14;40.13;4.44;26.47 
0.091;-0.14;-0.06;1.26;21.43;-28.24;-7.79;317.93;-117.85;-348.00;1.27;40.34;4.76;27.13 
0.121;-0.10;-0.06;0.98;18.43;-50.16;13.84;319.92;-123.60;-355.00;0.99;40.54;6.15;27.79 
0.151;-0.52;0.06;0.71;19.97;-7.65;11.62;325.90;-129.35;-358.00;0.88;40.38;7.36;28.38 
0.182;-0.66;-0.04;0.91;1.25;18.16;11.90;327.90;-127.43;-357.00;1.12;40.02;7.13;28.78 
0.212;-0.68;-0.09;1.16;-19.20;4.94;10.23;328.89;-130.30;-357.00;1.35;39.72;6.52;28.55 
0.241;-0.52;0.06;1.14;-11.41;-58.09;26.78;327.90;-134.14;-363.00;1.25;39.80;7.34;27.97 
0.271;-0.34;0.18;0.79;3.41;-71.30;51.06;326.90;-146.59;-367.00;0.88;39.51;9.35;27.82 
0.301;-0.22;-0.05;0.52;12.03;-34.23;50.85;331.88;-161.92;-373.00;0.57;38.47;11.53;27.86 
0.331;-0.26;-0.18;0.53;15.79;-2.57;35.69;342.85;-174.38;-377.00;0.62;37.30;12.52;27.86 
0.361;-0.29;-0.23;0.57;21.01;14.12;14.82;348.83;-174.38;-377.00;0.68;36.42;12.62;28.02 
0.392;-0.26;-0.12;0.77;25.53;14.68;-2.78;351.82;-175.34;-373.00;0.82;35.95;12.12;28.58 
0.422;-0.22;0.10;0.90;25.46;1.74;-9.25;359.79;-173.42;-369.00;0.93;35.71;11.95;29.71 
0.452;-0.18;0.23;0.80;20.03;-20.52;-2.09;362.78;-173.42;-370.00;0.85;35.76;12.01;30.58 
0.482;-0.05;0.27;0.64;12.73;-19.62;5.70;362.78;-174.38;-372.00;0.70;35.82;12.54;31.31 
0.512;0.00;0.22;0.59;6.47;6.61;9.04;367.76;-179.17;-371.00;0.63;35.50;13.09;31.91 
0.542;0.00;0.02;0.68;0.07;27.41;3.13;371.75;-176.29;-369.00;0.68;35.01;13.00;32.27 
0.572;-0.11;-0.02;0.84;-8.14;34.23;-19.48;366.77;-167.67;-369.00;0.85;35.08;12.18;32.06 
0.603;-0.37;0.02;1.04;-6.82;28.17;-32.21;365.77;-160.96;-365.00;1.10;35.90;10.84;31.95 
0.633;-0.27;0.03;1.31;0.56;1.81;-28.66;361.78;-153.30;-365.00;1.34;36.66;10.14;32.35 
0.663;-0.18;0.23;1.42;15.03;-40.14;-17.88;360.79;-151.38;-366.00;1.45;37.65;10.16;32.72 
0.694;-0.07;0.03;1.22;14.40;-57.25;-22.82;359.79;-160.96;-369.00;1.22;38.66;11.24;33.31 
0.724;-0.30;0.10;0.78;0.00;-10.64;-27.55;359.79;-168.63;-377.00;0.84;40.18;11.73;33.51 
0.754;-0.66;0.14;0.59;6.40;22.89;-25.11;353.81;-161.92;-377.00;0.90;41.19;10.69;33.87 
0.784;-0.59;-0.04;0.81;28.10;22.47;-2.71;355.80;-158.09;-369.00;1.00;41.24;9.46;34.54 
0.814;-0.59;-0.25;1.07;31.17;-12.31;-7.17;361.78;-156.17;-368.00;1.25;41.12;8.93;35.42 
0.844;-0.46;-0.14;0.99;7.51;-49.11;-37.98;364.77;-156.17;-368.00;1.10;42.06;8.99;36.03 
0.873;-0.19;0.03;0.73;-16.35;-59.27;-44.59;361.78;-164.80;-373.00;0.75;44.37;9.45;35.96 
0.904;-0.15;0.28;0.55;-21.98;-27.62;-28.80;356.80;-164.80;-376.00;0.64;46.69;9.86;35.73 
0.934;-0.23;0.29;0.59;-23.44;1.39;2.30;343.84;-168.63;-384.00;0.70;47.86;9.76;35.35 
0.964;-0.21;0.18;0.70;-28.45;13.29;21.08;341.85;-170.55;-386.00;0.75;47.95;9.60;34.64 
0.994;-0.17;0.01;0.87;-31.37;12.10;32.90;335.87;-174.38;-387.00;0.89;47.58;9.63;33.53 
1.024;-0.14;-0.05;0.86;-31.03;-0.35;37.57;333.88;-170.55;-389.00;0.87;47.02;10.03;32.19 
1.054;-0.08;-0.09;0.75;-26.02;-7.58;37.50;328.89;-179.17;-393.00;0.76;46.54;10.75;30.91 
1.084;0.02;-0.07;0.68;-14.47;-1.60;34.99;327.90;-183.00;-396.00;0.68;45.87;11.70;30.23 
1.115;0.06;0.00;0.79;-3.90;10.30;32.28;328.89;-183.00;-397.00;0.79;45.01;12.25;29.65 
1.145;-0.04;-0.12;0.82;-0.63;-0.14;28.38;330.89;-186.83;-394.00;0.83;44.06;12.83;29.67 
1.174;-0.07;-0.18;0.94;4.38;-0.77;24.28;332.88;-189.71;-394.00;0.96;43.43;13.36;29.39 
1.205;-0.10;0.00;1.19;10.92;12.52;7.51;332.88;-190.67;-395.00;1.19;42.93;13.42;29.35 
1.235;-0.02;0.11;1.46;8.97;-19.27;14.19;338.86;-192.58;-394.00;1.46;42.66;13.51;29.59 
1.265;-0.02;0.01;1.22;0.56;-42.43;26.30;342.85;-200.25;-396.00;1.22;42.57;14.79;29.51 
1.295;-0.32;0.08;0.94;-12.10;-18.23;21.57;341.85;-212.70;-400.00;1.00;42.43;15.86;29.12 
1.325;-0.53;-0.08;0.58;-28.38;-17.67;14.12;336.87;-216.54;-404.00;0.79;42.63;16.38;28.30 
1.355;-0.44;0.00;0.63;-41.04;17.32;-3.76;333.88;-218.45;-406.00;0.77;43.26;16.13;27.46 
1.385;-0.52;0.02;1.07;-35.13;28.24;14.75;325.90;-212.70;-408.00;1.19;43.41;15.15;26.32 
1.415;-0.38;0.08;1.10;-6.75;-23.23;40.97;317.93;-214.62;-410.00;1.17;43.10;15.04;25.55 
1.444;-0.16;-0.04;0.74;12.03;-33.81;50.57;323.91;-225.16;-408.00;0.76;42.17;16.71;25.50 
1.474;-0.13;-0.26;0.51;23.51;-2.50;32.14;325.90;-233.78;-409.00;0.59;41.02;17.80;25.41 
1.505;-0.05;-0.34;0.52;29.84;37.57;-2.02;331.88;-233.78;-406.00;0.62;40.09;17.65;25.67 
1.535;0.01;-0.14;0.80;32.21;46.89;-27.20;339.86;-226.12;-403.00;0.81;39.67;16.45;26.91 
1.565;-0.05;0.15;0.82;31.10;19.83;-34.64;344.84;-211.75;-398.00;0.84;39.90;15.17;28.17 
1.595;0.00;0.25;0.73;22.75;-2.16;-25.67;346.83;-206.95;-392.00;0.77;40.42;14.50;29.39 
1.625;0.01;0.06;0.66;6.12;0.28;-25.74;348.83;-205.04;-393.00;0.66;41.10;14.21;30.25 
1.655;0.03;-0.02;0.82;-9.18;8.28;-46.26;348.83;-201.21;-389.00;0.82;42.21;13.71;30.43 
1.685;-0.33;0.21;1.13;-2.78;10.92;-45.50;340.85;-191.62;-386.00;1.20;43.79;12.62;30.59 
1.716;-0.21;0.16;1.31;20.17;-24.70;-10.23;336.87;-192.58;-389.00;1.34;44.86;12.13;31.03 
1.746;-0.07;0.38;1.07;25.67;-39.03;11.13;340.85;-195.46;-390.00;1.14;45.14;13.08;31.85 
1.776;-0.06;0.15;1.07;6.33;-16.49;7.23;351.82;-202.16;-389.00;1.08;45.05;13.97;32.33 
1.806;-0.50;-0.12;1.00;3.62;-7.37;3.06;346.83;-207.91;-387.00;1.12;45.25;14.52;32.61 
1.836;-0.54;-0.12;0.75;25.32;-25.32;-10.30;347.83;-206.00;-389.00;0.93;45.57;14.52;32.98 
1.866;-0.50;-0.13;0.62;40.35;-14.12;-2.09;352.81;-214.62;-385.00;0.81;45.89;14.59;33.85 
1.896;-0.48;-0.10;1.10;44.52;23.51;-10.23;358.79;-212.70;-382.00;1.20;45.52;14.05;34.94 
1.927;-0.40;0.10;1.36;14.05;-21.84;-32.42;365.77;-207.91;-374.00;1.42;45.56;13.54;36.28 
1.956;-0.19;0.18;0.92;-17.81;-58.23;-34.64;367.76;-207.91;-378.00;0.96;47.62;13.76;36.45 
1.985;0.00;0.17;0.56;-27.76;-44.73;-26.16;356.80;-219.41;-384.00;0.59;50.02;14.44;36.01 
2.016;0.04;0.16;0.42;-30.33;-2.85;-17.32;349.82;-226.12;-386.00;0.45;51.83;14.72;35.40 
2.046;0.04;0.16;0.55;-29.84;18.78;0.63;340.85;-219.41;-391.00;0.57;52.58;14.34;34.58 
2.076;0.05;0.00;0.62;-26.23;23.10;12.52;333.88;-217.49;-389.00;0.62;52.61;14.00;33.55 
2.106;0.02;-0.11;0.76;-17.60;13.22;14.96;328.89;-215.58;-391.00;0.77;52.37;13.88;32.54 
2.136;0.06;-0.14;0.70;-6.54;7.86;13.08;327.90;-214.62;-392.00;0.72;52.17;14.00;31.80 
2.166;-0.02;-0.06;0.70;7.23;17.88;11.97;328.89;-216.54;-390.00;0.70;51.80;14.04;31.43 
2.196;-0.14;-0.12;0.86;6.96;20.73;5.01;331.88;-212.70;-390.00;0.88;51.31;13.76;31.29 
2.227;-0.23;0.00;1.16;3.27;21.08;-5.91;330.89;-209.83;-388.00;1.18;51.03;13.20;31.23 
2.256;-0.08;0.06;1.50;0.97;0.56;-8.83;333.88;-207.91;-383.00;1.50;51.23;12.57;31.24 
2.286;-0.02;0.02;1.31;-0.83;-31.23;6.75;330.89;-212.70;-385.00;1.31;51.70;13.06;31.22 
2.317;-0.21;0.03;1.02;-10.64;-15.58;4.94;329.89;-216.54;-387.00;1.04;52.05;13.70;31.00 
2.347;-0.54;-0.10;0.62;-33.32;-15.17;3.20;325.90;-220.37;-391.00;0.83;52.65;14.07;30.23 
2.377;-0.29;0.16;0.57;-43.20;16.49;-20.24;320.92;-225.16;-395.00;0.66;53.67;13.53;29.37 
2.407;-0.47;0.17;1.08;-37.36;28.03;1.46;310.95;-213.66;-395.00;1.19;54.30;12.46;28.30 
2.438;-0.28;0.00;1.17;-8.49;-28.38;33.60;305.97;-216.54;-398.00;1.20;54.20;12.49;27.44 
2.468;-0.14;-0.18;0.75;10.71;-39.03;33.25;306.97;-225.16;-399.00;0.78;53.89;13.99;27.10 
2.498;-0.10;-0.16;0.55;18.23;-0.49;18.64;311.95;-232.82;-404.00;0.58;53.40;15.07;26.99 
2.529;-0.13;-0.13;0.60;21.98;37.36;-1.46;319.92;-230.91;-398.00;0.63;52.82;14.68;27.26 
2.559;-0.10;-0.05;0.78;25.18;36.94;-21.22;321.92;-224.20;-393.00;0.79;52.48;13.38;27.87 
2.589;-0.12;0.07;0.81;29.36;16.00;-23.65;330.89;-219.41;-391.00;0.82;52.67;12.32;28.83 
2.619;-0.06;0.12;0.73;26.50;8.56;-21.84;333.88;-210.79;-387.00;0.74;53.01;11.74;29.86 
2.649;0.02;0.18;0.64;14.61;7.86;-21.29;338.86;-206.00;-384.00;0.67;53.45;11.27;30.74 
2.679;0.06;0.20;0.68;-1.67;17.32;-23.72;340.85;-203.12;-384.00;0.71;53.98;10.83;31.22 
2.709;-0.02;0.12;0.84;-11.69;24.28;-28.52;335.87;-199.29;-382.00;0.85;54.67;10.07;31.21 
2.740;-0.26;0.00;1.02;-3.62;14.75;-21.01;334.87;-190.67;-384.00;1.05;55.40;9.12;31.03 
2.770;-0.14;0.03;1.20;10.78;3.76;-16.14;334.87;-185.88;-381.00;1.21;55.95;8.63;31.20 
2.800;-0.10;0.23;1.26;11.13;-22.05;-11.13;333.88;-184.92;-378.00;1.28;56.60;8.65;31.58 
2.830;-0.10;0.22;1.22;13.36;-32.56;-3.27;334.87;-192.58;-381.00;1.24;57.29;9.35;31.97 
2.860;-0.38;0.08;0.90;14.61;-29.22;12.87;339.86;-196.42;-382.00;0.98;57.80;10.20;32.29 
2.890;-0.66;-0.12;0.59;26.64;-21.84;10.16;348.83;-205.04;-380.00;0.89;57.97;10.73;32.79 
2.920;-0.46;-0.22;0.86;49.53;26.43;2.30;355.80;-206.00;-379.00;1.00;57.53;10.55;33.66 
2.951;-0.53;-0.10;1.44;34.92;-2.23;-17.32;363.78;-204.08;-375.00;1.54;56.88;9.65;35.01 
2.981;-0.27;0.07;1.10;-9.04;-65.11;-37.29;365.77;-205.04;-374.00;1.13;58.38;10.25;35.79 
3.010;-0.03;0.25;0.67;-28.10;-45.15;-29.50;360.79;-215.58;-383.00;0.72;60.98;11.05;35.54 
3.041;-0.05;0.28;0.54;-34.78;-10.71;-4.10;349.82;-215.58;-386.00;0.61;62.63;11.46;34.95 
3.071;-0.07;0.11;0.58;-38.26;9.04;11.34;342.85;-215.58;-391.00;0.59;63.10;11.51;33.95 
3.101;-0.04;-0.01;0.60;-34.30;17.74;19.27;338.86;-216.54;-393.00;0.60;62.97;11.43;32.72 
3.130;-0.02;-0.18;0.77;-24.42;16.35;15.03;333.88;-215.58;-393.00;0.79;62.59;11.31;31.49 
3.160;-0.03;-0.18;0.77;-12.31;6.19;1.74;329.89;-213.66;-391.00;0.79;62.53;11.24;30.58 
3.190;0.06;-0.13;0.72;-1.60;0.49;-2.71;331.88;-212.70;-392.00;0.73;62.77;11.34;30.20 
3.220;0.13;0.00;0.54;10.57;12.10;-8.97;329.89;-215.58;-392.00;0.56;63.03;11.39;30.15 
3.251;0.02;-0.05;0.73;12.59;32.63;-14.54;331.88;-211.75;-390.00;0.73;63.07;10.91;30.42 
3.281;-0.33;0.00;1.03;12.31;40.35;-8.90;333.88;-203.12;-386.00;1.08;62.81;9.80;30.73 
3.311;-0.10;0.16;1.45;13.91;27.41;-10.92;335.87;-190.67;-383.00;1.46;62.57;8.62;31.25 
3.341;-0.06;0.12;1.38;8.35;-31.17;8.77;339.86;-192.58;-379.00;1.39;62.75;8.72;31.62 
3.371;-0.13;0.04;1.07;-4.52;-24.21;16.77;343.84;-197.37;-382.00;1.08;63.16;9.98;31.54 
3.401;-0.33;-0.02;0.89;-24.42;4.87;8.77;344.84;-206.95;-383.00;0.95;63.15;10.37;31.06 
3.431;-0.67;0.01;0.74;-34.57;5.50;12.03;338.86;-205.04;-383.00;1.00;63.13;10.64;30.51 
3.460;-0.47;0.17;0.90;-45.22;6.82;14.05;331.88;-206.00;-386.00;1.03;63.17;10.42;29.46 
3.489;-0.39;0.10;1.10;-36.87;-8.90;40.56;326.90;-206.00;-392.00;1.17;62.95;10.38;28.22 
3.519;-0.31;-0.12;0.96;-10.16;-42.57;52.66;319.92;-205.04;-391.00;1.02;62.36;11.55;27.22 
3.550;-0.18;-0.17;0.63;7.44;-23.79;40.42;324.91;-229.95;-394.00;0.68;61.63;13.16;26.73 
3.580;-0.20;-0.18;0.58;15.03;11.20;18.71;328.89;-236.66;-396.00;0.64;60.87;13.69;26.63 
3.610;-0.18;-0.19;0.65;20.73;32.28;-3.06;330.89;-232.82;-393.00;0.70;60.31;13.10;26.90 
3.640;-0.13;-0.10;0.80;28.24;26.50;-18.71;336.87;-230.91;-391.00;0.82;60.10;12.13;27.54 
3.670;-0.12;0.06;0.78;30.61;16.42;-27.62;344.84;-217.49;-381.00;0.79;60.39;11.41;28.90 
3.699;-0.09;0.21;0.77;26.85;8.63;-22.12;347.83;-212.70;-378.00;0.80;60.85;10.71;30.05 
3.728;-0.02;0.17;0.70;17.88;4.52;-18.30;352.81;-213.66;-372.00;0.72;61.29;10.33;30.96 
3.758;0.00;0.13;0.65;7.30;8.70;-19.83;354.81;-205.04;-369.00;0.66;61.80;10.02;31.59 
3.787;0.06;0.02;0.67;-4.45;15.86;-27.06;353.81;-206.00;-368.00;0.67;62.43;9.57;31.80 
3.817;0.04;-0.14;0.86;-7.23;16.63;-44.03;348.83;-195.46;-368.00;0.87;63.45;8.84;31.66 
3.848;-0.26;-0.06;0.98;1.53;12.03;-43.27;343.84;-190.67;-366.00;1.02;64.67;7.71;31.66 
3.878;-0.30;0.18;1.00;18.23;-3.06;-27.13;346.83;-183.96;-365.00;1.06;66.03;6.92;32.09 
3.908;0.02;0.30;1.13;22.47;-6.40;-9.81;347.83;-183.96;-363.00;1.17;66.65;6.81;32.92 
3.938;-0.04;0.06;1.30;14.40;-4.38;-9.11;350.82;-183.96;-361.00;1.30;67.00;7.10;33.82 
3.968;-0.35;-0.03;1.37;13.36;-7.17;-26.23;353.81;-180.13;-360.00;1.41;67.76;6.95;34.25 
3.998;-0.50;0.24;0.98;16.21;-23.30;-22.26;354.81;-181.09;-357.00;1.13;68.98;6.90;34.75 
4.028;-0.50;0.17;0.51;24.07;-28.66;4.17;355.80;-183.96;-353.00;0.73;70.06;6.98;35.56 
4.057;-0.42;-0.20;0.63;41.74;7.58;5.84;365.77;-186.83;-355.00;0.78;69.98;7.18;36.40 
4.086;-0.46;-0.27;1.14;29.91;18.64;-23.51;368.76;-182.04;-349.00;1.26;69.62;6.51;37.33 
4.115;-0.42;-0.14;1.23;-3.13;-35.83;-57.18;370.75;-179.17;-345.00;1.31;71.00;5.83;37.73 
4.145;-0.16;0.07;0.86;-15.93;-52.59;-57.46;368.76;-180.13;-348.00;0.88;74.08;6.02;37.89 
4.175;-0.07;0.18;0.54;-20.80;-24.90;-38.89;361.78;-178.21;-351.00;0.57;76.92;6.16;37.50 
4.205;-0.13;0.18;0.54;-26.09;8.07;-26.99;349.82;-178.21;-357.00;0.58;78.52;5.77;36.99 
4.236;-0.09;0.11;0.67;-27.27;18.99;-8.97;342.85;-175.34;-358.00;0.68;79.17;5.10;36.28 
4.266;-0.12;0.00;0.79;-24.14;18.16;-0.90;334.87;-168.63;-358.00;0.80;79.24;4.77;35.76 
4.296;-0.10;-0.08;0.78;-19.20;6.75;1.95;335.87;-166.71;-358.00;0.79;79.30;4.50;34.95 
4.326;-0.08;-0.04;0.71;-12.87;3.34;3.13;328.89;-164.80;-362.00;0.72;79.44;4.54;34.24 
4.356;0.01;-0.06;0.64;-7.30;13.98;0.83;326.90;-165.76;-361.00;0.64;79.52;4.63;34.14 
4.386;0.05;0.00;0.70;1.95;33.95;-0.14;330.89;-160.96;-356.00;0.70;79.29;4.31;33.98 
4.416;-0.10;0.10;0.97;7.03;30.75;4.94;327.90;-155.22;-353.00;0.98;78.79;3.72;34.36 
4.446;-0.37;0.00;1.06;7.03;1.53;12.45;332.88;-153.30;-351.00;1.12;78.33;3.51;34.48 
4.476;-0.14;-0.21;1.24;1.95;-4.87;5.57;336.87;-155.22;-350.00;1.27;78.23;3.79;34.52 
4.506;0.01;-0.10;1.25;-0.35;-30.19;-10.02;336.87;-157.13;-354.00;1.25;78.87;4.25;34.32 
4.536;-0.14;0.02;1.15;-3.97;-25.88;-8.00;336.87;-161.92;-355.00;1.16;80.01;5.13;34.55 
4.565;-0.26;-0.09;1.02;-18.23;-17.32;-11.06;333.88;-163.84;-353.00;1.06;80.97;5.61;34.50 
4.595;-0.56;0.08;0.68;-22.96;-14.33;-7.58;328.89;-165.76;-362.00;0.88;81.90;5.66;33.83 
4.625;-0.53;0.38;0.67;-31.51;11.06;6.61;323.91;-167.67;-362.00;0.93;82.39;5.38;33.28 
4.656;-0.41;0.39;1.08;-35.13;11.06;43.62;319.92;-164.80;-362.00;1.22;81.84;5.08;32.38 
4.686;-0.38;0.01;1.02;-12.31;-32.00;73.88;315.94;-172.46;-365.00;1.09;80.46;6.22;31.48 
4.716;-0.21;-0.22;0.66;4.80;-29.22;65.74;323.91;-185.88;-369.00;0.73;79.19;8.16;30.90 
4.747;-0.18;-0.18;0.57;7.51;8.21;43.76;327.90;-195.46;-371.00;0.62;77.87;9.29;30.50 
4.777;-0.18;-0.07;0.68;6.33;25.74;19.90;331.88;-193.54;-370.00;0.71;76.77;9.26;30.37 
4.807;-0.22;0.04;0.82;5.98;23.51;16.28;335.87;-188.75;-364.00;0.85;75.96;8.79;30.43 
4.837;-0.23;0.12;0.87;10.50;10.57;14.89;338.86;-188.75;-363.00;0.91;75.37;8.47;30.64 
4.867;-0.15;0.16;0.79;9.81;1.39;17.11;340.85;-188.75;-360.00;0.82;74.96;8.51;30.96 
4.897;-0.12;0.18;0.77;5.77;5.15;22.33;343.84;-190.67;-359.00;0.80;74.53;8.70;31.27 
4.927;-0.10;0.15;0.74;4.10;10.71;26.23;347.83;-190.67;-359.00;0.76;73.88;8.91;31.43 
4.958;-0.06;0.07;0.71;3.20;16.28;24.42;349.82;-189.71;-358.00;0.72;73.04;9.03;31.49 
4.988;-0.02;0.04;0.78;-1.25;22.40;16.63;353.81;-192.58;-355.00;0.78;72.23;8.97;31.45 
5.018;-0.10;0.06;0.86;-5.70;13.91;7.44;353.81;-186.83;-352.00;0.87;71.76;8.75;31.28 
5.048;-0.26;0.10;0.86;-4.24;2.09;6.26;355.80;-186.83;-352.00;0.90;71.65;8.63;31.16 
5.078;-0.26;0.13;0.87;1.18;4.59;6.33;354.81;-187.79;-351.00;0.92;71.68;8.56;31.18 
5.107;-0.19;0.22;1.06;10.02;7.03;11.06;356.80;-186.83;-351.00;1.10;71.48;8.44;31.43 
5.136;-0.10;0.19;1.28;3.83;-16.97;16.07;357.80;-189.71;-350.00;1.30;71.31;8.72;31.73 
5.165;0.01;0.10;1.15;-1.95;-27.69;10.43;360.79;-191.62;-354.00;1.15;71.53;9.67;31.70 
5.195;-0.17;0.04;0.98;4.52;-14.89;11.69;361.78;-197.37;-351.00;1.00;71.89;10.53;31.79 
5.225;-0.40;0.07;0.75;9.04;2.30;14.26;365.77;-198.33;-354.00;0.85;71.96;10.76;32.07 
5.256;-0.58;-0.14;0.65;14.12;15.23;18.50;364.77;-201.21;-350.00;0.88;71.48;10.97;32.67 
5.286;-0.51;-0.42;0.76;26.92;27.20;-3.83;370.75;-198.33;-345.00;1.01;70.81;10.23;33.08 
5.316;-0.49;-0.34;1.11;26.64;13.15;-23.03;374.74;-191.62;-339.00;1.26;70.63;9.30;33.78 
5.346;-0.40;0.04;1.14;7.65;-31.86;-40.14;381.72;-188.75;-339.00;1.21;71.92;8.75;34.48 
5.376;-0.28;0.17;0.78;-11.06;-44.80;-34.78;373.74;-191.62;-338.00;0.85;74.21;8.96;34.74 
5.406;-0.14;0.08;0.56;-18.09;-20.24;-24.90;372.75;-191.62;-346.00;0.58;76.23;9.22;34.58 
5.436;-0.17;0.06;0.64;-18.57;14.82;-21.22;369.76;-189.71;-347.00;0.66;77.33;8.80;34.23 
5.467;-0.18;0.00;0.78;-21.01;17.88;-13.84;361.78;-185.88;-349.00;0.80;77.82;7.93;33.75 
5.497;-0.18;-0.08;0.88;-21.84;5.08;-10.57;358.79;-181.09;-345.00;0.90;78.28;7.36;33.09 
5.527;-0.14;-0.10;0.79;-15.51;-5.36;-16.00;355.80;-181.09;-349.00;0.81;78.97;7.14;32.47 
5.558;-0.07;-0.03;0.69;-8.83;0.35;-17.18;351.82;-179.17;-352.00;0.69;79.87;7.02;32.08 
5.588;-0.02;0.02;0.74;-3.83;13.22;-15.03;346.83;-175.34;-354.00;0.74;80.57;6.67;31.93 
5.618;-0.03;0.06;0.83;2.23;13.98;-8.00;351.82;-173.42;-350.00;0.83;80.91;6.22;31.97 
5.648;-0.04;0.06;0.84;7.58;4.52;-0.77;351.82;-170.55;-349.00;0.84;81.08;5.98;32.15 
5.678;-0.14;0.00;0.79;11.13;-1.32;8.07;354.81;-169.59;-351.00;0.80;81.21;6.11;32.43 
5.708;-0.22;-0.14;0.85;10.57;14.96;8.97;361.78;-174.38;-343.00;0.89;81.04;6.20;32.76 
5.738;-0.15;-0.16;1.12;7.72;24.90;-0.07;361.78;-171.50;-344.00;1.14;80.67;5.76;32.89 
5.769;-0.13;0.00;1.28;5.15;-11.13;-5.01;366.77;-170.55;-341.00;1.29;80.83;5.45;33.07 
5.799;-0.25;0.00;1.10;2.71;-19.97;-2.16;369.76;-175.34;-343.00;1.13;81.58;6.12;33.52 
5.829;-0.31;-0.13;0.88;-4.73;-21.50;-7.23;368.76;-183.96;-347.00;0.94;82.37;6.67;33.43 
5.859;-0.55;-0.03;0.70;-14.96;-3.90;-14.61;364.77;-183.96;-346.00;0.89;83.28;6.65;33.20 
5.889;-0.51;0.22;0.70;-27.34;9.95;-11.48;364.77;-185.88;-349.00;0.89;83.98;5.99;32.81 
5.919;-0.47;0.38;0.93;-27.13;5.57;18.02;357.80;-186.83;-350.00;1.11;84.15;5.47;32.28 
5.949;-0.38;0.08;0.92;-14.96;-19.76;52.17;352.81;-192.58;-353.00;1.00;83.56;6.01;31.74 
5.980;-0.27;-0.20;0.80;-2.78;-21.36;45.36;352.81;-207.91;-353.00;0.87;82.73;7.28;31.26 
6.010;-0.22;-0.16;0.69;5.70;-4.59;26.16;354.81;-211.75;-354.00;0.74;82.16;8.12;31.04 
6.040;-0.18;-0.07;0.68;7.58;15.17;12.73;353.81;-213.66;-352.00;0.71;81.71;8.25;31.08 
6.071;-0.17;0.01;0.80;8.63;26.64;3.83;355.80;-213.66;-351.00;0.82;81.31;7.77;31.27 
6.101;-0.22;0.10;0.90;9.18;20.45;3.13;356.80;-213.66;-346.00;0.93;81.02;7.18;31.72 
6.130;-0.21;0.15;0.86;5.29;8.42;11.62;358.79;-211.75;-340.00;0.90;80.83;6.86;32.08 
6.159;-0.19;0.22;0.79;1.81;1.74;22.33;360.79;-214.62;-338.00;0.84;80.54;6.93;32.33 
6.188;-0.14;0.22;0.75;-2.43;4.73;34.16;360.79;-218.45;-335.00;0.79;79.99;7.31;32.45 
6.217;-0.18;0.07;0.84;-8.00;16.28;31.30;359.79;-220.37;-334.00;0.86;79.12;7.61;32.38 
