Time(s) acc_x(g) acc_y(g) acc_z(g) gyr_x(°/s) gyr_y(°/s) gyr_z(°/s) mag_x(G) mag_y(G) mag_z(G) SVM(g) yaw(°) pitch(°) roll(°)
0.000;0.00;0.26;0.54;8.56;-0.49;-36.17;450.99;-267.72;-360.00;0.60;-24.89;25.87;30.10 
0.030;0.08;0.27;0.62;-0.90;18.09;-38.54;449.99;-259.18;-358.00;0.68;-23.86;25.00;31.03 
0.060;0.16;0.26;0.70;-9.04;20.45;-39.58;445.03;-250.64;-358.00;0.76;-22.82;23.97;31.60 
0.090;-0.05;0.26;0.85;-19.13;13.36;-45.15;442.05;-240.19;-361.00;0.89;-21.57;22.85;31.90 
0.120;-0.09;0.34;0.99;-15.44;18.71;-43.34;431.12;-231.65;-366.00;1.05;-20.05;21.59;32.20 
0.149;0.26;0.30;1.22;-7.51;6.26;-27.27;431.12;-225.95;-364.00;1.28;-19.00;20.63;32.40 
0.179;0.02;0.32;1.38;23.79;-31.10;-24.83;428.14;-225.00;-368.00;1.42;-18.67;20.68;32.81 
0.209;-0.22;0.53;1.19;47.23;-55.17;-28.52;432.11;-225.95;-365.00;1.32;-18.26;21.18;34.19 
0.239;-0.15;0.69;0.80;21.43;-25.32;-11.97;441.05;-234.50;-364.00;1.07;-17.91;21.80;35.67 
0.270;-0.33;0.48;0.96;22.61;8.97;0.21;447.01;-237.34;-361.00;1.12;-17.74;21.50;36.67 
0.300;-0.46;0.05;0.95;2.64;2.16;25.18;448.01;-235.45;-357.00;1.06;-18.22;21.48;36.99 
0.330;-0.30;0.07;0.87;-13.77;21.63;14.05;450.99;-239.24;-358.00;0.92;-18.63;21.33;36.60 
0.360;-0.18;0.31;0.89;-46.33;25.32;40.42;447.01;-237.34;-362.00;0.96;-19.16;21.10;35.53 
0.390;-0.18;0.35;0.93;-71.65;13.01;53.77;434.10;-238.29;-366.00;1.01;-20.16;21.26;33.43 
0.420;-0.21;0.16;0.85;-74.99;-4.17;70.89;422.18;-246.84;-375.00;0.89;-21.65;22.09;30.71 
0.450;-0.22;0.13;0.74;-65.39;-12.24;78.82;415.22;-256.33;-383.00;0.78;-23.42;23.26;27.89 
0.481;-0.18;0.06;0.60;-40.83;1.88;84.94;401.32;-275.32;-394.00;0.63;-25.60;24.47;25.39 
0.511;-0.13;0.00;0.49;-21.70;16.28;80.00;397.34;-281.02;-399.00;0.51;-27.98;25.24;23.43 
0.541;-0.07;0.00;0.60;-11.83;34.85;70.26;394.36;-289.56;-401.00;0.60;-30.27;25.59;21.80 
0.571;-0.05;-0.09;0.70;-7.72;40.14;59.62;392.38;-290.51;-398.00;0.71;-32.22;25.28;20.54 
0.601;-0.02;-0.07;0.78;2.57;29.08;55.93;393.37;-291.46;-400.00;0.78;-34.10;24.98;19.55 
0.631;0.05;-0.07;0.82;14.68;21.63;51.90;396.35;-290.51;-398.00;0.82;-35.95;24.96;18.92 
0.661;-0.07;-0.07;0.93;19.76;13.36;43.83;402.31;-293.36;-396.00;0.94;-37.72;25.30;18.91 
0.692;-0.13;-0.03;0.99;8.70;18.23;33.53;403.30;-297.16;-393.00;1.00;-39.14;25.30;18.76 
0.722;0.21;-0.01;1.14;-9.04;20.31;16.42;409.26;-296.21;-391.00;1.16;-40.08;25.00;18.35 
0.752;-0.04;-0.06;1.47;-29.36;29.22;18.99;402.31;-293.36;-392.00;1.47;-40.95;24.89;17.79 
0.783;-0.28;-0.22;1.44;-30.05;1.04;13.70;399.33;-292.41;-397.00;1.48;-41.44;24.74;16.88 
0.813;-0.27;-0.14;1.25;-16.14;-26.99;-1.88;394.36;-295.26;-398.00;1.29;-41.74;24.97;16.02 
0.843;-0.36;-0.10;0.91;-8.07;-23.03;-17.46;384.43;-300.95;-403.00;0.98;-41.80;25.64;15.75 
0.873;-0.30;0.26;0.75;-1.39;-25.60;-31.86;384.43;-304.75;-403.00;0.85;-41.23;25.86;16.05 
0.904;-0.10;0.49;0.62;17.04;-9.88;-37.77;385.42;-301.90;-407.00;0.80;-40.24;25.85;17.08 
0.934;-0.14;0.26;0.81;42.30;0.07;-25.46;389.40;-296.21;-398.00;0.86;-39.43;25.55;18.74 
0.964;-0.27;0.07;1.01;59.69;-10.23;-42.57;403.30;-295.26;-388.00;1.05;-38.73;25.14;20.71 
0.995;-0.28;0.03;1.09;64.14;-38.33;-47.10;414.23;-293.36;-386.00;1.13;-37.71;24.94;23.10 
1.025;-0.20;0.20;0.87;44.66;-82.78;-41.74;418.20;-296.21;-376.00;0.91;-36.69;25.78;25.33 
1.055;-0.22;0.17;0.58;30.54;-84.10;-46.96;429.13;-304.75;-378.00;0.64;-35.80;27.22;27.07 
1.084;-0.05;0.25;0.38;17.53;-51.20;-60.45;436.09;-312.35;-375.00;0.46;-34.43;27.87;28.71 
1.114;0.06;0.26;0.38;12.10;-5.63;-58.23;437.08;-311.40;-370.00;0.46;-32.79;27.53;30.37 
1.144;0.10;0.31;0.42;4.24;20.38;-49.67;436.09;-303.80;-367.00;0.53;-31.24;26.44;31.76 
1.174;0.19;0.37;0.53;-4.38;35.20;-48.28;437.08;-288.61;-369.00;0.67;-29.80;24.97;32.76 
1.205;0.18;0.26;0.86;-7.58;38.47;-51.41;430.13;-272.47;-365.00;0.92;-28.45;23.32;33.35 
1.235;-0.19;0.32;1.00;1.53;17.11;-55.51;429.13;-262.03;-364.00;1.07;-26.79;21.64;33.97 
1.265;-0.02;0.50;1.23;1.25;11.83;-34.23;423.17;-254.43;-367.00;1.33;-25.51;20.36;34.62 
1.295;0.26;0.27;1.31;30.61;5.84;-18.78;426.15;-250.64;-364.00;1.36;-25.24;20.03;34.94 
1.325;-0.03;0.37;1.54;68.52;-32.49;-42.02;432.11;-243.04;-355.00;1.58;-24.55;19.62;36.55 
1.355;-0.10;0.78;0.93;15.37;-77.84;-2.99;438.07;-253.48;-350.00;1.22;-23.95;20.64;38.55 
1.385;-0.14;0.63;0.77;3.55;8.70;-0.97;439.07;-258.23;-351.00;1.00;-24.10;21.48;39.09 
1.416;-0.26;0.18;1.01;-1.18;0.35;27.55;440.06;-256.33;-351.00;1.06;-24.46;21.40;39.11 
1.446;-0.34;-0.12;0.79;-13.08;16.97;24.56;439.07;-262.98;-350.00;0.87;-25.42;21.76;38.20 
1.476;-0.13;0.23;0.83;-34.09;36.59;36.59;434.10;-261.08;-355.00;0.87;-26.04;21.46;37.13 
1.507;-0.18;0.46;0.97;-67.83;43.69;50.99;427.15;-260.13;-356.00;1.09;-27.24;21.10;35.21 
1.537;-0.22;0.31;0.98;-89.95;22.33;68.45;423.17;-261.08;-358.00;1.05;-28.92;21.21;32.25 
1.567;-0.20;0.06;0.72;-90.78;-9.46;69.77;394.36;-269.62;-378.00;0.75;-30.75;21.94;28.93 
1.597;-0.21;0.02;0.51;-67.20;-0.90;83.69;379.46;-280.07;-384.00;0.55;-32.91;23.15;25.71 
1.627;-0.09;-0.06;0.44;-27.13;28.45;71.86;368.54;-288.61;-391.00;0.45;-35.32;23.70;23.20 
1.657;-0.02;-0.10;0.53;-6.33;40.90;63.86;367.54;-287.66;-391.00;0.54;-37.46;23.62;21.64 
1.687;0.02;-0.12;0.70;2.16;40.00;53.84;368.54;-285.76;-389.00;0.71;-39.40;23.46;20.93 
1.718;0.00;-0.12;0.76;11.27;28.87;48.63;365.56;-286.71;-388.00;0.77;-41.22;23.39;20.55 
1.748;0.01;-0.11;0.82;16.63;22.47;45.70;366.55;-289.56;-385.00;0.83;-42.95;23.52;20.43 
1.777;0.00;0.02;0.96;18.99;21.57;41.81;369.53;-285.76;-379.00;0.96;-44.51;23.69;20.44 
1.807;-0.19;0.00;1.13;8.00;24.63;25.67;375.49;-287.66;-379.00;1.15;-45.79;23.49;20.36 
1.837;0.16;-0.16;1.26;-2.50;-1.81;13.84;369.53;-289.56;-379.00;1.28;-46.91;23.43;19.77 
1.867;-0.18;0.01;1.46;-32.49;29.57;5.91;371.52;-289.56;-377.00;1.47;-47.45;23.39;19.37 
1.897;-0.20;-0.03;1.43;-41.53;-7.51;20.59;363.57;-292.41;-382.00;1.44;-47.97;23.48;18.32 
1.928;-0.40;-0.06;1.07;-11.41;-52.24;14.54;354.63;-304.75;-386.00;1.14;-48.68;24.52;17.21 
1.958;-0.51;0.11;0.82;-6.47;-44.03;-2.64;354.63;-310.45;-394.00;0.97;-49.25;26.18;16.97 
1.988;-0.38;0.34;0.54;2.92;-36.94;-28.87;356.62;-321.84;-394.00;0.74;-48.84;26.98;17.41 
2.019;-0.14;0.28;0.77;22.12;39.86;-38.82;358.60;-325.64;-390.00;0.83;-47.68;26.16;18.61 
2.049;-0.27;0.10;1.28;50.23;8.14;-42.92;370.52;-310.45;-388.00;1.31;-46.66;24.70;20.24 
2.079;-0.38;0.11;1.28;59.62;-65.32;-42.92;381.45;-312.35;-380.00;1.34;-45.57;24.66;22.28 
2.109;-0.23;0.19;0.83;50.30;-99.83;-43.83;390.39;-318.04;-378.00;0.88;-44.45;26.12;24.38 
2.138;-0.10;0.21;0.50;37.70;-96.56;-43.90;401.32;-332.28;-376.00;0.55;-43.39;27.96;26.27 
2.168;-0.06;0.18;0.29;27.27;-65.95;-60.38;407.28;-342.73;-371.00;0.35;-42.03;29.10;28.05 
2.198;0.02;0.18;0.30;24.14;-13.08;-68.31;421.19;-344.62;-367.00;0.35;-40.33;29.23;29.92 
2.229;0.12;0.25;0.40;20.24;27.06;-60.45;422.18;-336.08;-362.00;0.49;-38.39;27.95;31.90 
2.259;0.18;0.25;0.57;4.38;38.75;-54.96;427.15;-325.64;-363.00;0.65;-36.74;26.14;33.27 
2.289;0.24;0.26;0.73;-10.71;42.09;-55.58;429.13;-304.75;-363.00;0.81;-35.31;24.31;34.04 
2.319;0.00;0.31;0.97;-8.35;24.07;-67.41;423.17;-292.41;-360.00;1.02;-33.63;22.43;34.61 
2.349;-0.12;0.37;1.13;-0.90;1.67;-48.63;424.17;-283.86;-359.00;1.20;-31.79;20.78;35.43 
2.379;0.46;0.37;1.10;1.25;4.52;-13.22;420.19;-273.42;-361.00;1.25;-31.00;20.39;35.77 
2.409;0.03;0.25;1.47;42.78;-11.97;-43.62;419.20;-275.32;-360.00;1.49;-30.54;20.08;36.48 
2.440;-0.17;0.68;1.20;56.00;-77.43;-27.76;434.10;-273.42;-350.00;1.39;-29.36;20.30;38.65 
2.470;-0.10;0.51;0.68;19.27;-22.40;-13.36;441.05;-285.76;-348.00;0.86;-28.86;21.24;39.90 
2.499;-0.22;0.28;1.05;27.20;3.34;2.16;444.03;-281.97;-344.00;1.11;-28.40;20.81;40.92 
2.529;-0.42;-0.15;0.99;3.27;2.78;6.33;447.01;-281.02;-340.00;1.09;-28.82;21.19;41.47 
2.559;-0.22;0.03;0.87;-26.16;23.30;-3.69;447.01;-281.02;-339.00;0.90;-28.77;20.67;40.94 
2.589;-0.14;0.30;0.97;-58.09;35.13;5.36;442.05;-275.32;-343.00;1.02;-28.93;19.91;39.66 
2.619;-0.10;0.37;0.98;-73.88;17.81;19.55;433.11;-269.62;-352.00;1.05;-29.29;19.38;37.71 
2.649;-0.16;0.09;0.87;-67.90;-10.02;31.44;417.21;-274.37;-357.00;0.89;-30.22;19.67;35.27 
2.679;-0.15;0.07;0.69;-56.77;-19.90;41.04;403.30;-282.91;-373.00;0.71;-31.37;20.61;32.87 
2.709;-0.11;0.05;0.51;-36.52;-8.63;47.10;398.34;-290.51;-374.00;0.52;-32.84;21.67;30.84 
2.739;0.02;0.02;0.44;-16.21;17.25;45.01;391.38;-296.21;-376.00;0.44;-34.29;22.25;29.32 
2.768;0.00;0.00;0.56;-5.91;33.11;40.56;393.37;-297.16;-381.00;0.56;-35.77;22.53;28.52 
2.798;0.00;0.00;0.58;0.21;40.77;41.18;391.38;-300.95;-379.00;0.58;-37.21;22.46;27.98 
2.829;0.00;-0.08;0.74;8.90;48.83;44.03;394.36;-296.21;-376.00;0.74;-38.79;22.28;27.66 
2.859;-0.03;0.10;1.02;13.57;37.77;45.70;395.36;-294.31;-372.00;1.03;-40.49;21.76;27.12 
2.888;-0.23;0.04;1.13;10.78;16.35;40.07;403.30;-292.41;-375.00;1.15;-41.97;21.68;26.77 
2.917;0.02;-0.10;1.23;-3.48;-1.67;30.68;401.32;-293.36;-366.00;1.23;-43.40;21.91;26.05 
2.946;-0.02;0.08;1.25;-27.48;19.62;28.17;401.32;-300.00;-369.00;1.25;-44.54;22.39;25.31 
2.976;-0.23;-0.14;1.34;-42.37;4.73;35.13;393.37;-301.90;-376.00;1.37;-45.80;22.52;23.81 
3.006;-0.45;-0.20;1.23;-29.63;-28.87;13.77;388.40;-306.65;-377.00;1.32;-46.79;22.95;22.21 
3.037;-0.37;0.05;1.00;-20.38;-31.51;-3.83;382.44;-312.35;-375.00;1.07;-47.17;23.57;21.24 
3.067;-0.26;0.42;0.76;-13.77;-24.90;-0.83;381.45;-318.99;-380.00;0.91;-47.23;24.17;20.88 
3.097;-0.05;0.66;0.70;9.11;-6.40;-5.50;381.45;-318.99;-378.00;0.96;-47.04;24.42;21.16 
3.128;-0.21;0.31;0.89;36.87;-1.88;3.97;384.43;-318.04;-379.00;0.97;-47.23;24.43;22.04 
3.158;-0.26;0.08;1.05;50.50;-14.05;-1.60;392.38;-318.04;-374.00;1.08;-47.38;24.45;23.24 
3.188;-0.29;0.12;1.07;47.72;-52.80;0.49;409.26;-322.79;-366.00;1.12;-47.51;25.07;24.53 
3.218;-0.13;0.16;0.72;27.97;-69.91;-0.77;415.22;-337.98;-360.00;0.75;-47.65;26.61;25.44 
3.248;-0.06;0.23;0.50;12.45;-42.99;-6.33;418.20;-347.47;-360.00;0.55;-47.59;27.93;26.14 
3.278;0.10;0.30;0.46;2.16;-13.15;-5.08;420.19;-353.17;-359.00;0.56;-47.51;28.59;26.56 
3.308;0.21;0.31;0.50;-0.77;8.21;1.39;425.16;-350.32;-356.00;0.62;-47.57;28.79;26.78 
3.339;0.16;0.21;0.74;-5.29;13.84;10.64;425.16;-350.32;-356.00;0.79;-47.96;28.69;26.68 
3.369;0.08;0.18;0.86;-15.17;0.14;6.61;421.19;-351.27;-355.00;0.88;-48.42;28.65;26.23 
3.399;-0.04;0.18;0.83;-20.94;-0.97;7.44;421.19;-351.27;-358.00;0.85;-48.82;28.71;25.61 
3.429;0.00;0.15;0.85;-17.25;10.85;10.43;418.20;-350.32;-361.00;0.86;-49.19;28.62;24.91 
3.459;0.10;0.31;1.07;3.20;-2.85;1.74;416.22;-356.02;-363.00;1.12;-49.71;28.56;24.41 
3.489;-0.07;0.47;1.02;15.93;-23.17;9.39;419.20;-356.02;-362.00;1.13;-49.89;28.83;24.73 
3.519;-0.26;0.38;1.02;22.12;-14.33;-2.30;423.17;-361.71;-355.00;1.12;-50.04;29.23;25.30 
3.550;-0.48;0.15;0.89;23.51;27.41;14.68;427.15;-359.81;-349.00;1.02;-50.23;28.93;25.95 
3.580;-0.18;0.38;0.85;0.42;67.34;39.03;431.12;-357.92;-351.00;0.95;-51.06;27.70;26.00 
3.610;0.08;0.38;1.16;-18.85;42.57;60.10;429.13;-355.07;-349.00;1.22;-52.68;26.56;25.21 
3.641;-0.30;0.21;1.10;-50.02;0.07;86.12;426.15;-356.97;-353.00;1.16;-55.26;26.95;23.16 
3.671;-0.26;0.05;0.90;-49.67;12.73;93.22;412.24;-375.00;-361.00;0.94;-58.22;27.62;20.40 
3.701;-0.22;0.00;0.77;-39.65;9.95;97.88;396.35;-384.50;-367.00;0.80;-61.35;28.11;17.72 
3.731;-0.09;0.01;0.61;-25.53;11.41;103.03;392.38;-394.94;-371.00;0.62;-64.60;28.57;15.24 
3.762;-0.08;0.05;0.52;-6.33;26.85;105.18;384.43;-400.64;-374.00;0.53;-68.06;28.87;13.15 
3.792;-0.02;0.06;0.53;14.12;63.79;106.85;379.46;-409.18;-376.00;0.53;-71.57;28.20;11.70 
3.822;-0.08;0.10;0.86;19.55;80.83;118.61;377.48;-408.23;-375.00;0.87;-75.23;26.70;10.61 
3.853;-0.25;0.28;1.14;7.03;59.20;139.13;374.50;-412.03;-372.00;1.20;-79.60;25.01;9.32 
3.883;-0.54;0.29;1.18;-2.85;17.39;151.72;369.53;-412.98;-372.00;1.33;-84.50;24.24;7.61 
