Time(s) acc_x(g) acc_y(g) acc_z(g) gyr_x(°/s) gyr_y(°/s) gyr_z(°/s) mag_x(G) mag_y(G) mag_z(G) SVM(g) yaw(°) pitch(°) roll(°)
0.000;-0.33;0.21;0.62;-45.08;6.82;20.94;475.82;-243.04;-326.00;0.73;-79.77;17.08;27.40 
0.030;-0.17;0.18;0.74;-51.83;40.83;30.47;467.87;-245.89;-331.00;0.78;-81.12;16.53;25.86 
0.060;-0.18;0.14;0.87;-59.06;47.58;44.45;458.93;-243.99;-340.00;0.90;-83.24;15.64;23.85 
0.090;-0.21;0.06;0.95;-66.85;28.17;30.61;451.98;-243.04;-348.00;0.97;-85.18;14.81;21.70 
0.120;-0.23;0.08;0.90;-83.13;5.01;39.72;439.07;-244.94;-359.00;0.93;-86.73;14.54;19.15 
0.151;-0.26;0.07;0.72;-81.32;1.60;41.60;426.15;-250.64;-370.00;0.77;-88.27;14.66;16.30 
0.181;-0.22;0.09;0.57;-62.05;17.11;40.28;408.27;-254.43;-382.00;0.62;-89.88;14.42;13.84 
0.211;-0.15;0.00;0.54;-32.49;30.75;39.86;399.33;-252.53;-388.00;0.56;-91.45;13.75;12.19 
0.241;-0.08;0.01;0.59;-12.03;30.19;30.33;397.34;-253.48;-389.00;0.60;-92.96;12.79;11.28 
0.271;0.03;-0.10;0.75;11.83;21.08;28.38;395.36;-251.59;-393.00;0.76;-94.33;12.22;11.00 
0.301;0.02;-0.07;0.76;21.43;5.01;33.18;399.33;-256.33;-388.00;0.76;-95.57;12.14;11.19 
0.331;0.02;-0.04;0.90;25.81;7.10;34.71;407.28;-257.28;-384.00;0.90;-96.89;12.24;11.61 
0.361;-0.17;0.08;1.10;17.74;9.18;34.09;414.23;-258.23;-384.00;1.12;-98.30;12.13;12.09 
0.391;-0.10;0.00;1.18;-1.53;-6.19;26.02;420.19;-262.98;-383.00;1.18;-99.56;12.08;12.17 
0.421;-0.13;-0.11;1.19;-15.03;8.90;15.30;415.22;-266.78;-386.00;1.20;-100.28;12.53;11.67 
0.452;-0.13;0.00;1.45;-34.37;15.44;15.86;413.24;-265.83;-384.00;1.46;-101.04;11.84;10.77 
0.482;-0.36;-0.14;1.30;-24.63;-27.34;11.90;406.28;-270.57;-393.00;1.36;-101.77;11.85;9.65 
0.512;-0.34;-0.06;0.88;-10.78;-28.31;-12.17;403.30;-271.52;-392.00;0.95;-101.83;12.49;9.09 
0.542;-0.37;0.22;0.72;-0.21;-24.00;-28.31;399.33;-280.07;-398.00;0.84;-101.40;12.78;9.14 
0.572;-0.22;0.16;0.68;24.49;3.69;-42.09;398.34;-282.91;-397.00;0.73;-100.54;12.63;9.95 
0.602;-0.17;0.10;0.95;53.01;17.11;-48.49;402.31;-274.37;-393.00;0.97;-99.50;11.82;11.44 
0.631;-0.33;0.14;1.20;70.89;-12.45;-44.38;414.23;-264.88;-384.00;1.25;-98.50;11.09;13.53 
0.661;-0.35;0.21;1.10;63.72;-69.50;-46.19;431.12;-265.83;-376.00;1.17;-97.13;11.66;15.93 
0.691;-0.20;0.30;0.76;37.57;-91.06;-42.43;438.07;-272.47;-376.00;0.84;-95.23;13.39;17.85 
0.721;-0.10;0.26;0.52;19.55;-78.75;-41.39;439.07;-283.86;-370.00;0.59;-93.32;15.29;19.23 
0.752;0.02;0.14;0.40;11.83;-51.34;-51.48;442.05;-287.66;-374.00;0.42;-91.33;16.57;20.35 
0.782;0.06;0.17;0.42;11.27;-15.44;-53.98;441.05;-288.61;-369.00;0.46;-89.49;17.04;21.33 
0.812;0.03;0.20;0.51;4.66;0.35;-48.21;443.04;-282.91;-366.00;0.55;-88.08;16.69;22.16 
0.842;0.10;0.23;0.51;-6.26;4.87;-43.48;442.05;-278.17;-369.00;0.57;-86.96;16.12;22.70 
0.872;0.23;0.22;0.56;-13.22;14.54;-44.73;437.08;-270.57;-367.00;0.64;-85.98;15.53;22.94 
0.902;0.10;0.23;0.81;-13.43;23.86;-55.86;434.10;-256.33;-366.00;0.85;-85.02;14.64;23.02 
0.932;-0.10;0.26;1.14;-2.85;21.36;-54.75;424.17;-244.94;-371.00;1.17;-83.83;13.26;23.21 
0.963;0.22;0.39;1.25;2.99;10.92;-26.37;422.18;-236.40;-372.00;1.33;-82.95;12.22;23.50 
0.993;-0.02;0.34;1.43;48.63;6.19;-45.98;422.18;-228.80;-363.00;1.47;-82.37;11.61;24.43 
1.023;-0.14;0.84;1.46;68.73;-55.79;-26.16;434.10;-226.90;-356.00;1.69;-81.03;11.51;26.75 
1.053;-0.15;0.59;0.86;21.50;-41.60;7.03;443.04;-235.45;-357.00;1.05;-80.13;12.89;28.15 
1.083;-0.26;0.22;0.89;10.30;-11.13;21.98;448.01;-241.14;-352.00;0.95;-80.15;13.41;28.90 
1.113;-0.33;0.06;0.71;-20.45;7.44;24.35;446.02;-243.99;-354.00;0.79;-81.03;13.72;28.53 
1.143;-0.15;0.15;0.82;-33.39;42.37;19.48;447.01;-247.79;-351.00;0.85;-82.36;13.15;27.48 
1.173;-0.26;0.35;1.01;-63.30;44.80;48.42;434.10;-240.19;-360.00;1.10;-84.48;12.28;25.78 
1.203;-0.20;0.32;0.98;-77.29;23.37;58.99;426.15;-241.14;-367.00;1.05;-86.84;11.83;23.40 
1.233;-0.18;0.11;0.80;-75.13;-11.90;68.10;415.22;-247.79;-377.00;0.83;-89.13;12.27;20.75 
1.264;-0.17;0.09;0.58;-64.14;-10.30;76.24;404.30;-260.13;-383.00;0.61;-91.48;13.28;17.99 
1.293;-0.12;0.02;0.50;-40.42;16.49;78.82;389.40;-275.32;-394.00;0.51;-94.11;13.67;15.79 
1.323;-0.06;0.01;0.51;-18.99;34.16;74.16;388.40;-273.42;-397.00;0.51;-96.72;13.66;14.48 
1.352;0.00;0.02;0.52;-11.34;40.70;72.77;383.44;-276.27;-396.00;0.52;-99.46;13.02;13.51 
1.382;0.00;-0.04;0.58;1.32;37.08;70.61;384.43;-274.37;-392.00;0.58;-102.18;12.53;12.95 
1.412;0.08;-0.03;0.70;11.13;37.70;72.35;389.40;-277.22;-395.00;0.71;-104.81;11.92;12.58 
1.441;0.02;-0.07;0.96;15.44;32.63;72.28;390.39;-281.02;-387.00;0.96;-107.51;11.40;12.45 
1.471;-0.26;-0.10;1.22;5.15;26.85;59.48;395.36;-285.76;-390.00;1.25;-110.13;10.77;12.30 
1.501;0.14;-0.13;1.28;-15.37;-1.81;30.61;401.32;-284.81;-385.00;1.29;-111.96;10.43;11.61 
1.531;-0.11;0.06;1.28;-31.86;16.07;36.80;393.37;-290.51;-391.00;1.29;-112.99;10.50;10.80 
1.562;-0.23;-0.07;1.41;-47.44;10.43;27.41;382.44;-291.46;-394.00;1.43;-114.23;9.94;9.25 
1.592;-0.43;-0.15;1.27;-21.22;-35.13;18.57;376.48;-294.31;-393.00;1.35;-115.16;10.04;8.07 
1.622;-0.51;0.17;0.80;-6.40;-45.29;-16.56;372.51;-301.90;-398.00;0.96;-115.27;11.29;7.63 
1.652;-0.34;0.30;0.64;10.64;-7.65;-38.61;372.51;-307.60;-397.00;0.78;-114.40;11.71;8.11 
1.682;-0.14;0.33;0.94;38.82;22.33;-31.86;374.50;-300.00;-392.00;1.01;-113.66;10.75;9.26 
1.712;-0.31;0.20;1.15;58.23;-30.26;-31.51;379.46;-296.21;-392.00;1.21;-113.15;10.32;10.99 
1.741;-0.37;0.12;1.07;61.98;-73.46;-42.16;392.38;-300.00;-385.00;1.14;-112.15;11.17;13.00 
1.772;-0.17;0.24;0.74;44.94;-84.17;-41.60;401.32;-310.45;-380.00;0.80;-110.57;12.89;14.95 
1.802;-0.10;0.29;0.49;29.63;-75.06;-33.04;412.24;-320.89;-375.00;0.58;-109.05;14.69;16.57 
1.832;-0.10;0.24;0.33;22.05;-43.41;-46.33;415.22;-328.48;-370.00;0.42;-107.54;15.92;17.95 
1.863;0.02;0.18;0.30;19.06;4.31;-50.23;420.19;-327.54;-367.00;0.35;-106.12;16.03;19.16 
1.893;0.18;0.18;0.48;11.34;30.61;-44.45;423.17;-321.84;-362.00;0.54;-105.26;15.12;20.20 
1.923;0.26;0.21;0.59;1.46;37.77;-39.86;423.17;-303.80;-365.00;0.68;-104.72;13.87;20.83 
1.953;0.14;0.25;0.69;-9.88;19.76;-54.47;419.20;-299.05;-358.00;0.75;-104.02;12.75;21.08 
1.982;-0.09;0.33;0.86;-5.43;18.57;-66.57;418.20;-286.71;-362.00;0.93;-102.65;11.61;21.24 
2.012;0.00;0.34;1.14;8.35;24.21;-47.17;416.22;-273.42;-360.00;1.19;-101.60;10.33;21.71 
2.042;0.23;0.40;1.31;28.52;7.44;-20.94;415.22;-271.52;-360.00;1.39;-101.10;9.72;22.09 
2.073;-0.12;0.46;1.64;71.17;-3.34;-36.73;423.17;-266.78;-354.00;1.71;-100.72;9.17;23.52 
2.103;-0.27;0.74;1.02;29.29;-85.70;4.87;435.09;-270.57;-345.00;1.29;-99.56;10.39;25.70 
2.133;-0.33;0.38;0.78;36.24;-9.81;-2.64;438.07;-281.02;-346.00;0.93;-99.24;11.64;26.78 
2.163;-0.34;0.01;0.94;10.50;-5.84;25.81;441.05;-284.81;-342.00;1.00;-99.87;11.80;27.34 
2.193;-0.30;-0.09;0.83;-20.94;29.70;13.50;447.01;-289.56;-342.00;0.89;-101.10;11.63;26.72 
2.223;-0.26;0.10;1.02;-53.77;50.16;17.53;440.06;-284.81;-345.00;1.06;-102.39;10.58;25.37 
2.253;-0.22;0.37;1.06;-85.08;39.51;16.35;431.12;-279.12;-354.00;1.14;-103.60;9.20;23.17 
2.284;-0.18;0.26;0.81;-87.93;7.30;36.94;409.26;-279.12;-364.00;0.87;-104.75;8.77;20.36 
2.314;-0.21;0.13;0.62;-64.77;-2.50;37.15;401.32;-286.71;-377.00;0.67;-106.01;8.90;17.78 
2.344;-0.15;0.21;0.45;-37.57;2.71;49.39;387.41;-289.56;-380.00;0.52;-107.37;9.09;16.03 
2.375;-0.05;0.03;0.44;-8.83;21.77;50.71;385.42;-296.21;-382.00;0.44;-109.38;8.95;14.97 
2.405;-0.02;0.03;0.53;1.46;29.57;50.99;385.42;-297.16;-385.00;0.53;-111.41;8.65;14.60 
2.435;0.00;-0.10;0.65;7.23;34.50;42.37;387.41;-293.36;-379.00;0.66;-113.34;8.07;14.38 
2.464;0.06;-0.18;0.78;13.36;33.74;38.47;393.37;-292.41;-380.00;0.80;-115.07;7.36;14.26 
2.494;0.04;0.06;0.96;17.74;17.67;49.60;395.36;-296.21;-377.00;0.96;-116.94;6.88;14.29 
2.524;-0.25;0.17;1.02;15.58;0.00;47.30;400.32;-299.05;-377.00;1.06;-118.85;6.96;14.58 
2.554;-0.06;0.01;1.06;6.05;1.88;34.99;405.29;-305.70;-375.00;1.06;-120.33;7.00;14.76 
2.584;0.07;-0.01;1.16;-12.38;29.91;23.79;406.28;-307.60;-374.00;1.16;-121.52;7.00;14.44 
2.614;-0.24;-0.13;1.57;-41.74;39.86;22.33;402.31;-302.85;-378.00;1.59;-122.63;5.74;13.51 
2.644;-0.41;-0.14;1.54;-37.50;-10.85;1.60;391.38;-300.95;-379.00;1.60;-123.37;5.02;11.90 
2.675;-0.37;0.10;1.08;-12.31;-38.40;-4.45;388.40;-307.60;-384.00;1.15;-123.27;5.41;11.02 
2.705;-0.45;0.22;0.72;7.72;-40.90;-20.87;384.43;-314.24;-382.00;0.88;-122.85;6.25;11.07 
2.734;-0.34;0.23;0.55;20.73;0.83;-32.56;388.40;-315.19;-384.00;0.69;-122.27;6.42;11.76 
2.763;-0.26;0.21;0.86;41.95;35.97;-45.43;391.38;-307.60;-381.00;0.92;-121.59;5.29;12.87 
2.793;-0.26;0.12;1.16;57.74;16.97;-54.54;405.29;-295.26;-374.00;1.19;-120.67;3.86;14.54 
2.823;-0.34;0.18;1.13;56.49;-38.33;-43.27;418.20;-289.56;-361.00;1.19;-119.63;3.53;16.41 
2.853;-0.30;0.24;0.78;38.82;-52.80;-36.38;423.17;-293.36;-360.00;0.87;-118.54;4.34;17.97 
2.884;-0.21;0.23;0.46;21.63;-35.90;-41.95;430.13;-298.10;-353.00;0.56;-117.41;5.05;19.15 
2.914;0.01;0.25;0.39;12.66;-6.61;-45.91;434.10;-293.36;-355.00;0.46;-116.13;5.15;19.93 
2.944;-0.06;0.16;0.38;10.02;-4.66;-48.21;437.08;-288.61;-350.00;0.42;-115.09;4.85;20.52 
2.974;-0.08;0.15;0.37;15.79;9.67;-53.50;434.10;-281.02;-349.00;0.41;-113.95;4.09;21.18 
3.004;-0.02;0.23;0.49;17.53;6.96;-61.91;437.08;-276.27;-345.00;0.54;-112.70;3.07;21.92 
3.034;0.05;0.26;0.58;11.76;-12.80;-57.95;437.08;-262.03;-341.00;0.64;-111.30;2.59;22.60 
3.064;-0.04;0.14;0.77;-1.25;-16.63;-72.21;436.09;-257.28;-337.00;0.78;-109.60;2.47;22.95 
3.095;-0.22;0.27;1.10;-5.98;1.67;-78.19;433.11;-249.69;-339.00;1.15;-107.37;1.74;22.83 
3.125;0.00;0.50;1.38;-9.18;-28.45;-60.59;428.14;-243.99;-340.00;1.47;-105.41;1.16;22.67 
3.155;0.18;0.22;1.17;18.99;-42.23;-43.69;428.14;-239.24;-341.00;1.20;-103.96;1.89;22.80 
3.185;0.01;0.44;0.99;39.23;-58.30;-62.47;427.15;-243.04;-338.00;1.08;-102.13;2.98;23.53 
3.215;-0.14;0.58;1.13;54.40;-31.93;-72.49;432.11;-236.40;-332.00;1.28;-99.78;3.50;25.19 
3.245;-0.26;0.75;0.98;38.19;-5.29;-22.61;440.06;-232.60;-328.00;1.26;-98.45;3.49;26.88 
3.275;-0.46;0.46;1.08;53.77;14.05;1.46;448.01;-230.70;-323.00;1.26;-98.68;2.90;28.44 
3.305;-0.46;0.00;1.02;13.15;-3.13;2.78;455.95;-227.85;-309.00;1.12;-99.40;2.62;29.32 
3.335;-0.22;0.10;0.93;-15.86;-22.47;5.15;457.94;-231.65;-310.00;0.96;-99.56;2.80;29.10 
3.365;-0.27;0.26;0.90;-51.34;-17.39;19.69;454.96;-234.50;-318.00;0.97;-99.84;3.60;27.91 
3.396;-0.21;0.35;0.91;-62.12;7.51;38.96;447.01;-238.29;-319.00;1.00;-100.71;4.03;26.01 
3.426;-0.23;0.22;1.01;-59.20;-4.94;59.27;439.07;-248.74;-333.00;1.06;-102.51;4.48;23.93 
3.456;-0.24;0.23;0.78;-50.23;-33.88;72.83;432.11;-259.18;-343.00;0.85;-104.33;5.71;21.98 
3.486;-0.23;0.30;0.52;-33.18;-30.68;91.41;424.17;-273.42;-350.00;0.64;-106.51;7.38;20.44 
3.516;-0.11;0.24;0.38;-11.34;13.36;96.77;426.15;-288.61;-351.00;0.46;-109.52;8.46;19.48 
3.546;-0.06;0.26;0.48;-2.99;59.76;113.53;427.15;-302.85;-352.00;0.55;-113.23;8.36;18.99 
