Time(s) acc_x(g) acc_y(g) acc_z(g) gyr_x(°/s) gyr_y(°/s) gyr_z(°/s) mag_x(G) mag_y(G) mag_z(G) SVM(g) yaw(°) pitch(°) roll(°)
0.000;-0.26;0.18;0.86;1.11;4.38;-14.89;398.32;-20.08;-358.00;0.92;-98.76;-10.38;12.03 
0.030;-0.21;0.18;0.88;0.56;6.40;-16.49;399.32;-22.00;-356.00;0.92;-98.43;-10.57;11.96 
0.060;-0.21;0.19;0.86;1.74;10.23;-17.39;398.32;-16.26;-356.00;0.91;-98.10;-10.81;11.92 
0.090;-0.26;0.17;0.82;2.02;10.16;-20.73;393.34;-15.30;-353.00;0.88;-97.71;-11.19;11.90 
0.120;-0.26;0.20;0.81;2.09;6.47;-21.84;394.34;-9.56;-353.00;0.87;-97.24;-11.52;11.82 
0.150;-0.25;0.18;0.85;2.50;5.98;-24.83;393.34;-4.78;-353.00;0.90;-96.72;-11.77;11.79 
0.180;-0.26;0.19;0.83;3.69;5.70;-27.62;390.36;0.00;-349.00;0.89;-96.13;-12.03;11.76 
0.211;-0.26;0.17;0.90;3.76;6.61;-30.89;386.37;4.78;-348.00;0.95;-95.37;-12.33;11.69 
0.241;-0.25;0.18;0.86;4.03;12.10;-31.93;383.39;8.61;-349.00;0.91;-94.59;-12.74;11.61 
0.271;-0.25;0.16;0.80;3.41;6.82;-32.97;379.40;12.43;-346.00;0.85;-93.80;-13.15;11.53 
0.302;-0.28;0.16;0.87;3.41;4.17;-32.42;381.39;19.13;-346.00;0.93;-92.98;-13.44;11.41 
0.332;-0.27;0.14;0.86;3.20;9.81;-32.07;375.42;23.91;-345.00;0.91;-92.16;-13.78;11.29 
0.362;-0.28;0.17;0.84;3.27;12.38;-33.60;371.44;29.65;-339.00;0.90;-91.39;-14.18;11.15 
0.392;-0.28;0.16;0.81;3.20;10.16;-34.99;364.46;32.52;-339.00;0.87;-90.57;-14.63;11.02 
0.421;-0.30;0.14;0.83;3.27;8.77;-35.20;366.46;38.26;-336.00;0.89;-89.70;-15.01;10.85 
0.451;-0.26;0.14;0.87;2.99;10.30;-35.55;359.49;43.04;-334.00;0.92;-88.87;-15.34;10.67 
0.481;-0.30;0.14;0.88;1.95;13.29;-37.84;359.49;47.82;-333.00;0.94;-87.98;-15.77;10.46 
0.512;-0.32;0.11;0.78;1.88;16.14;-40.42;354.51;57.38;-327.00;0.85;-87.02;-16.33;10.19 
0.542;-0.30;0.14;0.79;2.37;16.77;-42.16;346.54;62.16;-328.00;0.86;-85.99;-16.94;9.88 
0.572;-0.31;0.16;0.80;3.41;19.41;-45.77;339.57;66.95;-324.00;0.87;-85.00;-17.64;9.66 
0.602;-0.30;0.14;0.77;1.32;16.21;-48.49;335.59;77.47;-324.00;0.84;-83.88;-18.28;9.37 
0.632;-0.26;0.14;0.78;2.71;15.93;-49.95;324.63;82.25;-315.00;0.83;-82.62;-18.87;8.99 
0.662;-0.26;0.17;0.77;4.80;15.37;-53.22;321.65;88.94;-313.00;0.83;-81.34;-19.45;8.66 
0.692;-0.26;0.16;0.78;3.62;0.77;-55.51;308.70;95.64;-313.00;0.84;-79.97;-19.85;8.34 
0.723;-0.26;0.20;0.89;-0.90;6.82;-60.31;303.72;101.38;-306.00;0.95;-78.39;-19.93;7.89 
0.752;-0.27;0.19;0.83;-3.20;20.45;-70.68;294.76;110.94;-305.00;0.89;-76.66;-20.36;7.28 
0.781;-0.26;0.16;0.77;-2.92;21.70;-77.29;278.83;118.59;-302.00;0.83;-74.85;-21.05;6.60 
0.811;-0.26;0.18;0.74;-2.37;17.32;-82.57;263.89;125.29;-297.00;0.80;-72.80;-21.67;5.83 
0.841;-0.26;0.24;0.75;-4.03;11.27;-90.02;251.94;131.98;-294.00;0.83;-70.56;-22.13;5.03 
0.871;-0.24;0.22;0.70;-7.10;11.41;-101.22;235.01;136.76;-292.00;0.77;-68.03;-22.49;4.08 
0.901;-0.21;0.16;0.72;-11.62;19.97;-110.54;208.12;144.41;-282.00;0.77;-65.20;-22.87;2.87 
0.931;-0.22;0.14;0.63;-16.00;23.51;-115.27;190.20;147.28;-276.00;0.68;-62.09;-23.46;1.38 
0.961;-0.21;0.18;0.54;-18.43;19.34;-116.38;164.31;152.06;-271.00;0.61;-59.02;-23.89;-0.19 
0.991;-0.18;0.26;0.49;-18.71;15.30;-126.75;144.39;153.98;-264.00;0.58;-55.82;-24.11;-1.72 
1.022;-0.11;0.29;0.35;-19.41;17.60;-142.40;105.56;160.67;-258.00;0.47;-52.14;-24.19;-3.34 
1.052;-0.04;0.33;0.25;-17.60;13.50;-158.61;77.67;155.89;-248.00;0.42;-47.98;-24.11;-4.95 
1.082;0.03;0.29;0.19;-22.19;-6.68;-171.41;49.79;153.98;-245.00;0.35;-43.46;-23.42;-6.59 
1.113;0.07;0.23;0.22;-24.83;-20.59;-175.58;1.99;140.59;-235.00;0.33;-38.38;-21.85;-8.50 
1.143;0.12;0.00;0.27;-30.96;-22.96;-178.64;-33.86;131.02;-236.00;0.30;-33.05;-19.69;-10.67 
1.173;0.06;-0.16;0.29;-32.77;-5.36;-162.85;-62.74;112.85;-231.00;0.34;-27.95;-17.58;-13.30 
1.203;0.04;-0.24;0.14;-29.43;14.61;-143.58;-91.61;104.24;-222.00;0.28;-23.38;-16.11;-15.97 
1.234;0.02;-0.26;0.00;-32.21;37.70;-119.86;-121.49;87.99;-208.00;0.26;-19.35;-15.29;-18.82 
1.264;0.01;-0.23;-0.09;-37.98;51.20;-110.54;-142.40;85.12;-196.00;0.25;-15.96;-15.02;-21.80 
1.293;0.07;-0.15;-0.11;-44.31;63.93;-108.52;-159.33;76.51;-178.00;0.20;-12.82;-14.87;-24.69 
1.323;0.00;-0.02;-0.26;-60.38;50.09;-100.03;-176.26;70.77;-161.00;0.26;-9.98;-14.89;-27.83 
1.352;-0.16;0.03;-0.34;-49.11;-26.37;-148.94;-198.17;65.03;-145.00;0.38;-6.83;-13.55;-30.61 
1.382;-1.49;-5.77;0.67;-28.73;-474.78;-417.46;-254.93;3.83;-136.00;6.00;0.14;-5.66;-35.63 
1.411;4.72;-8.14;4.25;79.58;-632.07;-254.40;-270.86;-103.29;-186.00;10.32;10.73;11.40;-30.52 
1.441;3.29;0.41;1.83;-485.84;-292.31;31.23;-306.71;-194.14;-134.00;3.79;20.64;28.75;-37.01 
1.471;0.78;-1.27;-1.44;-196.52;-106.09;216.00;-336.58;-185.54;-57.00;2.07;22.29;29.80;-46.35 
1.500;0.92;-1.84;0.29;4.94;-362.78;410.02;-338.57;-141.54;-29.00;2.08;16.85;26.09;-54.93 
1.530;0.07;-0.48;3.17;-107.97;-199.10;242.64;-309.70;-48.78;-48.00;3.21;6.13;17.99;-63.90 
1.560;1.12;-0.56;1.24;-168.35;422.19;113.11;-306.71;-19.13;-9.00;1.76;3.41;11.71;-70.33 
1.590;0.52;-0.74;0.01;16.14;432.42;200.83;-295.75;1.91;45.00;0.90;0.31;4.29;-74.32 
1.621;0.43;0.10;-0.06;-125.01;312.35;31.03;-288.78;13.39;62.00;0.45;-2.51;-1.12;-75.89 
1.651;0.21;-0.35;-0.40;-136.56;328.49;0.63;-274.84;4.78;150.00;0.57;-1.74;-2.28;-81.25 
1.681;0.51;-0.83;-0.74;-32.90;376.21;16.35;-265.88;-21.04;192.00;1.22;-1.84;-2.86;-85.04 
1.711;0.82;-0.91;-1.00;-52.59;247.10;31.03;-268.87;-47.82;216.00;1.58;-2.61;-3.24;-86.45 
1.741;1.11;-1.14;-1.39;-47.58;160.35;50.64;-264.88;-66.95;239.00;2.11;-3.97;-3.13;-86.58 
1.771;1.02;-0.86;-1.73;-36.66;71.79;50.09;-251.94;-77.47;256.00;2.18;-6.17;-3.61;-84.90 
1.801;0.78;-0.74;-1.39;8.63;-96.21;22.89;-246.96;-69.82;260.00;1.76;-7.48;-3.91;-83.69 
1.832;0.66;-0.94;-0.63;37.01;-180.73;43.48;-245.96;-51.64;248.00;1.31;-7.11;-4.17;-83.71 
1.862;0.44;-0.81;-0.32;44.66;-144.21;61.29;-243.97;-25.82;229.00;0.98;-7.23;-5.36;-83.54 
1.892;0.18;-0.78;-0.30;58.78;-146.78;46.96;-243.97;4.78;202.00;0.85;-7.37;-6.39;-83.24 
1.923;-0.07;-1.12;-0.17;73.67;-156.24;56.07;-243.97;20.08;177.00;1.13;-7.51;-7.43;-82.57 
1.953;-0.32;-1.26;-0.05;69.29;-157.91;73.04;-239.99;46.86;151.00;1.30;-8.41;-9.01;-80.67 
1.983;-0.37;-1.03;0.06;61.98;-161.25;63.03;-236.01;65.99;120.00;1.10;-9.66;-10.51;-78.41 
2.013;-0.32;-0.83;0.18;52.31;-149.84;49.88;-225.05;88.94;78.00;0.91;-10.91;-11.61;-76.29 
2.043;-0.27;-0.73;0.35;49.04;-125.77;27.20;-219.08;98.51;48.00;0.85;-11.90;-12.13;-74.53 
2.073;-0.23;-0.78;0.43;43.27;-94.54;8.56;-222.06;106.16;28.00;0.92;-12.40;-12.04;-73.20 
2.103;-0.30;-0.82;0.49;36.10;-68.24;-2.30;-218.08;105.20;10.00;1.00;-12.50;-11.55;-72.33 
2.134;-0.46;-0.76;0.60;19.06;-42.85;-14.19;-218.08;107.11;-8.00;1.07;-12.40;-10.92;-71.76 
2.164;-0.38;-0.84;0.62;6.54;14.05;-21.98;-218.08;98.51;-13.00;1.11;-12.08;-10.41;-71.56 
2.194;-0.20;-0.91;0.48;-4.17;59.62;-31.79;-223.06;98.51;-7.00;1.05;-11.33;-9.98;-71.89 
2.224;-0.13;-0.90;0.35;-13.22;74.16;-42.78;-226.05;93.72;4.00;0.97;-10.13;-9.35;-72.81 
2.254;-0.09;-1.01;0.22;-18.43;75.90;-48.97;-237.00;84.16;16.00;1.04;-8.51;-8.37;-74.28 
2.284;-0.05;-1.09;0.09;-21.63;67.83;-45.50;-245.96;75.55;29.00;1.09;-6.91;-7.26;-75.94 
2.314;-0.05;-1.00;-0.02;-16.42;59.20;-43.13;-251.94;68.86;42.00;1.00;-5.43;-6.13;-77.61 
2.345;-0.06;-1.00;-0.06;-8.49;42.43;-42.64;-258.91;58.34;56.00;1.00;-3.97;-4.99;-78.89 
2.375;-0.07;-1.01;-0.07;-0.56;26.92;-35.90;-266.88;49.73;61.00;1.01;-2.61;-3.76;-80.10 
2.405;-0.06;-1.02;-0.06;6.75;10.99;-35.55;-268.87;46.86;65.00;1.02;-1.38;-2.59;-80.92 
2.436;-0.02;-1.02;0.01;13.08;-0.28;-33.81;-273.85;37.30;66.00;1.02;-0.08;-1.32;-81.38 
2.466;0.02;-1.04;0.09;15.44;-6.61;-27.62;-278.83;35.39;60.00;1.04;1.12;-0.13;-81.45 
2.496;0.02;-1.06;0.06;16.49;-8.97;-33.74;-281.81;23.91;59.00;1.06;2.28;1.02;-81.25 
2.525;0.05;-1.05;0.18;14.12;-5.70;-29.84;-288.78;20.08;54.00;1.07;3.52;2.25;-80.88 
2.555;0.00;-0.99;0.19;8.00;-3.41;-28.80;-291.77;16.26;51.00;1.01;4.63;3.37;-80.48 
2.585;0.00;-0.98;0.17;4.59;2.09;-30.75;-294.76;11.48;52.00;0.99;5.66;4.40;-80.12 
2.615;0.02;-1.00;0.18;0.97;2.23;-35.20;-302.72;2.87;54.00;1.02;6.75;5.48;-79.74 
2.646;0.03;-0.99;0.13;-0.83;1.67;-37.15;-303.72;-2.87;51.00;1.00;8.00;6.75;-79.23 
2.676;0.11;-1.01;0.14;-0.49;2.23;-42.37;-311.69;-12.43;53.00;1.03;9.42;8.19;-78.52 
2.706;0.18;-1.02;0.14;-0.77;0.14;-38.96;-310.69;-20.08;54.00;1.05;10.79;9.58;-77.67 
2.736;0.22;-1.03;0.12;-0.70;-3.48;-30.82;-317.66;-29.65;53.00;1.06;12.03;10.86;-76.82 
2.766;0.22;-1.04;0.14;-0.49;-2.43;-21.08;-319.65;-31.56;57.00;1.07;13.00;11.88;-76.13 
2.796;0.23;-1.04;0.15;-2.02;-2.85;-12.52;-322.64;-39.21;56.00;1.08;13.66;12.60;-75.67 
2.826;0.24;-1.04;0.17;-0.63;0.07;-5.70;-322.64;-39.21;55.00;1.08;14.08;13.07;-75.39 
2.857;0.21;-1.04;0.13;0.00;0.77;0.63;-324.63;-41.12;53.00;1.07;14.31;13.32;-75.26 
2.887;0.18;-1.00;0.14;1.04;0.77;4.10;-324.63;-39.21;54.00;1.03;14.35;13.40;-75.30 
2.916;0.14;-0.98;0.14;0.90;-0.07;4.38;-324.63;-40.17;57.00;1.00;14.30;13.37;-75.40 
2.947;0.14;-0.99;0.15;-0.56;-0.35;3.48;-323.64;-36.34;56.00;1.01;14.24;13.36;-75.51 
2.977;0.13;-0.97;0.14;-2.23;-1.53;2.23;-322.64;-36.34;55.00;0.99;14.21;13.37;-75.61 
3.007;0.17;-1.00;0.15;-3.48;-1.39;1.32;-319.65;-36.34;54.00;1.03;14.18;13.39;-75.71 
3.037;0.17;-0.99;0.14;-3.27;-0.97;1.60;-322.64;-36.34;57.00;1.01;14.19;13.45;-75.77 
3.067;0.15;-0.99;0.13;-2.50;-1.18;2.23;-320.65;-37.30;55.00;1.01;14.16;13.48;-75.85 
3.097;0.18;-1.03;0.12;-1.46;0.28;4.10;-321.65;-33.47;58.00;1.05;14.12;13.48;-75.93 
3.127;0.16;-1.02;0.08;-0.70;0.70;6.54;-321.65;-31.56;57.00;1.04;14.04;13.43;-76.04 
3.157;0.12;-0.97;0.12;-0.07;0.21;8.00;-318.66;-31.56;58.00;0.98;13.87;13.29;-76.23 
3.187;0.12;-0.97;0.14;-0.90;-1.39;6.75;-321.65;-29.65;56.00;0.99;13.65;13.11;-76.47 
3.217;0.11;-0.98;0.12;-1.46;-0.83;3.27;-319.65;-29.65;53.00;0.99;13.50;13.00;-76.63 
3.247;0.11;-0.99;0.11;-1.25;0.56;0.00;-320.65;-29.65;56.00;1.00;13.45;12.98;-76.71 
3.277;0.14;-1.00;0.12;-1.18;0.21;0.14;-319.65;-30.60;54.00;1.02;13.48;13.04;-76.69 
3.307;0.16;-0.99;0.15;-0.70;0.49;0.90;-318.66;-28.69;57.00;1.01;13.49;13.08;-76.69 
3.336;0.14;-1.00;0.11;-0.21;-0.28;0.77;-320.65;-29.65;54.00;1.02;13.48;13.10;-76.71 
3.365;0.12;-0.99;0.12;0.07;0.14;-0.42;-314.67;-27.73;57.00;1.00;13.47;13.12;-76.71 
3.395;0.14;-1.02;0.11;-0.07;1.32;-0.56;-322.64;-27.73;53.00;1.04;13.50;13.17;-76.69 
3.425;0.12;-1.01;0.13;-0.07;0.97;-0.63;-317.66;-29.65;58.00;1.03;13.54;13.23;-76.65 
3.456;0.14;-1.01;0.12;-0.14;0.42;-0.21;-318.66;-28.69;56.00;1.03;13.57;13.29;-76.62 
3.486;0.14;-1.02;0.10;0.14;0.63;-0.28;-316.67;-27.73;55.00;1.03;13.58;13.33;-76.60 
3.516;0.14;-1.00;0.10;-0.14;0.07;-0.63;-315.67;-27.73;59.00;1.01;13.60;13.36;-76.58 
3.545;0.15;-1.00;0.14;-0.49;0.56;-0.14;-317.66;-28.69;58.00;1.02;13.62;13.41;-76.55 
3.575;0.16;-1.01;0.15;-0.70;-0.14;0.49;-320.65;-31.56;60.00;1.03;13.63;13.44;-76.52 
3.605;0.14;-1.01;0.11;-0.97;0.00;0.77;-313.68;-31.56;58.00;1.03;13.60;13.44;-76.53 
3.635;0.15;-1.01;0.12;-0.97;0.07;1.11;-321.65;-27.73;58.00;1.03;13.56;13.43;-76.56 
3.666;0.14;-1.02;0.11;-0.49;-0.21;1.04;-318.66;-27.73;57.00;1.04;13.53;13.43;-76.57 
3.696;0.15;-1.02;0.11;-0.56;0.42;1.46;-318.66;-27.73;59.00;1.04;13.49;13.41;-76.59 
3.726;0.14;-1.01;0.12;-0.70;0.77;1.74;-319.65;-27.73;55.00;1.03;13.45;13.38;-76.62 
3.756;0.15;-1.01;0.08;-0.28;0.56;1.39;-319.65;-27.73;60.00;1.02;13.38;13.34;-76.66 
3.785;0.15;-1.01;0.10;-0.49;0.21;0.97;-317.66;-24.87;56.00;1.03;13.33;13.31;-76.69 
3.815;0.14;-1.01;0.10;-0.49;-0.21;1.46;-319.65;-30.60;60.00;1.02;13.30;13.29;-76.70 
3.845;0.14;-0.99;0.11;-0.83;0.35;0.90;-317.66;-24.87;59.00;1.01;13.26;13.28;-76.71 
3.875;0.10;-1.00;0.12;-0.56;0.63;0.49;-316.67;-28.69;58.00;1.01;13.20;13.24;-76.75 
3.905;0.14;-1.00;0.14;-0.14;0.49;0.21;-317.66;-26.78;56.00;1.02;13.17;13.22;-76.76 
3.935;0.13;-1.00;0.11;0.00;0.42;-0.28;-318.66;-29.65;58.00;1.01;13.16;13.23;-76.75 
3.966;0.14;-1.00;0.14;-0.21;0.56;-0.07;-317.66;-26.78;58.00;1.02;13.16;13.24;-76.74 
3.996;0.14;-0.98;0.11;-0.42;0.21;-0.97;-318.66;-25.82;56.00;1.00;13.11;13.21;-76.75 
4.025;0.18;-1.02;0.11;-0.70;0.49;-0.70;-318.66;-23.91;56.00;1.04;13.13;13.24;-76.72 
4.056;0.17;-1.02;0.12;-0.90;0.83;0.77;-319.65;-27.73;56.00;1.04;13.15;13.28;-76.67 
4.086;0.14;-0.99;0.12;-0.83;0.07;0.83;-316.67;-24.87;59.00;1.01;13.12;13.27;-76.67 
4.116;0.15;-1.01;0.15;-0.49;0.21;1.39;-317.66;-27.73;57.00;1.03;13.07;13.24;-76.68 
4.146;0.13;-0.98;0.17;-0.83;0.90;1.81;-317.66;-28.69;58.00;1.00;13.00;13.19;-76.73 
4.176;0.13;-1.01;0.12;-0.63;0.90;1.25;-317.66;-26.78;58.00;1.03;12.94;13.13;-76.77 
4.206;0.14;-1.01;0.15;-0.63;0.56;1.81;-316.67;-24.87;61.00;1.03;12.86;13.07;-76.82 
4.236;0.13;-0.99;0.12;-0.97;0.42;2.23;-315.67;-27.73;60.00;1.01;12.79;13.02;-76.87 
4.266;0.10;-1.01;0.12;-1.46;0.90;2.23;-315.67;-24.87;60.00;1.02;12.70;12.94;-76.93 
4.295;0.12;-0.99;0.11;-0.63;1.11;1.53;-314.67;-24.87;57.00;1.00;12.61;12.86;-77.00 
4.325;0.13;-1.02;0.11;-0.63;0.35;0.63;-314.67;-22.00;62.00;1.03;12.54;12.81;-77.04 
4.356;0.14;-0.99;0.08;-1.11;0.28;0.90;-318.66;-24.87;63.00;1.00;12.49;12.77;-77.06 
4.386;0.14;-1.00;0.10;-1.11;0.63;0.63;-318.66;-26.78;58.00;1.01;12.44;12.73;-77.07 
4.416;0.15;-1.01;0.12;-0.77;1.18;0.21;-314.67;-23.91;64.00;1.03;12.39;12.70;-77.09 
4.446;0.14;-1.00;0.12;-0.28;1.53;0.49;-312.68;-27.73;59.00;1.02;12.36;12.68;-77.10 
4.477;0.14;-1.00;0.11;0.07;1.11;1.18;-315.67;-22.95;57.00;1.02;12.31;12.64;-77.13 
4.507;0.18;-0.98;0.15;-0.35;0.97;1.11;-315.67;-22.00;60.00;1.01;12.26;12.60;-77.16 
4.537;0.11;-0.98;0.13;-0.35;0.83;0.63;-317.66;-24.87;59.00;0.99;12.21;12.57;-77.18 
4.567;0.12;-1.02;0.14;-0.42;1.46;-0.14;-314.67;-23.91;62.00;1.04;12.18;12.55;-77.18 
4.596;0.14;-1.01;0.11;-0.49;0.77;-0.14;-318.66;-22.00;58.00;1.03;12.17;12.54;-77.18 
4.626;0.12;-1.02;0.13;-0.83;0.56;0.56;-316.67;-20.08;56.00;1.04;12.15;12.53;-77.19 
4.656;0.14;-1.01;0.13;-0.90;0.63;1.04;-316.67;-22.00;58.00;1.03;12.10;12.49;-77.21 
4.686;0.13;-1.00;0.14;-0.77;0.83;0.97;-316.67;-22.00;59.00;1.02;12.04;12.44;-77.24 
4.716;0.13;-0.99;0.13;-0.63;1.25;1.53;-310.69;-26.78;59.00;1.01;11.99;12.40;-77.27 
4.746;0.13;-1.02;0.11;-0.63;0.83;2.09;-314.67;-22.95;62.00;1.03;11.91;12.34;-77.32 
4.777;0.13;-1.00;0.12;-0.77;0.63;2.37;-315.67;-21.04;59.00;1.02;11.80;12.24;-77.40 
4.807;0.12;-1.01;0.10;-1.11;0.83;2.02;-312.68;-18.17;63.00;1.02;11.70;12.14;-77.49 
4.837;0.12;-0.98;0.10;-1.11;1.04;1.74;-314.67;-17.21;58.00;0.99;11.61;12.07;-77.54 
4.867;0.11;-1.01;0.13;-0.42;0.49;1.11;-313.68;-19.13;61.00;1.02;11.55;12.01;-77.59 
4.897;0.14;-1.02;0.10;-0.97;0.49;2.23;-313.68;-19.13;60.00;1.03;11.46;11.93;-77.65 
4.927;0.11;-1.01;0.13;-1.81;0.28;2.85;-313.68;-22.95;63.00;1.02;11.37;11.85;-77.71 
4.957;0.09;-1.02;0.10;-1.74;0.83;2.78;-309.70;-20.08;60.00;1.03;11.26;11.76;-77.77 
4.987;0.10;-1.01;0.10;-0.97;2.43;2.50;-311.69;-18.17;61.00;1.02;11.17;11.68;-77.83 
5.017;0.11;-1.02;0.10;-0.28;1.53;2.02;-307.70;-19.13;60.00;1.03;11.08;11.61;-77.89 
5.047;0.11;-1.01;0.08;0.07;0.70;2.16;-312.68;-18.17;63.00;1.02;10.99;11.53;-77.94 
5.078;0.10;-1.02;0.12;-0.42;0.56;2.43;-312.68;-17.21;59.00;1.03;10.90;11.44;-78.02 
5.107;0.10;-0.99;0.14;-0.56;1.04;1.67;-312.68;-19.13;63.00;1.00;10.80;11.35;-78.10 
5.137;0.10;-1.01;0.10;-0.97;1.25;0.63;-311.69;-15.30;59.00;1.02;10.74;11.30;-78.14 
5.167;0.12;-1.01;0.09;-0.63;0.56;0.77;-310.69;-16.26;63.00;1.02;10.69;11.26;-78.16 
5.197;0.10;-1.03;0.10;-0.28;0.14;0.14;-309.70;-15.30;61.00;1.04;10.63;11.21;-78.19 
5.227;0.10;-1.02;0.12;0.07;0.56;-0.49;-310.69;-15.30;63.00;1.03;10.60;11.18;-78.20 
5.257;0.12;-1.02;0.08;0.00;0.42;-0.70;-314.67;-17.21;61.00;1.03;10.60;11.19;-78.18 
5.288;0.09;-1.00;0.10;0.00;0.90;-0.70;-310.69;-17.21;65.00;1.01;10.59;11.19;-78.17 
5.318;0.10;-0.98;0.09;0.07;0.21;-1.04;-314.67;-18.17;62.00;0.99;10.60;11.20;-78.16 
5.348;0.11;-1.02;0.12;0.00;0.07;-1.39;-312.68;-16.26;62.00;1.03;10.62;11.22;-78.13 
5.379;0.10;-0.99;0.10;0.00;0.63;-0.83;-310.69;-16.26;60.00;1.00;10.63;11.24;-78.11 
5.409;0.10;-1.02;0.11;-0.49;0.28;-0.97;-311.69;-17.21;62.00;1.03;10.61;11.22;-78.12 
5.439;0.10;-0.99;0.10;0.49;1.39;-1.60;-312.68;-20.08;60.00;1.00;10.62;11.23;-78.11 
5.469;0.10;-1.01;0.11;0.56;0.42;-0.90;-311.69;-17.21;62.00;1.02;10.64;11.25;-78.09 
5.498;0.10;-1.00;0.11;-0.14;-0.63;0.21;-312.68;-18.17;62.00;1.01;10.61;11.22;-78.11 
5.528;0.10;-1.00;0.13;-0.77;0.07;-0.14;-311.69;-19.13;60.00;1.01;10.59;11.20;-78.13 
5.558;0.10;-1.02;0.07;-0.14;1.25;-0.70;-310.69;-19.13;62.00;1.03;10.56;11.19;-78.13 
5.589;0.13;-1.01;0.09;0.70;1.25;-0.07;-312.68;-16.26;61.00;1.02;10.56;11.19;-78.12 
5.619;0.09;-1.02;0.13;0.70;0.21;0.90;-311.69;-20.08;62.00;1.03;10.54;11.17;-78.15 
5.649;0.10;-1.00;0.12;0.35;0.21;0.77;-314.67;-18.17;64.00;1.01;10.49;11.12;-78.19 
5.679;0.07;-0.99;0.12;-0.07;0.70;-0.07;-313.68;-17.21;58.00;1.00;10.46;11.09;-78.22 
5.708;0.12;-1.02;0.12;0.28;0.97;-0.28;-312.68;-17.21;60.00;1.03;10.45;11.08;-78.23 
5.738;0.10;-0.98;0.10;0.28;0.49;0.07;-314.67;-21.04;63.00;0.99;10.45;11.08;-78.23 
5.768;0.10;-1.00;0.11;0.28;-0.28;-0.42;-311.69;-19.13;63.00;1.01;10.42;11.06;-78.26 
5.799;0.10;-1.00;0.14;-0.14;0.14;-0.90;-313.68;-17.21;63.00;1.01;10.42;11.05;-78.27 
5.829;0.13;-1.02;0.10;-0.35;0.77;-0.42;-312.68;-19.13;62.00;1.03;10.43;11.06;-78.26 
5.859;0.10;-0.97;0.08;0.00;-0.21;-0.21;-313.68;-20.08;64.00;0.98;10.39;11.03;-78.27 
5.890;0.13;-0.98;0.11;0.21;-0.14;-0.63;-310.69;-19.13;60.00;0.99;10.39;11.03;-78.27 
5.919;0.11;-1.02;0.11;-0.14;0.77;-0.42;-315.67;-20.08;61.00;1.03;10.39;11.03;-78.27 
5.949;0.10;-1.00;0.10;-0.49;0.21;-0.14;-311.69;-19.13;58.00;1.01;10.38;11.02;-78.26 
5.979;0.13;-1.02;0.12;0.00;0.28;-0.70;-310.69;-18.17;63.00;1.04;10.36;11.01;-78.27 
6.009;0.12;-1.01;0.10;0.28;0.83;-0.28;-315.67;-16.26;63.00;1.02;10.36;11.00;-78.29 
6.039;0.12;-1.01;0.11;-0.14;0.07;0.07;-309.70;-19.13;60.00;1.02;10.35;11.00;-78.29 
6.069;0.10;-1.02;0.13;0.49;0.42;-0.14;-311.69;-21.04;63.00;1.03;10.33;10.97;-78.32 
6.100;0.12;-1.02;0.10;0.07;0.14;-0.14;-316.67;-22.00;59.00;1.03;10.31;10.96;-78.34 
6.129;0.11;-1.01;0.07;-0.42;-0.49;0.77;-311.69;-19.13;60.00;1.02;10.30;10.95;-78.35 
6.159;0.11;-1.02;0.12;-0.77;-0.42;0.97;-315.67;-16.26;62.00;1.03;10.25;10.90;-78.38 
6.190;0.10;-1.02;0.13;-0.56;0.70;0.21;-317.66;-15.30;59.00;1.03;10.22;10.87;-78.41 
6.220;0.13;-1.00;0.10;0.21;1.32;0.00;-312.68;-17.21;61.00;1.01;10.18;10.82;-78.45 
6.250;0.14;-1.02;0.10;0.56;0.14;0.49;-312.68;-18.17;64.00;1.03;10.16;10.81;-78.47 
6.280;0.09;-0.99;0.10;0.56;-0.07;0.63;-312.68;-17.21;63.00;1.00;10.14;10.79;-78.49 
6.311;0.10;-1.01;0.10;0.07;0.42;-0.77;-317.66;-15.30;63.00;1.02;10.13;10.77;-78.52 
6.341;0.13;-1.02;0.13;-0.07;0.77;-1.04;-310.69;-19.13;62.00;1.04;10.14;10.79;-78.50 
6.370;0.11;-1.01;0.12;0.00;0.35;-1.11;-313.68;-22.00;60.00;1.02;10.16;10.81;-78.48 
6.401;0.13;-1.01;0.11;0.28;-0.28;-0.56;-312.68;-19.13;62.00;1.02;10.17;10.81;-78.49 
6.431;0.10;-1.01;0.13;0.14;0.21;-0.63;-311.69;-17.21;59.00;1.02;10.17;10.81;-78.49 
6.461;0.12;-1.02;0.13;0.21;0.07;-1.18;-310.69;-18.17;58.00;1.04;10.18;10.82;-78.49 
6.491;0.10;-1.01;0.10;0.14;0.63;-0.90;-309.70;-17.21;62.00;1.02;10.20;10.83;-78.48 
6.521;0.10;-0.98;0.11;0.28;0.49;-0.70;-315.67;-18.17;62.00;0.99;10.19;10.83;-78.47 
6.551;0.12;-1.00;0.14;0.14;-0.21;-0.83;-314.67;-20.08;62.00;1.02;10.18;10.82;-78.48 
6.581;0.10;-1.00;0.10;-0.07;0.07;-0.28;-314.67;-20.08;61.00;1.01;10.20;10.83;-78.48 
6.611;0.15;-1.02;0.14;-0.07;0.77;-0.42;-312.68;-20.08;59.00;1.04;10.20;10.83;-78.49 
6.641;0.13;-0.99;0.08;-0.21;0.07;-0.21;-314.67;-18.17;61.00;1.00;10.19;10.82;-78.50 
6.671;0.11;-1.02;0.10;0.14;0.07;-0.70;-313.68;-18.17;60.00;1.03;10.17;10.81;-78.51 
6.702;0.14;-1.02;0.14;0.00;0.42;-0.70;-312.68;-20.08;57.00;1.04;10.19;10.83;-78.50 
6.732;0.12;-1.00;0.14;0.07;0.28;-0.63;-311.69;-22.00;62.00;1.02;10.17;10.80;-78.52 
6.762;0.12;-1.00;0.14;0.07;0.28;-0.90;-315.67;-21.04;64.00;1.02;10.17;10.80;-78.53 
6.791;0.10;-0.98;0.10;-0.07;0.90;-0.77;-313.68;-22.00;56.00;0.99;10.18;10.80;-78.53 
6.821;0.14;-1.02;0.10;0.56;0.42;-0.56;-313.68;-18.17;60.00;1.03;10.19;10.81;-78.53 
6.851;0.10;-0.98;0.13;0.00;-0.14;-0.83;-313.68;-20.08;58.00;0.99;10.20;10.82;-78.53 
6.881;0.13;-1.02;0.14;-0.21;0.07;-1.18;-314.67;-22.95;61.00;1.04;10.21;10.83;-78.52 
6.912;0.10;-1.01;0.14;-0.56;0.63;-0.77;-315.67;-22.00;62.00;1.02;10.23;10.85;-78.51 
6.942;0.10;-0.98;0.11;-0.14;0.90;-0.07;-314.67;-21.04;59.00;0.99;10.24;10.86;-78.49 
6.972;0.12;-1.00;0.13;0.63;0.14;0.42;-313.68;-22.00;61.00;1.02;10.24;10.86;-78.50 
7.001;0.11;-0.99;0.10;0.56;0.63;-0.21;-314.67;-22.00;56.00;1.00;10.25;10.86;-78.51 
7.030;0.11;-1.01;0.13;0.00;0.35;-0.56;-313.68;-22.00;58.00;1.02;10.25;10.86;-78.53 
7.060;0.13;-1.01;0.10;-0.56;0.42;-0.70;-313.68;-22.95;61.00;1.02;10.24;10.86;-78.52 
7.090;0.11;-1.01;0.13;-0.63;0.77;-0.77;-313.68;-22.95;61.00;1.02;10.26;10.87;-78.52 
7.120;0.14;-1.02;0.13;-0.07;0.21;-0.56;-314.67;-21.04;60.00;1.04;10.27;10.89;-78.50 
7.150;0.14;-1.00;0.12;-0.35;-0.28;0.21;-309.70;-19.13;58.00;1.02;10.26;10.87;-78.52 
7.180;0.11;-1.00;0.13;-0.21;0.83;0.00;-314.67;-21.04;62.00;1.01;10.25;10.86;-78.53 
7.211;0.13;-1.00;0.15;-0.28;0.56;0.35;-315.67;-22.00;60.00;1.02;10.21;10.82;-78.58 
7.240;0.14;-1.02;0.14;-0.49;0.35;-0.14;-313.68;-20.08;60.00;1.04;10.21;10.82;-78.58 
7.269;0.08;-1.02;0.08;-0.35;0.63;-0.21;-315.67;-22.95;61.00;1.03;10.21;10.81;-78.59 
7.300;0.12;-1.00;0.12;0.14;0.70;-0.35;-313.68;-21.04;59.00;1.01;10.20;10.81;-78.60 
7.330;0.13;-1.01;0.14;-0.07;0.56;-0.28;-316.67;-20.08;58.00;1.03;10.20;10.80;-78.61 
7.360;0.14;-1.02;0.14;-0.14;1.11;-0.21;-315.67;-21.04;62.00;1.04;10.22;10.82;-78.59 
7.390;0.13;-1.02;0.13;-0.35;0.56;0.49;-315.67;-19.13;59.00;1.04;10.21;10.82;-78.60 
7.421;0.13;-1.01;0.13;-0.63;0.21;0.56;-314.67;-23.91;61.00;1.03;10.18;10.79;-78.64 
7.451;0.14;-1.01;0.14;-0.77;0.63;0.42;-313.68;-20.08;57.00;1.03;10.16;10.76;-78.66 
7.481;0.13;-1.00;0.13;-0.28;0.90;0.70;-313.68;-22.00;60.00;1.02;10.14;10.74;-78.68 
7.512;0.10;-0.99;0.09;-0.70;0.70;0.97;-312.68;-22.00;58.00;1.00;10.12;10.72;-78.71 
7.541;0.13;-1.02;0.12;-0.77;0.21;0.63;-312.68;-20.08;61.00;1.04;10.06;10.66;-78.76 
7.570;0.10;-1.00;0.11;-0.49;0.97;0.83;-309.70;-21.04;61.00;1.01;10.03;10.64;-78.78 
7.600;0.14;-1.02;0.12;-0.07;0.83;1.11;-313.68;-21.04;60.00;1.04;9.99;10.60;-78.82 
7.630;0.15;-0.99;0.14;-0.97;0.14;1.95;-315.67;-18.17;60.00;1.01;9.93;10.54;-78.87 
7.660;0.13;-1.01;0.14;-1.32;0.28;2.23;-311.69;-19.13;61.00;1.03;9.87;10.48;-78.93 
7.690;0.10;-1.01;0.11;-1.60;1.11;1.95;-313.68;-19.13;55.00;1.02;9.78;10.40;-79.00 
7.721;0.13;-1.01;0.12;-0.90;1.74;1.88;-313.68;-20.08;62.00;1.03;9.72;10.34;-79.06 
7.751;0.11;-1.01;0.14;-0.28;1.39;2.16;-312.68;-18.17;60.00;1.03;9.65;10.28;-79.10 
7.780;0.10;-1.01;0.10;-0.21;0.77;1.60;-312.68;-18.17;62.00;1.02;9.59;10.22;-79.16 
7.811;0.10;-1.00;0.13;-0.42;1.18;1.11;-311.69;-19.13;58.00;1.01;9.52;10.15;-79.24 
7.841;0.09;-1.02;0.10;-0.35;2.02;0.21;-311.69;-17.21;61.00;1.03;9.47;10.11;-79.28 
7.871;0.11;-1.02;0.08;0.07;1.25;-0.14;-310.69;-19.13;62.00;1.03;9.45;10.09;-79.30 
7.901;0.10;-1.02;0.10;-0.35;1.25;0.07;-312.68;-19.13;62.00;1.03;9.45;10.08;-79.31 
7.931;0.12;-1.02;0.14;-0.70;0.97;0.35;-312.68;-18.17;62.00;1.04;9.45;10.08;-79.32 
7.961;0.10;-0.99;0.11;-0.56;1.18;0.83;-309.70;-19.13;65.00;1.00;9.41;10.05;-79.35 
7.991;0.11;-1.02;0.12;-0.63;1.46;0.90;-310.69;-15.30;61.00;1.03;9.38;10.02;-79.39 
8.022;0.10;-1.02;0.10;-0.28;1.46;0.70;-310.69;-16.26;64.00;1.03;9.35;9.99;-79.41 
8.052;0.11;-1.01;0.10;-0.35;1.39;0.14;-312.68;-19.13;62.00;1.02;9.34;9.98;-79.43 
8.081;0.10;-1.01;0.11;-0.35;0.63;0.21;-310.69;-13.39;61.00;1.02;9.34;9.98;-79.43 
8.111;0.10;-1.01;0.10;-0.35;1.04;0.21;-315.67;-15.30;62.00;1.02;9.31;9.95;-79.46 
8.141;0.10;-1.00;0.11;-0.42;0.97;0.90;-313.68;-17.21;61.00;1.01;9.29;9.93;-79.48 
8.171;0.11;-1.00;0.10;-0.35;0.97;1.11;-311.69;-18.17;57.00;1.01;9.26;9.90;-79.52 
8.200;0.10;-1.02;0.12;-0.42;0.90;1.25;-312.68;-17.21;62.00;1.03;9.21;9.85;-79.56 
8.231;0.11;-1.01;0.10;-0.42;0.90;1.25;-308.70;-15.30;64.00;1.02;9.20;9.83;-79.59 
8.261;0.12;-1.02;0.10;-0.70;0.70;1.60;-310.69;-16.26;63.00;1.03;9.15;9.79;-79.62 
8.291;0.08;-0.98;0.11;-0.90;1.18;1.60;-310.69;-13.39;63.00;0.99;9.09;9.74;-79.67 
8.321;0.10;-1.00;0.10;-0.28;1.60;1.46;-309.70;-16.26;63.00;1.01;9.03;9.68;-79.73 
8.351;0.11;-1.02;0.11;-0.14;0.63;1.18;-315.67;-12.43;62.00;1.03;8.99;9.64;-79.77 
8.381;0.11;-1.02;0.11;-1.04;-0.07;2.50;-311.69;-11.48;62.00;1.03;8.93;9.59;-79.81 
8.411;0.10;-1.01;0.14;-1.74;0.90;2.50;-309.70;-13.39;61.00;1.02;8.86;9.52;-79.87 
8.441;0.10;-1.02;0.09;-1.32;1.60;2.09;-311.69;-14.35;61.00;1.03;8.77;9.44;-79.94 
8.471;0.10;-1.01;0.10;-0.63;2.50;1.74;-307.70;-13.39;64.00;1.02;8.72;9.39;-79.98 
8.501;0.10;-1.02;0.10;0.07;1.81;2.02;-308.70;-13.39;60.00;1.03;8.64;9.32;-80.05 
8.532;0.10;-1.01;0.13;0.35;0.63;1.81;-308.70;-12.43;64.00;1.02;8.56;9.24;-80.13 
8.561;0.10;-1.02;0.11;0.00;1.39;0.97;-311.69;-12.43;60.00;1.03;8.50;9.18;-80.20 
8.591;0.08;-0.99;0.11;0.14;2.09;0.21;-307.70;-13.39;63.00;1.00;8.49;9.16;-80.23 
8.622;0.12;-0.98;0.11;-0.07;0.97;0.42;-310.69;-10.52;63.00;0.99;8.50;9.17;-80.22 
8.652;0.08;-1.00;0.10;-0.49;-0.07;0.21;-308.70;-12.43;63.00;1.01;8.47;9.14;-80.25 
8.681;0.09;-1.01;0.10;-0.28;0.42;-0.14;-311.69;-9.56;61.00;1.02;8.46;9.13;-80.27 
8.711;0.08;-1.02;0.10;-0.28;0.42;-0.70;-311.69;-13.39;65.00;1.03;8.46;9.12;-80.28 
8.741;0.09;-1.02;0.11;-0.07;0.35;-0.49;-309.70;-14.35;65.00;1.03;8.48;9.14;-80.27 
8.771;0.10;-1.01;0.10;0.07;0.42;-0.42;-310.69;-11.48;66.00;1.02;8.48;9.14;-80.28 
8.800;0.10;-1.04;0.10;0.00;0.07;-0.49;-306.71;-12.43;65.00;1.05;8.50;9.15;-80.29 
8.831;0.10;-1.01;0.11;0.21;0.35;-1.11;-307.70;-14.35;62.00;1.02;8.53;9.18;-80.27 
8.861;0.10;-1.00;0.11;0.00;0.14;-0.63;-307.70;-11.48;64.00;1.01;8.57;9.21;-80.25 
8.890;0.11;-1.02;0.07;-0.14;0.21;-0.56;-308.70;-14.35;63.00;1.03;8.60;9.23;-80.24 
8.921;0.07;-1.03;0.10;-0.42;0.00;-0.49;-309.70;-12.43;62.00;1.04;8.61;9.24;-80.24 
8.951;0.10;-1.02;0.11;-1.32;-1.88;-0.70;-309.70;-13.39;64.00;1.03;8.62;9.26;-80.21 
8.981;0.10;-1.00;0.11;-2.37;-1.39;0.21;-307.70;-14.35;62.00;1.01;8.63;9.27;-80.18 
9.011;0.10;-1.00;0.09;0.21;5.29;-0.35;-309.70;-13.39;63.00;1.01;8.64;9.29;-80.16 
9.042;0.10;-1.02;0.10;2.85;8.00;1.32;-313.68;-11.48;63.00;1.03;8.64;9.29;-80.19 
9.072;0.04;-1.00;0.05;5.22;6.05;-0.90;-306.71;-12.43;61.00;1.00;8.64;9.27;-80.25 
9.102;0.06;-1.00;0.10;5.77;2.02;-3.06;-312.68;-13.39;62.00;1.01;8.70;9.30;-80.28 
9.132;0.07;-0.98;0.18;3.27;1.46;-4.38;-311.69;-15.30;64.00;1.00;8.83;9.39;-80.24 
9.162;0.02;-0.96;0.14;3.06;7.51;-7.17;-309.70;-16.26;63.00;0.97;9.01;9.53;-80.15 
9.192;0.05;-0.98;0.07;5.01;7.17;-13.08;-314.67;-20.08;61.00;0.98;9.27;9.77;-79.95 
