Time(s) acc_x(g) acc_y(g) acc_z(g) gyr_x(°/s) gyr_y(°/s) gyr_z(°/s) mag_x(G) mag_y(G) mag_z(G) SVM(g) yaw(°) pitch(°) roll(°)
0.000;0.21;0.26;0.95;31.44;-15.79;-166.33;296.02;-134.37;-348.00;1.01;-82.25;1.49;19.46 
0.031;0.22;0.26;0.86;31.03;1.60;-162.02;276.09;-122.93;-348.00;0.92;-77.28;0.54;20.46 
0.061;0.04;0.26;0.72;27.20;-0.42;-157.29;266.12;-111.50;-343.00;0.77;-72.55;-0.74;21.34 
0.090;0.00;0.27;0.70;18.64;-5.98;-156.73;259.14;-110.54;-342.00;0.75;-68.15;-1.84;21.91 
0.119;0.05;0.22;0.68;13.50;6.47;-162.37;224.26;-90.53;-335.00;0.72;-63.69;-3.05;22.11 
0.148;0.10;0.14;0.58;26.02;27.20;-165.84;206.32;-85.77;-331.00;0.60;-59.15;-4.68;22.20 
0.178;-0.14;0.12;0.38;40.28;18.16;-152.77;185.39;-76.24;-325.00;0.42;-54.75;-6.67;22.63 
0.207;-0.22;0.03;0.63;34.30;-5.57;-140.80;172.43;-69.57;-320.00;0.67;-50.38;-8.18;23.00 
0.237;-0.17;-0.14;0.66;25.11;8.35;-122.57;155.49;-68.61;-320.00;0.70;-46.40;-9.28;22.75 
0.266;-0.22;0.03;0.53;34.50;20.10;-93.98;138.54;-64.80;-313.00;0.57;-43.29;-10.45;22.49 
0.295;-0.30;0.22;0.44;37.22;8.35;-88.07;131.56;-61.94;-311.00;0.58;-40.70;-11.50;22.78 
0.325;-0.21;0.35;0.42;42.64;-5.22;-86.75;123.59;-61.94;-311.00;0.59;-37.98;-12.12;23.37 
0.354;-0.19;0.27;0.38;56.07;-12.24;-89.25;117.61;-61.94;-312.00;0.50;-34.99;-12.44;24.21 
0.384;-0.11;0.16;0.42;58.64;-34.37;-75.97;112.63;-61.94;-309.00;0.46;-32.05;-12.34;25.18 
0.415;-0.09;0.14;0.63;48.97;-54.40;-51.20;108.64;-72.43;-317.00;0.65;-29.47;-11.20;26.10 
0.445;-0.04;0.22;0.78;35.62;-23.79;-34.37;108.64;-76.24;-318.00;0.81;-27.80;-9.78;26.76 
0.475;-0.02;0.34;0.58;31.86;9.53;-34.37;108.64;-78.14;-318.00;0.67;-26.78;-9.30;27.40 
0.505;-0.08;0.42;0.41;10.64;9.60;-49.88;104.65;-75.28;-319.00;0.59;-25.67;-9.32;27.84 
0.536;-0.21;0.38;0.37;-9.74;7.30;-59.41;94.69;-73.38;-315.00;0.57;-24.33;-9.66;27.66 
0.566;-0.08;0.29;0.27;-38.82;-7.30;-50.37;83.72;-76.24;-308.00;0.40;-23.13;-9.94;26.66 
0.596;-0.08;0.39;0.28;-69.08;-23.37;-44.59;70.77;-75.28;-308.00;0.49;-22.46;-9.40;25.03 
0.627;-0.34;0.29;0.35;-110.26;-45.50;-50.78;51.83;-79.10;-306.00;0.57;-21.96;-8.53;22.25 
0.657;-0.40;0.35;0.26;-147.69;-68.17;-43.20;6.98;-90.53;-302.00;0.59;-21.51;-7.06;18.21 
0.687;-0.67;0.00;0.14;-193.11;-92.03;-44.94;-28.90;-105.78;-302.00;0.68;-20.94;-5.02;13.02 
0.717;-0.46;-0.06;-0.26;-216.90;-121.81;-33.11;-71.76;-116.26;-294.00;0.53;-20.45;-2.40;6.52 
0.747;0.00;-0.66;-0.04;-233.81;-342.68;-124.03;-110.63;-140.09;-281.00;0.66;-18.96;3.82;-0.99 
0.777;1.38;-2.27;4.90;67.34;-963.76;-39.72;-180.40;-283.99;-302.00;5.57;-14.47;24.90;-5.96 
0.807;6.51;-2.82;5.50;217.60;-145.95;8.14;-144.52;-397.39;-335.00;8.98;-21.48;46.57;-0.60 
0.837;2.06;0.42;2.39;-291.41;1027.97;245.63;-135.55;-333.54;-348.00;3.18;-23.32;34.91;-4.66 
0.867;-0.04;1.25;-0.95;-538.16;384.83;-31.10;-183.39;-183.92;-263.00;1.57;-17.64;16.78;-18.39 
0.897;1.18;1.63;-1.04;-400.97;91.13;-36.03;-268.11;-147.71;-116.00;2.27;-10.40;11.70;-32.64 
0.926;0.19;-0.39;-1.12;-166.61;-112.77;-152.00;-297.02;-168.68;-72.00;1.20;-3.96;14.38;-39.30 
0.956;0.19;-1.53;-0.09;-161.88;-154.71;-44.52;-313.96;-188.69;-54.00;1.54;1.35;19.76;-44.15 
0.986;1.81;-1.55;0.50;-204.87;-172.87;-161.32;-329.91;-208.70;-36.00;2.43;8.28;25.92;-46.81 
1.016;2.11;-2.64;0.15;-187.83;-158.19;11.76;-339.87;-225.85;-17.00;3.38;16.70;31.59;-49.02 
1.046;0.26;-1.18;-0.18;-181.63;-161.60;156.59;-341.87;-222.04;35.00;1.22;19.72;31.03;-54.77 
1.076;-0.32;-1.17;-0.50;-155.62;-88.07;-24.83;-333.89;-202.03;61.00;1.31;23.24;29.76;-59.02 
1.106;0.79;-1.48;-0.66;-98.02;-80.56;-7.65;-333.89;-205.84;82.00;1.80;28.44;30.40;-59.49 
1.137;0.67;-1.42;-0.07;-72.83;-131.34;41.95;-332.90;-202.98;92.00;1.57;32.21;29.93;-59.97 
1.167;0.12;-0.96;0.35;-70.40;-70.19;49.18;-319.94;-184.88;98.00;1.03;34.66;28.02;-61.17 
1.197;-0.05;-0.78;0.29;-24.35;24.49;16.42;-315.95;-177.25;106.00;0.83;35.13;26.68;-62.00 
1.226;0.24;-0.72;0.00;-30.75;79.65;20.45;-311.97;-178.21;112.00;0.76;34.06;26.05;-62.61 
1.255;0.34;-0.56;-0.50;-64.56;84.52;35.83;-308.98;-176.30;125.00;0.82;33.54;25.40;-62.93 
1.285;0.24;-0.69;-1.09;-53.22;56.83;38.96;-305.99;-178.21;139.00;1.31;33.44;24.80;-62.94 
1.315;0.23;-1.01;-1.02;-37.91;-33.88;50.23;-290.04;-169.63;154.00;1.45;33.74;23.53;-63.06 
1.345;0.20;-1.17;-0.40;-8.90;-31.86;45.77;-288.05;-159.15;155.00;1.25;33.53;21.53;-63.89 
1.375;0.33;-1.28;-0.48;-3.83;10.78;41.32;-281.07;-147.71;158.00;1.41;32.82;20.06;-64.65 
1.405;0.25;-1.33;-0.70;18.16;18.64;52.31;-278.08;-141.99;154.00;1.52;31.60;18.80;-65.50 
1.436;0.38;-1.09;-0.54;32.49;-8.28;71.37;-266.12;-126.75;152.00;1.27;29.53;16.89;-67.12 
1.466;-0.10;-0.81;-0.30;41.67;-14.12;63.10;-261.14;-118.17;141.00;0.87;27.09;14.44;-69.22 
1.496;-0.09;-0.83;-0.06;47.79;17.53;46.75;-254.16;-107.69;133.00;0.84;24.53;12.56;-71.27 
1.525;-0.11;-0.83;-0.10;20.73;23.37;36.17;-258.15;-102.92;130.00;0.84;22.37;11.37;-72.82 
1.555;-0.07;-0.97;-0.17;3.06;17.11;25.81;-248.18;-97.20;128.00;0.99;21.22;10.37;-73.51 
1.585;-0.02;-1.08;-0.27;10.71;30.82;22.54;-244.19;-94.34;131.00;1.11;20.52;9.83;-73.78 
1.615;-0.06;-1.06;-0.36;21.08;23.86;30.19;-239.21;-90.53;129.00;1.12;19.59;9.34;-74.25 
1.645;-0.18;-1.03;-0.29;26.50;10.09;28.59;-239.21;-88.63;133.00;1.09;18.42;8.49;-74.98 
1.675;-0.31;-0.87;-0.22;22.12;3.76;12.17;-239.21;-84.81;124.00;0.95;17.39;7.72;-75.68 
1.705;-0.26;-0.83;-0.11;19.55;13.36;-9.81;-237.21;-83.86;123.00;0.88;17.04;7.50;-75.96 
1.736;-0.15;-0.98;-0.16;18.64;32.70;-21.43;-242.20;-88.63;122.00;1.00;17.14;7.99;-75.94 
1.766;0.00;-1.02;-0.22;14.05;30.47;-21.29;-242.20;-92.44;120.00;1.04;17.56;8.82;-75.62 
1.796;0.06;-1.08;-0.21;3.62;5.98;-12.94;-248.18;-95.30;128.00;1.10;18.22;9.57;-75.11 
1.826;0.02;-1.07;-0.19;0.21;0.07;-9.32;-251.17;-97.20;126.00;1.09;18.92;9.95;-74.56 
1.856;0.05;-1.03;-0.19;2.85;8.00;-7.23;-249.17;-100.06;121.00;1.05;19.45;10.22;-74.12 
1.886;0.01;-1.05;-0.22;3.20;4.38;-4.38;-250.17;-101.01;123.00;1.07;19.82;10.38;-73.80 
1.916;0.00;-1.06;-0.22;1.74;-1.53;-4.31;-254.16;-101.97;122.00;1.08;20.34;10.66;-73.39 
1.947;-0.08;-0.99;-0.17;-2.64;-7.93;-6.26;-258.15;-103.87;126.00;1.01;20.88;10.76;-72.97 
1.977;-0.07;-1.00;-0.17;-4.10;-4.73;-10.78;-257.15;-103.87;122.00;1.02;21.52;10.86;-72.50 
2.007;-0.06;-1.01;-0.18;-0.28;5.84;-14.68;-257.15;-103.87;123.00;1.03;22.19;11.15;-71.97 
2.037;0.00;-1.06;-0.22;1.95;10.64;-14.12;-260.14;-109.59;126.00;1.08;22.93;11.69;-71.38 
2.067;0.05;-1.07;-0.26;1.67;5.77;-11.76;-260.14;-109.59;125.00;1.10;23.52;12.14;-70.89 
2.097;0.03;-1.04;-0.22;0.42;0.14;-8.35;-264.13;-112.45;127.00;1.06;24.03;12.41;-70.50 
2.127;-0.02;-1.00;-0.23;0.56;-1.04;-7.72;-264.13;-114.36;127.00;1.03;24.49;12.56;-70.15 
2.157;0.00;-1.03;-0.22;2.57;1.88;-9.18;-267.12;-114.36;130.00;1.05;24.98;12.73;-69.78 
2.187;0.04;-1.06;-0.19;3.55;5.98;-10.02;-267.12;-118.17;126.00;1.08;25.41;12.99;-69.47 
2.217;0.06;-1.09;-0.22;4.31;8.90;-9.18;-270.11;-120.07;127.00;1.11;25.74;13.26;-69.21 
2.248;0.08;-1.07;-0.22;5.50;7.37;-5.63;-270.11;-123.89;127.00;1.10;26.00;13.50;-69.00 
2.278;0.06;-1.06;-0.18;5.01;4.52;-2.16;-270.11;-121.98;125.00;1.08;26.16;13.61;-68.88 
2.308;0.04;-1.03;-0.18;2.78;2.23;-0.07;-273.10;-121.98;127.00;1.05;26.25;13.59;-68.81 
2.338;0.02;-1.02;-0.19;0.63;0.97;-0.77;-270.11;-123.89;126.00;1.04;26.36;13.51;-68.71 
2.368;0.04;-1.02;-0.18;0.35;2.09;-1.74;-271.10;-124.84;126.00;1.04;26.54;13.46;-68.56 
2.398;0.03;-1.05;-0.21;0.35;1.95;-2.99;-273.10;-123.89;128.00;1.07;26.73;13.45;-68.39 
2.428;0.06;-1.04;-0.18;0.35;2.43;-2.43;-271.10;-124.84;128.00;1.06;26.94;13.47;-68.22 
2.459;0.02;-1.06;-0.20;-0.56;0.70;-1.60;-274.09;-123.89;127.00;1.08;27.15;13.45;-68.05 
2.489;0.02;-1.02;-0.19;0.70;0.00;-2.16;-273.10;-125.79;130.00;1.04;27.35;13.41;-67.89 
2.519;0.02;-1.02;-0.18;1.74;1.81;-3.69;-274.09;-127.70;127.00;1.04;27.55;13.40;-67.75 
2.549;0.02;-1.03;-0.20;2.50;4.94;-5.01;-275.09;-124.84;123.00;1.05;27.76;13.45;-67.59 
2.578;0.04;-1.04;-0.22;4.24;5.84;-5.43;-272.10;-129.60;126.00;1.06;27.96;13.58;-67.43 
2.608;0.10;-1.06;-0.21;4.45;5.01;-3.76;-277.08;-128.65;127.00;1.09;28.13;13.72;-67.32 
2.638;0.09;-1.07;-0.18;0.97;1.81;-0.14;-273.10;-131.51;129.00;1.09;28.26;13.78;-67.22 
2.669;0.05;-1.06;-0.20;-1.04;-1.25;2.64;-275.09;-129.60;126.00;1.08;28.41;13.70;-67.09 
2.699;0.05;-1.04;-0.18;-0.63;-0.90;2.85;-278.08;-127.70;127.00;1.06;28.52;13.53;-67.00 
2.729;0.03;-1.02;-0.17;-0.70;0.00;2.64;-274.09;-126.75;125.00;1.03;28.59;13.36;-66.93 
2.760;0.04;-1.04;-0.22;-0.63;0.00;1.81;-275.09;-125.79;127.00;1.06;28.65;13.21;-66.85 
2.790;0.05;-1.04;-0.23;-1.11;-0.07;1.67;-274.09;-127.70;126.00;1.07;28.77;13.08;-66.74 
2.820;0.03;-1.04;-0.20;-1.95;-1.18;2.09;-273.10;-127.70;124.00;1.06;28.91;12.98;-66.62 
2.850;0.02;-1.03;-0.21;-1.67;-1.32;0.97;-273.10;-128.65;126.00;1.05;29.04;12.84;-66.50 
2.879;0.02;-1.02;-0.20;-0.42;0.70;-0.21;-274.09;-125.79;129.00;1.04;29.17;12.74;-66.40 
2.909;0.06;-1.03;-0.21;-0.77;1.60;0.07;-275.09;-126.75;126.00;1.05;29.26;12.67;-66.32 
2.939;0.05;-1.02;-0.18;0.28;0.56;0.70;-271.10;-129.60;123.00;1.04;29.39;12.62;-66.22 
2.970;0.04;-1.02;-0.22;0.70;0.63;0.90;-276.09;-128.65;127.00;1.04;29.48;12.53;-66.16 
3.000;0.00;-1.02;-0.18;-0.49;0.63;-0.21;-275.09;-126.75;122.00;1.04;29.59;12.47;-66.08 
3.030;0.04;-1.05;-0.20;-0.63;0.77;-1.25;-275.09;-123.89;127.00;1.07;29.71;12.42;-65.99 
3.060;0.06;-1.06;-0.17;-0.63;0.77;-0.28;-274.09;-126.75;124.00;1.08;29.89;12.41;-65.85 
3.090;0.04;-1.05;-0.18;-0.42;-0.07;1.39;-276.09;-125.79;126.00;1.07;30.02;12.36;-65.76 
3.120;0.02;-1.03;-0.17;-0.28;-0.42;1.04;-269.11;-127.70;127.00;1.04;30.08;12.25;-65.72 
3.150;0.05;-1.04;-0.16;-0.70;0.77;0.28;-273.10;-125.79;126.00;1.05;30.21;12.19;-65.64 
3.181;0.02;-1.02;-0.19;-0.77;0.70;0.00;-272.10;-124.84;124.00;1.04;30.34;12.14;-65.54 
3.210;0.05;-1.04;-0.21;-0.56;-0.49;0.14;-272.10;-124.84;124.00;1.06;30.47;12.08;-65.44 
3.240;0.03;-1.03;-0.22;-0.35;-0.28;-0.56;-273.10;-124.84;125.00;1.05;30.60;12.03;-65.37 
3.271;0.03;-1.06;-0.18;-0.49;0.97;-0.21;-272.10;-124.84;126.00;1.08;30.74;12.01;-65.29 
3.301;0.03;-1.03;-0.22;0.42;0.77;-0.97;-271.10;-125.79;125.00;1.05;30.89;11.99;-65.19 
3.331;0.01;-1.02;-0.17;0.56;0.83;-0.97;-276.09;-127.70;129.00;1.03;31.00;11.98;-65.14 
3.361;0.02;-1.02;-0.17;0.07;0.97;-1.39;-276.09;-125.79;125.00;1.03;31.12;11.96;-65.08 
3.391;0.04;-1.03;-0.21;0.00;0.77;-2.85;-271.10;-126.75;124.00;1.05;31.27;11.96;-65.00 
3.421;0.04;-1.05;-0.19;0.42;1.39;-2.99;-274.09;-124.84;124.00;1.07;31.43;12.00;-64.92 
3.451;0.06;-1.05;-0.21;0.21;1.81;-2.02;-274.09;-128.65;124.00;1.07;31.61;12.06;-64.82 
3.481;0.06;-1.04;-0.21;0.56;1.11;-0.97;-275.09;-129.60;123.00;1.06;31.75;12.10;-64.76 
3.510;0.03;-1.04;-0.18;0.90;1.18;-0.77;-279.08;-126.75;127.00;1.06;31.85;12.11;-64.72 
3.539;0.02;-1.02;-0.21;0.21;1.18;-1.04;-276.09;-128.65;129.00;1.04;31.95;12.10;-64.68 
3.570;0.05;-1.02;-0.22;0.28;0.97;-1.32;-275.09;-129.60;129.00;1.04;32.08;12.11;-64.61 
3.600;0.05;-1.03;-0.19;0.28;0.77;-1.60;-277.08;-129.60;124.00;1.05;32.22;12.10;-64.53 
3.630;0.06;-1.03;-0.18;0.00;1.04;-1.11;-276.09;-129.60;124.00;1.05;32.36;12.13;-64.47 
3.660;0.03;-1.02;-0.18;-0.14;0.56;-1.04;-279.08;-129.60;128.00;1.04;32.50;12.14;-64.39 
3.690;0.04;-1.03;-0.22;-0.14;0.56;-0.63;-277.08;-130.56;125.00;1.05;32.66;12.14;-64.31 
3.720;0.04;-1.03;-0.18;-0.14;0.14;-0.56;-277.08;-130.56;125.00;1.05;32.79;12.15;-64.25 
3.750;0.05;-1.04;-0.21;-0.63;0.28;-0.70;-277.08;-128.65;126.00;1.06;32.93;12.13;-64.19 
3.781;0.05;-1.04;-0.18;-0.49;0.63;-0.83;-276.09;-130.56;126.00;1.06;33.09;12.13;-64.10 
3.810;0.08;-1.07;-0.19;-0.28;0.63;-0.35;-276.09;-131.51;123.00;1.09;33.23;12.15;-64.04 
3.840;0.06;-1.02;-0.20;0.00;0.63;-0.28;-277.08;-127.70;126.00;1.04;33.37;12.15;-63.97 
3.871;0.03;-1.03;-0.19;-0.07;0.90;-0.14;-276.09;-129.60;127.00;1.05;33.47;12.14;-63.94 
3.901;0.06;-1.02;-0.18;-0.28;0.90;-0.49;-275.09;-128.65;126.00;1.04;33.57;12.14;-63.90 
3.931;0.05;-1.04;-0.19;-0.35;0.42;-0.56;-278.08;-133.42;124.00;1.06;33.68;12.12;-63.86 
3.961;0.04;-1.02;-0.21;-0.28;0.28;-0.49;-276.09;-131.51;125.00;1.04;33.77;12.10;-63.84 
3.992;0.05;-1.03;-0.21;-0.21;1.04;-0.49;-278.08;-131.51;129.00;1.05;33.87;12.09;-63.82 
4.021;0.04;-1.03;-0.21;-0.49;0.77;-0.63;-277.08;-130.56;122.00;1.05;33.98;12.09;-63.76 
4.051;0.08;-1.02;-0.18;0.00;0.49;0.00;-276.09;-130.56;126.00;1.04;34.11;12.09;-63.71 
4.082;0.05;-1.02;-0.15;-0.63;0.42;-0.28;-277.08;-131.51;125.00;1.03;34.23;12.10;-63.67 
4.112;0.06;-1.02;-0.18;-0.77;0.42;0.14;-275.09;-128.65;127.00;1.04;34.36;12.08;-63.61 
4.142;0.08;-1.02;-0.23;-0.56;-0.07;0.49;-278.08;-130.56;125.00;1.05;34.48;12.05;-63.56 
4.172;0.06;-1.03;-0.21;-0.35;0.77;0.83;-277.08;-127.70;125.00;1.05;34.58;12.03;-63.52 
4.202;0.03;-1.05;-0.20;0.07;0.77;1.11;-276.09;-131.51;128.00;1.07;34.66;11.98;-63.49 
4.232;0.04;-1.04;-0.18;0.35;0.77;1.11;-277.08;-130.56;124.00;1.06;34.74;11.96;-63.47 
4.261;0.04;-1.02;-0.21;0.14;1.25;0.77;-275.09;-129.60;127.00;1.04;34.82;11.94;-63.44 
4.292;0.02;-1.03;-0.19;0.00;0.90;0.42;-274.09;-131.51;127.00;1.05;34.89;11.91;-63.43 
4.322;0.06;-1.05;-0.18;-0.14;0.70;-0.14;-276.09;-130.56;126.00;1.07;34.97;11.91;-63.42 
4.352;0.06;-1.05;-0.15;-0.28;0.63;-0.07;-277.08;-129.60;123.00;1.06;35.10;11.92;-63.37 
4.383;0.05;-1.04;-0.17;-0.21;0.83;0.42;-277.08;-128.65;129.00;1.05;35.17;11.91;-63.37 
4.413;0.06;-1.04;-0.18;-0.28;0.28;0.07;-275.09;-129.60;124.00;1.06;35.28;11.88;-63.33 
4.443;0.03;-1.05;-0.20;0.07;1.11;0.42;-279.08;-128.65;123.00;1.07;35.36;11.86;-63.31 
4.473;0.06;-1.06;-0.15;-0.14;0.56;1.04;-275.09;-127.70;124.00;1.07;35.43;11.85;-63.32 
4.504;0.03;-1.03;-0.20;-0.77;0.00;0.77;-279.08;-128.65;125.00;1.05;35.73;11.92;-63.11 
4.534;0.05;-1.03;-0.18;-0.83;-0.14;0.70;-277.08;-129.60;125.00;1.05;35.85;11.88;-63.06 
4.564;0.05;-1.03;-0.19;-0.14;1.04;0.42;-274.09;-128.65;126.00;1.05;35.91;11.86;-63.07 
4.595;0.04;-1.04;-0.18;0.42;1.18;0.56;-277.08;-130.56;130.00;1.06;35.97;11.83;-63.08 
4.625;0.06;-1.02;-0.17;0.49;1.60;0.77;-276.09;-130.56;125.00;1.04;36.04;11.84;-63.08 
4.655;0.08;-1.06;-0.16;0.00;0.83;0.56;-277.08;-127.70;126.00;1.07;36.10;11.83;-63.08 
4.685;0.05;-1.04;-0.19;-0.21;0.42;0.56;-278.08;-126.75;125.00;1.06;36.17;11.81;-63.08 
4.715;0.05;-1.05;-0.18;-0.28;0.56;0.28;-275.09;-127.70;126.00;1.07;36.24;11.80;-63.09 
4.744;0.07;-1.06;-0.21;-0.42;0.70;0.28;-279.08;-127.70;128.00;1.08;36.33;11.81;-63.09 
4.773;0.05;-1.04;-0.18;0.21;0.42;0.70;-276.09;-125.79;127.00;1.06;36.41;11.80;-63.08 
4.803;0.04;-1.03;-0.19;-0.42;0.21;0.56;-274.09;-125.79;125.00;1.05;36.48;11.78;-63.08 
4.833;0.05;-1.04;-0.19;0.07;0.83;0.35;-274.09;-127.70;125.00;1.06;36.57;11.78;-63.08 
4.863;0.03;-1.02;-0.19;-0.07;0.56;0.35;-276.09;-127.70;126.00;1.04;36.64;11.77;-63.08 
4.894;0.02;-1.03;-0.20;-0.56;0.00;0.14;-278.08;-125.79;126.00;1.05;36.71;11.74;-63.10 
4.924;0.05;-1.03;-0.20;-0.42;0.63;-0.42;-274.09;-127.70;124.00;1.05;36.82;11.72;-63.07 
4.954;0.04;-1.03;-0.21;0.07;1.32;-0.28;-276.09;-126.75;126.00;1.05;36.93;11.72;-63.05 
4.984;0.02;-1.03;-0.18;0.63;0.90;0.07;-274.09;-126.75;122.00;1.05;37.01;11.74;-63.06 
5.014;0.09;-1.02;-0.18;0.42;1.11;-0.21;-273.10;-127.70;127.00;1.04;37.09;11.77;-63.06 
5.044;0.02;-1.03;-0.18;0.28;1.18;-0.21;-276.09;-129.60;124.00;1.05;37.16;11.77;-63.07 
5.073;0.04;-1.00;-0.16;0.35;0.77;0.00;-276.09;-126.75;123.00;1.01;37.26;11.78;-63.06 
5.104;0.06;-1.06;-0.14;-0.07;0.77;-0.56;-278.08;-128.65;125.00;1.07;37.38;11.82;-63.05 
5.134;0.05;-1.05;-0.18;-0.35;0.56;-0.49;-277.08;-127.70;125.00;1.07;37.52;11.86;-63.01 
5.164;0.04;-1.04;-0.15;-0.14;0.56;-0.42;-278.08;-128.65;126.00;1.05;37.65;11.87;-62.98 
5.194;0.07;-1.04;-0.21;-0.56;0.56;-0.14;-277.08;-128.65;125.00;1.06;37.78;11.90;-62.95 
5.224;0.06;-1.03;-0.18;-0.07;0.35;-0.70;-279.08;-129.60;125.00;1.05;37.92;11.90;-62.91 
5.254;0.06;-1.05;-0.21;-0.28;0.28;-0.21;-277.08;-127.70;125.00;1.07;38.02;11.90;-62.91 
5.284;0.06;-1.04;-0.18;-0.56;0.21;-0.14;-276.09;-125.79;125.00;1.06;38.13;11.91;-62.90 
5.315;0.04;-1.04;-0.18;-0.77;0.14;-0.14;-276.09;-125.79;128.00;1.06;38.26;11.91;-62.88 
5.345;0.03;-1.02;-0.18;-0.35;0.77;-0.28;-278.08;-126.75;123.00;1.04;38.37;11.91;-62.87 
5.375;0.05;-1.04;-0.19;0.07;1.04;-0.07;-273.10;-129.60;127.00;1.06;38.48;11.93;-62.86 
5.406;0.03;-1.04;-0.20;0.07;1.04;0.00;-274.09;-129.60;125.00;1.06;38.56;11.94;-62.87 
5.436;0.05;-1.04;-0.21;0.14;0.77;-0.28;-276.09;-129.60;126.00;1.06;38.67;11.95;-62.85 
5.466;0.04;-1.04;-0.19;-0.07;0.63;-0.83;-279.08;-127.70;125.00;1.06;38.77;11.95;-62.85 
5.496;0.02;-1.02;-0.17;0.00;1.11;-0.70;-277.08;-129.60;125.00;1.03;38.87;11.99;-62.85 
5.525;0.06;-1.02;-0.17;-0.35;0.42;-0.77;-276.09;-128.65;124.00;1.04;38.98;12.01;-62.85 
5.555;0.05;-1.05;-0.21;-0.28;0.35;-0.70;-280.07;-130.56;130.00;1.07;39.11;12.04;-62.83 
5.585;0.04;-1.02;-0.19;0.14;0.63;-0.70;-275.09;-131.51;123.00;1.04;39.23;12.07;-62.82 
5.616;0.04;-1.06;-0.18;-0.21;0.70;-0.90;-281.07;-127.70;125.00;1.08;39.32;12.10;-62.83 
5.646;0.04;-1.03;-0.19;0.21;0.83;-0.35;-276.09;-128.65;124.00;1.05;39.43;12.14;-62.83 
5.676;0.03;-1.03;-0.18;-0.21;0.28;-0.42;-274.09;-127.70;127.00;1.05;39.54;12.16;-62.84 
5.706;0.05;-1.03;-0.16;-0.35;0.56;-0.97;-276.09;-130.56;126.00;1.04;39.67;12.18;-62.82 
5.736;0.06;-1.04;-0.18;-0.63;0.90;-0.63;-275.09;-129.60;126.00;1.06;39.83;12.21;-62.78 
5.766;0.04;-1.06;-0.22;-0.14;0.83;-0.70;-278.08;-132.46;126.00;1.08;39.95;12.24;-62.76 
5.796;0.05;-1.02;-0.18;0.14;1.18;-0.42;-279.08;-131.51;128.00;1.04;40.04;12.27;-62.76 
5.827;0.05;-1.06;-0.20;-0.07;0.97;-0.14;-278.08;-130.56;125.00;1.08;40.13;12.30;-62.78 
5.857;0.03;-1.05;-0.14;-0.21;0.77;-0.63;-273.10;-130.56;123.00;1.06;40.22;12.31;-62.78 
5.886;0.02;-1.05;-0.18;-0.28;0.90;-1.11;-278.08;-129.60;126.00;1.07;40.34;12.33;-62.77 
5.916;0.05;-1.05;-0.18;0.00;1.25;-0.97;-276.09;-129.60;126.00;1.07;40.45;12.36;-62.77 
5.946;0.03;-1.03;-0.18;-0.28;0.90;-0.63;-279.08;-131.51;124.00;1.05;40.57;12.40;-62.76 
5.976;0.05;-1.05;-0.18;-0.28;0.21;-0.70;-276.09;-133.42;127.00;1.07;40.72;12.46;-62.73 
6.006;0.04;-1.02;-0.19;-0.56;0.35;-0.42;-277.08;-130.56;127.00;1.04;40.85;12.47;-62.72 
6.036;0.05;-1.02;-0.20;-0.35;0.77;-0.70;-276.09;-132.46;125.00;1.04;41.00;12.49;-62.69 
6.066;0.06;-1.03;-0.18;0.14;0.56;-0.70;-274.09;-130.56;128.00;1.05;41.13;12.52;-62.67 
6.096;0.06;-1.03;-0.19;-0.21;0.56;-0.35;-279.08;-132.46;127.00;1.05;41.26;12.55;-62.66 
6.127;0.05;-1.03;-0.16;-0.14;0.56;-0.35;-275.09;-133.42;124.00;1.04;41.40;12.56;-62.64 
6.157;0.03;-1.02;-0.21;-0.70;0.35;-0.56;-277.08;-131.51;124.00;1.04;41.51;12.57;-62.64 
6.187;0.06;-1.04;-0.21;-0.28;0.97;-0.35;-277.08;-130.56;122.00;1.06;41.62;12.58;-62.63 
6.217;0.06;-1.06;-0.18;-0.07;1.11;0.00;-279.08;-131.51;124.00;1.08;41.73;12.60;-62.63 
6.247;0.06;-1.02;-0.19;0.00;0.56;0.21;-280.07;-129.60;124.00;1.04;41.83;12.61;-62.63 
6.277;0.06;-1.03;-0.18;-0.49;0.56;0.28;-278.08;-130.56;125.00;1.05;41.94;12.62;-62.62 
6.307;0.06;-1.03;-0.16;-0.56;0.35;-0.14;-278.08;-130.56;127.00;1.04;42.05;12.63;-62.62 
6.337;0.06;-1.06;-0.18;-0.70;0.00;0.21;-278.08;-129.60;128.00;1.08;42.16;12.62;-62.62 
6.367;0.06;-1.02;-0.17;-0.83;-0.07;0.14;-280.07;-129.60;125.00;1.04;42.27;12.60;-62.61 
6.396;0.08;-1.02;-0.16;-0.77;0.28;0.14;-275.09;-132.46;126.00;1.04;42.38;12.59;-62.61 
6.426;0.06;-1.04;-0.18;-0.49;0.49;0.42;-277.08;-132.46;127.00;1.06;42.48;12.58;-62.61 
6.456;0.06;-1.03;-0.18;-0.21;0.70;0.56;-276.09;-129.60;126.00;1.05;42.57;12.58;-62.62 
6.486;0.06;-1.05;-0.17;-0.56;0.83;0.56;-277.08;-131.51;128.00;1.07;42.66;12.58;-62.63 
6.516;0.06;-1.06;-0.18;0.00;1.04;0.70;-275.09;-131.51;126.00;1.08;42.74;12.60;-62.64 
6.546;0.06;-1.05;-0.18;0.00;0.42;0.63;-277.08;-131.51;124.00;1.07;42.83;12.60;-62.65 
6.576;0.04;-1.03;-0.14;-0.83;0.21;1.18;-278.08;-130.56;127.00;1.04;42.91;12.57;-62.68 
6.606;0.05;-1.04;-0.22;-0.90;-0.28;1.11;-275.09;-129.60;128.00;1.06;43.04;12.55;-62.66 
6.637;0.05;-1.05;-0.19;0.00;0.90;0.49;-278.08;-128.65;126.00;1.07;43.12;12.51;-62.68 
6.666;0.04;-1.05;-0.18;-0.14;0.77;0.97;-276.09;-131.51;127.00;1.07;43.20;12.50;-62.70 
6.696;0.05;-1.03;-0.18;-0.42;0.49;0.77;-277.08;-130.56;126.00;1.05;43.30;12.50;-62.70 
6.727;0.05;-1.06;-0.21;-0.56;0.35;0.97;-279.08;-129.60;126.00;1.08;43.39;12.48;-62.71 
6.757;0.05;-1.02;-0.18;-0.42;0.28;0.70;-277.08;-128.65;126.00;1.04;43.49;12.45;-62.71 
6.787;0.05;-1.05;-0.14;-0.14;0.63;0.14;-278.08;-129.60;125.00;1.06;43.59;12.45;-62.72 
6.817;0.06;-1.03;-0.18;-0.07;0.70;0.28;-277.08;-128.65;127.00;1.05;43.68;12.44;-62.75 
6.847;0.05;-1.04;-0.20;-0.21;1.04;0.49;-277.08;-129.60;127.00;1.06;43.77;12.44;-62.76 
6.877;0.05;-1.06;-0.20;-0.14;0.63;0.42;-276.09;-130.56;124.00;1.08;43.87;12.43;-62.77 
6.906;0.03;-1.07;-0.19;0.21;0.97;0.63;-275.09;-127.70;125.00;1.09;43.95;12.44;-62.79 
6.936;0.03;-1.03;-0.18;-0.07;0.83;0.14;-277.08;-130.56;123.00;1.05;44.03;12.43;-62.81 
6.966;0.05;-1.03;-0.18;0.14;1.18;0.42;-275.09;-127.70;124.00;1.05;44.10;12.46;-62.84 
6.996;0.05;-1.05;-0.20;0.07;0.56;0.97;-274.09;-127.70;126.00;1.07;44.19;12.47;-62.85 
7.027;0.06;-1.02;-0.18;-1.04;-0.56;1.11;-274.09;-129.60;126.00;1.04;44.31;12.45;-62.85 
7.057;0.05;-1.03;-0.22;-0.97;-0.42;0.83;-275.09;-127.70;123.00;1.05;44.44;12.42;-62.85 
7.087;0.06;-1.04;-0.20;-0.42;0.42;1.60;-277.08;-128.65;123.00;1.06;44.51;12.39;-62.88 
7.117;0.04;-1.04;-0.21;0.21;0.42;1.53;-275.09;-126.75;128.00;1.06;44.59;12.35;-62.90 
7.147;0.06;-1.03;-0.15;-0.07;0.77;1.25;-277.08;-126.75;123.00;1.04;44.69;12.33;-62.92 
7.176;0.02;-1.05;-0.19;-0.49;0.49;1.11;-277.08;-124.84;129.00;1.07;44.78;12.31;-62.93 
7.205;0.05;-1.05;-0.21;-0.21;0.42;0.35;-273.10;-125.79;126.00;1.07;44.86;12.28;-62.96 
7.236;0.02;-1.04;-0.18;-0.35;0.56;-0.42;-277.08;-124.84;125.00;1.06;44.99;12.28;-62.95 
7.266;0.04;-1.04;-0.20;-0.49;0.77;-0.28;-277.08;-124.84;125.00;1.06;45.11;12.30;-62.96 
7.296;0.03;-1.05;-0.20;0.00;0.35;0.00;-275.09;-126.75;127.00;1.07;45.27;12.33;-62.94 
7.327;0.02;-1.02;-0.15;0.21;0.70;-1.04;-277.08;-126.75;127.00;1.03;45.42;12.34;-62.93 
7.357;0.04;-1.03;-0.18;-0.07;1.67;-0.83;-276.09;-125.79;126.00;1.05;45.56;12.37;-62.93 
7.387;0.03;-1.02;-0.19;0.42;0.77;-1.60;-277.08;-125.79;125.00;1.04;45.74;12.43;-62.88 
7.417;0.02;-1.04;-0.19;0.49;1.11;-0.90;-274.09;-125.79;124.00;1.06;45.85;12.48;-62.90 
7.446;0.05;-1.06;-0.18;0.07;0.83;-0.97;-275.09;-127.70;124.00;1.08;45.98;12.52;-62.90 
7.476;0.06;-1.04;-0.21;-0.90;-0.21;-1.18;-275.09;-125.79;128.00;1.06;46.13;12.54;-62.90 
7.506;0.06;-1.05;-0.20;-0.42;0.14;-0.70;-275.09;-128.65;125.00;1.07;46.28;12.58;-62.89 
7.537;0.05;-1.04;-0.20;0.49;1.11;-0.56;-280.07;-125.79;124.00;1.06;46.40;12.59;-62.91 
7.567;0.06;-1.03;-0.18;0.35;1.25;-0.70;-280.07;-126.75;127.00;1.05;46.49;12.60;-62.94 
7.597;0.04;-1.02;-0.18;0.00;1.04;-0.21;-277.08;-125.79;127.00;1.04;46.60;12.62;-62.95 
7.627;0.05;-1.04;-0.20;0.00;0.90;-0.49;-275.09;-129.60;126.00;1.06;46.73;12.65;-62.94 
7.657;0.02;-1.04;-0.19;-0.14;0.77;-0.70;-274.09;-127.70;124.00;1.06;46.87;12.68;-62.94 
7.686;0.04;-1.04;-0.20;-0.28;0.56;-1.04;-276.09;-125.79;127.00;1.06;47.02;12.71;-62.94 
7.716;0.04;-1.03;-0.20;-0.07;0.90;-1.53;-274.09;-130.56;127.00;1.05;47.14;12.74;-62.95 
7.747;0.03;-1.05;-0.18;-0.35;0.28;-1.04;-274.09;-127.70;126.00;1.07;47.30;12.78;-62.94 
7.777;0.02;-1.03;-0.21;0.14;0.42;-0.83;-279.08;-127.70;125.00;1.05;47.46;12.81;-62.94 
7.807;0.03;-1.02;-0.18;-0.28;1.04;-1.11;-275.09;-131.51;125.00;1.04;47.60;12.83;-62.94 
7.838;0.03;-1.01;-0.19;0.21;1.04;-1.53;-277.08;-131.51;125.00;1.03;47.77;12.89;-62.93 
7.868;0.06;-1.05;-0.18;0.42;1.11;-1.39;-279.08;-132.46;124.00;1.07;47.89;12.97;-62.94 
7.898;0.05;-1.03;-0.22;-0.42;0.28;-1.25;-278.08;-131.51;127.00;1.05;48.03;13.00;-62.95 
7.928;0.05;-1.02;-0.18;-0.56;0.00;-0.90;-280.07;-130.56;125.00;1.04;48.21;13.02;-62.92 
7.957;0.04;-1.03;-0.20;-0.56;0.49;-1.18;-278.08;-131.51;126.00;1.05;48.38;13.04;-62.92 
7.987;0.02;-1.04;-0.18;-0.07;1.11;-1.18;-279.08;-131.51;124.00;1.06;48.51;13.07;-62.92 
8.017;0.07;-1.03;-0.18;0.07;0.63;-0.63;-278.08;-130.56;126.00;1.05;48.66;13.11;-62.90 
8.048;0.06;-1.04;-0.18;-0.35;0.28;-0.14;-279.08;-130.56;125.00;1.06;48.82;13.14;-62.90 
8.078;0.05;-1.02;-0.20;-0.63;-0.14;0.00;-279.08;-129.60;124.00;1.04;48.95;13.12;-62.92 
8.108;0.05;-1.03;-0.19;-0.56;-0.42;-0.49;-275.09;-132.46;129.00;1.05;49.08;13.12;-62.93 
8.138;0.05;-1.03;-0.18;-0.97;0.49;-0.56;-279.08;-131.51;126.00;1.05;49.29;13.13;-62.91 
8.168;0.04;-1.02;-0.21;-0.70;0.49;-0.83;-279.08;-131.51;125.00;1.04;49.46;13.15;-62.89 
8.198;0.06;-1.04;-0.18;-0.42;0.49;-0.28;-282.07;-128.65;127.00;1.06;49.62;13.16;-62.89 
8.228;0.06;-1.02;-0.19;-0.21;0.42;0.35;-277.08;-129.60;125.00;1.04;49.76;13.17;-62.90 
8.259;0.04;-1.03;-0.23;-0.35;0.77;0.00;-275.09;-131.51;127.00;1.06;49.85;13.16;-62.92 
8.288;0.06;-1.03;-0.19;0.14;0.63;-0.28;-277.08;-134.37;125.00;1.05;49.98;13.17;-62.93 
8.317;0.04;-1.03;-0.20;-0.21;0.70;-0.42;-279.08;-129.60;124.00;1.05;50.10;13.18;-62.94 
8.348;0.03;-1.02;-0.20;-0.21;0.63;-0.49;-278.08;-131.51;124.00;1.04;50.26;13.19;-62.94 
8.378;0.06;-1.03;-0.17;-1.25;0.70;0.28;-279.08;-131.51;127.00;1.05;50.42;13.19;-62.94 
8.408;0.04;-1.03;-0.21;-1.81;-1.18;-0.35;-277.08;-133.42;124.00;1.05;50.62;13.18;-62.90 
8.438;0.06;-1.02;-0.18;-2.02;-1.25;-1.25;-279.08;-134.37;125.00;1.04;50.87;13.18;-62.86 
8.468;0.04;-1.02;-0.20;-3.97;-2.43;-3.20;-279.08;-131.51;123.00;1.04;51.19;13.21;-62.79 
8.498;0.03;-1.02;-0.20;-6.68;-4.87;-3.76;-276.09;-129.60;128.00;1.04;51.66;13.24;-62.65 
8.528;0.00;-1.01;-0.19;-9.67;-6.96;-5.77;-281.07;-133.42;126.00;1.03;52.33;13.26;-62.40 
8.559;0.03;-1.01;-0.22;-8.21;-2.30;-7.72;-279.08;-132.46;129.00;1.03;53.10;13.37;-62.09 
8.589;0.14;-1.06;-0.23;-2.57;5.70;-5.15;-281.07;-134.37;131.00;1.09;53.54;13.60;-61.85 
8.619;0.02;-0.99;-0.30;1.74;2.43;-4.31;-283.06;-132.46;132.00;1.03;53.72;13.80;-61.75 
8.649;-0.03;-0.91;-0.22;4.59;-0.97;-9.60;-282.07;-136.27;128.00;0.94;54.06;13.87;-61.74 
