Time(s) acc_x(g) acc_y(g) acc_z(g) gyr_x(°/s) gyr_y(°/s) gyr_z(°/s) mag_x(G) mag_y(G) mag_z(G) SVM(g) yaw(°) pitch(°) roll(°)
0.000;-0.10;0.09;0.89;-0.77;1.25;2.16;347.50;-79.27;-380.00;0.90;-98.64;2.80;6.52 
0.030;-0.10;0.07;0.86;-1.11;1.53;3.13;348.49;-80.23;-377.00;0.87;-98.81;2.73;6.47 
0.060;-0.08;0.06;0.92;-0.70;2.57;3.83;349.48;-80.23;-377.00;0.93;-99.02;2.64;6.44 
0.090;-0.06;0.02;0.90;-1.04;2.64;5.70;350.47;-78.32;-375.00;0.90;-99.26;2.54;6.41 
0.120;-0.08;0.03;0.91;-1.46;3.48;6.61;351.46;-80.23;-376.00;0.91;-99.55;2.47;6.34 
0.149;-0.09;0.09;0.94;-1.53;5.50;7.37;350.47;-82.14;-377.00;0.95;-99.87;2.36;6.27 
0.179;-0.06;0.06;0.90;-2.09;6.47;7.03;349.48;-80.23;-377.00;0.90;-100.20;2.14;6.21 
0.209;-0.10;0.09;0.88;-1.53;6.40;6.96;350.47;-81.18;-375.00;0.89;-100.51;1.93;6.16 
0.239;-0.10;0.09;0.87;-1.32;4.80;6.47;346.51;-80.23;-379.00;0.88;-100.83;1.75;6.13 
0.270;-0.11;0.10;0.87;-0.97;2.78;5.98;351.46;-80.23;-377.00;0.88;-101.12;1.60;6.11 
0.300;-0.08;0.10;0.92;-0.21;3.69;4.45;349.48;-82.14;-383.00;0.93;-101.38;1.51;6.12 
0.330;-0.08;0.09;0.91;-0.07;7.44;4.03;348.49;-78.32;-378.00;0.92;-101.62;1.36;6.12 
0.360;-0.07;0.06;0.87;1.25;9.11;3.13;351.46;-78.32;-378.00;0.87;-101.85;1.10;6.14 
0.389;-0.10;0.10;0.88;2.57;6.96;3.62;350.47;-78.32;-374.00;0.89;-102.08;0.85;6.19 
0.418;-0.08;0.11;0.92;3.62;6.26;1.46;354.43;-78.32;-378.00;0.93;-102.28;0.68;6.32 
0.448;-0.06;0.17;0.91;2.85;10.23;-3.20;352.45;-76.41;-377.00;0.93;-102.39;0.46;6.49 
0.479;-0.06;0.16;0.90;1.32;14.61;-10.16;355.42;-76.41;-374.00;0.92;-102.32;0.08;6.64 
0.508;-0.06;0.10;0.88;0.90;16.97;-14.19;353.44;-69.72;-371.00;0.89;-102.11;-0.39;6.74 
0.537;-0.06;0.12;0.91;-0.21;17.39;-16.83;352.45;-65.90;-376.00;0.92;-101.81;-0.91;6.77 
0.568;-0.07;0.16;0.90;-1.74;16.00;-21.43;349.48;-58.26;-370.00;0.92;-101.41;-1.40;6.79 
0.598;-0.10;0.20;0.90;-2.30;16.00;-30.33;351.46;-52.53;-367.00;0.93;-100.78;-1.95;6.82 
0.628;-0.06;0.21;0.90;-2.09;18.30;-40.14;348.49;-50.62;-367.00;0.93;-99.91;-2.52;6.82 
0.658;-0.06;0.18;0.89;-3.06;20.52;-49.25;343.54;-37.25;-367.00;0.91;-98.77;-3.17;6.79 
0.687;-0.09;0.22;0.84;-3.83;20.52;-60.45;335.62;-29.61;-366.00;0.87;-97.27;-3.91;6.70 
0.717;-0.10;0.19;0.84;-2.92;18.92;-70.96;332.65;-22.92;-364.00;0.87;-95.59;-4.61;6.61 
0.747;-0.12;0.22;0.83;-2.50;16.07;-82.43;327.70;-16.24;-360.00;0.87;-93.50;-5.30;6.48 
0.778;-0.09;0.18;0.87;-2.85;14.47;-94.68;314.83;-0.96;-357.00;0.89;-91.00;-5.96;6.29 
0.808;-0.07;0.18;0.83;-2.78;14.19;-106.37;304.93;11.46;-359.00;0.85;-88.13;-6.59;5.99 
0.838;-0.08;0.13;0.82;-1.25;15.65;-118.19;292.05;23.88;-356.00;0.83;-84.99;-7.21;5.66 
0.869;-0.08;0.10;0.77;-2.02;20.31;-129.04;277.20;34.38;-353.00;0.78;-81.39;-7.93;5.23 
0.899;-0.08;0.06;0.74;-4.17;20.94;-138.16;262.35;47.75;-350.00;0.75;-77.51;-8.75;4.65 
0.929;-0.05;0.02;0.68;-5.43;17.04;-139.69;235.62;60.17;-343.00;0.68;-73.58;-9.43;3.90 
0.959;-0.04;0.00;0.58;-9.25;16.07;-140.10;212.85;70.68;-337.00;0.58;-69.62;-9.95;3.05 
0.989;-0.04;0.02;0.47;-17.11;8.70;-138.02;196.02;77.36;-340.00;0.47;-65.57;-10.36;1.98 
1.019;-0.03;0.06;0.40;-13.91;-2.78;-134.54;175.23;81.18;-334.00;0.41;-61.63;-10.31;0.87 
1.049;0.02;0.07;0.42;3.27;-6.26;-130.57;156.42;85.00;-335.00;0.43;-57.82;-9.83;0.17 
1.080;0.00;0.16;0.46;10.43;-8.42;-136.63;131.67;86.91;-332.00;0.49;-53.96;-9.32;0.08 
1.110;-0.06;0.13;0.58;11.48;-11.13;-145.25;114.84;83.09;-329.00;0.60;-49.75;-8.78;0.15 
1.140;0.00;0.03;0.67;16.42;0.90;-146.50;95.04;82.14;-329.00;0.67;-45.48;-8.34;0.14 
1.169;0.10;-0.14;0.57;21.15;20.94;-130.02;79.20;82.14;-325.00;0.60;-41.37;-8.35;0.14 
1.199;0.06;-0.10;0.34;8.56;2.37;-109.43;58.41;83.09;-319.00;0.36;-37.73;-8.35;-0.01 
1.229;-0.02;-0.05;0.38;-8.77;-30.82;-96.56;55.44;83.09;-317.00;0.38;-34.70;-7.79;-0.39 
1.259;-0.15;0.11;0.69;-10.09;-46.75;-77.63;32.67;72.59;-317.00;0.71;-32.22;-6.49;-0.92 
1.290;-0.06;0.38;1.06;-5.98;-29.15;-83.06;22.77;61.12;-325.00;1.13;-29.81;-5.12;-1.15 
1.320;0.17;0.39;0.79;-1.18;6.96;-112.14;7.92;55.39;-322.00;0.90;-26.99;-4.49;-1.09 
1.350;0.16;0.21;0.51;-3.20;21.63;-141.57;-7.92;51.57;-320.00;0.57;-23.36;-4.48;-1.00 
1.381;-0.20;-0.03;0.48;-11.41;12.31;-151.10;-25.74;48.71;-316.00;0.52;-18.99;-4.71;-1.31 
1.411;-0.87;-0.51;1.24;-20.03;5.08;-132.73;-44.55;37.25;-305.00;1.60;-14.69;-5.16;-2.41 
1.441;0.38;-1.30;0.87;-76.45;22.47;-67.55;-72.27;32.47;-303.00;1.61;-11.24;-5.09;-4.53 
1.470;0.02;-0.84;0.58;-141.57;-51.90;26.71;-77.22;30.56;-297.00;1.02;-11.17;-4.63;-8.72 
1.500;0.00;0.50;0.61;-184.63;-79.86;-21.57;-103.95;26.74;-279.00;0.79;-12.17;-2.50;-13.02 
1.530;0.40;-0.39;0.73;-190.68;-53.98;-61.70;-133.65;18.15;-265.00;0.92;-10.66;0.10;-18.62 
1.560;0.54;-0.27;0.46;-171.97;7.86;-71.72;-177.21;2.87;-228.00;0.76;-8.12;2.03;-24.39 
1.591;0.36;-1.30;0.21;-159.58;-53.84;-175.23;-205.92;-4.78;-197.00;1.37;-4.08;3.88;-29.91 
1.621;2.10;-5.12;1.03;-198.89;-32.63;-127.79;-235.62;-40.11;-172.00;5.63;2.92;9.91;-35.84 
1.651;-0.60;-3.84;1.62;-116.24;-142.75;144.14;-260.37;-54.44;-141.00;4.21;6.04;11.30;-42.78 
1.680;0.16;0.37;0.34;-177.32;-113.88;-25.18;-268.29;-48.71;-112.00;0.53;6.83;12.21;-46.42 
1.710;1.59;-0.34;0.55;-259.55;-160.83;-48.77;-287.10;-63.99;-85.00;1.72;10.16;16.82;-51.04 
1.740;1.29;-1.50;0.32;-258.37;-119.44;70.82;-298.00;-68.77;-42.00;2.00;13.16;19.52;-57.74 
1.770;0.38;-1.15;-0.06;-210.57;-47.23;113.74;-298.00;-56.35;-3.00;1.21;13.02;18.02;-64.98 
1.799;0.37;-1.04;-0.22;-219.34;-70.12;104.70;-283.14;-27.70;51.00;1.13;12.40;15.47;-71.79 
1.829;0.26;-1.02;-0.37;-230.54;-55.72;85.70;-268.29;-10.51;84.00;1.12;12.23;12.88;-76.97 
1.859;0.38;-1.25;-0.52;-192.56;-27.69;55.51;-261.36;-3.82;100.00;1.41;12.88;10.89;-77.86 
1.890;0.51;-1.44;-0.28;-97.32;0.00;79.23;-238.59;12.42;139.00;1.55;12.95;9.12;-76.14 
1.920;0.25;-1.37;-0.38;-51.13;67.27;102.75;-220.77;30.56;160.00;1.44;10.80;6.35;-75.43 
1.950;0.10;-1.28;-0.50;4.38;87.03;69.77;-205.92;33.43;174.00;1.38;8.64;4.61;-75.06 
1.980;0.00;-0.73;-0.65;3.55;31.30;62.47;-202.95;35.34;175.00;0.98;6.67;3.20;-75.51 
2.009;-0.09;-0.45;-0.63;-10.92;42.02;43.55;-194.04;41.07;181.00;0.78;5.18;1.85;-74.64 
2.039;-0.15;-0.58;-0.76;2.43;25.95;36.52;-192.06;40.11;188.00;0.97;4.25;1.06;-73.73 
2.069;0.06;-0.60;-0.78;-3.83;37.91;40.83;-188.10;45.84;190.00;0.99;3.27;0.32;-72.89 
2.098;0.26;-0.72;-0.78;-9.60;10.37;35.69;-182.16;45.84;193.00;1.09;2.45;-0.28;-71.77 
2.127;0.27;-0.86;-0.82;-15.79;-19.20;53.22;-180.18;48.71;197.00;1.22;1.75;-1.05;-70.55 
2.157;-0.05;-0.80;-0.80;-4.94;-40.07;64.63;-166.32;61.12;195.00;1.13;0.38;-2.67;-69.30 
2.188;-0.23;-0.83;-0.75;6.47;-66.85;62.47;-165.33;67.81;191.00;1.14;-1.51;-5.05;-68.17 
2.218;-0.18;-0.82;-0.51;19.27;-73.95;50.85;-149.49;91.69;172.00;0.98;-3.26;-7.43;-67.39 
2.248;-0.18;-0.82;-0.39;27.55;-62.40;47.58;-145.53;96.46;162.00;0.93;-4.86;-9.51;-66.94 
2.278;-0.26;-0.80;-0.38;34.78;-52.59;45.91;-140.58;109.83;148.00;0.92;-6.48;-11.40;-66.70 
2.308;-0.34;-0.77;-0.32;38.61;-54.61;44.17;-136.62;116.52;129.00;0.90;-8.28;-13.35;-66.49 
2.338;-0.46;-0.81;-0.26;37.91;-51.34;35.41;-127.71;128.94;112.00;0.97;-10.05;-15.19;-66.26 
2.368;-0.48;-0.80;-0.15;34.85;-48.83;23.44;-123.75;132.76;101.00;0.94;-11.61;-16.76;-66.07 
2.397;-0.51;-0.83;0.00;24.77;-42.50;3.41;-122.76;139.44;91.00;0.97;-12.75;-17.88;-66.06 
2.426;-0.65;-0.87;0.03;18.43;-12.24;-9.81;-124.74;140.40;77.00;1.09;-13.28;-18.34;-66.26 
2.456;-0.62;-0.86;0.00;10.92;24.97;-24.63;-126.72;141.35;77.00;1.06;-12.99;-17.94;-66.66 
2.487;-0.48;-0.88;-0.12;-2.64;48.42;-45.08;-132.66;135.62;84.00;1.01;-12.13;-16.89;-67.24 
2.517;-0.31;-0.90;-0.31;-8.35;43.62;-59.27;-140.58;128.94;90.00;1.00;-10.44;-15.07;-67.98 
2.547;-0.32;-0.85;-0.38;-5.63;25.04;-62.68;-150.48;117.47;101.00;0.98;-8.50;-13.11;-68.67 
2.577;-0.25;-0.78;-0.37;-2.64;6.33;-64.07;-159.39;105.06;106.00;0.90;-6.58;-11.27;-69.28 
2.607;-0.15;-0.94;-0.30;0.70;-7.44;-67.06;-172.26;100.28;106.00;1.00;-4.50;-9.38;-69.96 
2.637;-0.03;-1.10;-0.22;1.32;-3.62;-66.99;-179.19;92.64;104.00;1.12;-2.47;-7.56;-70.59 
2.667;0.10;-1.18;-0.25;1.95;13.91;-68.45;-191.07;85.00;107.00;1.21;-0.32;-5.51;-71.19 
2.698;0.18;-1.29;-0.30;3.97;29.84;-43.83;-201.96;70.68;114.00;1.34;1.65;-3.44;-71.58 
2.728;0.13;-1.22;-0.46;5.70;25.53;-30.68;-206.91;65.90;113.00;1.31;2.91;-1.95;-71.66 
2.758;0.10;-1.18;-0.46;12.38;3.90;-17.60;-208.89;61.12;115.00;1.27;3.69;-1.05;-71.67 
2.789;0.07;-1.14;-0.32;13.91;-9.04;-10.23;-212.85;63.99;114.00;1.19;4.14;-0.61;-71.84 
2.819;0.08;-1.10;-0.22;6.05;-5.43;-6.19;-217.80;58.26;110.00;1.12;4.37;-0.43;-72.01 
2.849;0.05;-1.06;-0.18;-2.16;2.71;-2.43;-217.80;56.35;112.00;1.08;4.53;-0.31;-71.95 
2.879;-0.02;-1.01;-0.31;-3.83;5.43;-2.50;-215.82;56.35;111.00;1.06;4.64;-0.24;-71.61 
2.908;0.00;-1.02;-0.30;0.28;5.29;-4.24;-217.80;57.30;112.00;1.06;4.75;-0.16;-71.33 
2.938;0.06;-1.07;-0.31;3.69;3.34;-1.60;-217.80;50.62;113.00;1.12;4.88;-0.02;-71.19 
2.968;0.02;-1.10;-0.30;3.76;1.95;5.77;-216.81;56.35;115.00;1.14;4.84;-0.04;-71.15 
2.999;0.02;-1.04;-0.26;1.67;-0.14;10.57;-217.80;54.44;113.00;1.07;4.60;-0.27;-71.05 
3.029;0.00;-1.04;-0.27;-1.04;-2.30;14.54;-217.80;57.30;110.00;1.07;4.21;-0.68;-70.90 
3.059;0.00;-1.03;-0.30;-4.24;-2.78;15.51;-215.82;61.12;110.00;1.07;3.78;-1.19;-70.56 
3.089;0.00;-1.04;-0.28;-6.61;-1.39;15.03;-211.86;64.95;109.00;1.08;3.37;-1.68;-70.20 
3.118;-0.06;-1.02;-0.29;-6.05;-0.90;14.40;-207.90;66.86;112.00;1.06;2.94;-2.18;-69.78 
3.147;-0.07;-1.01;-0.30;-4.31;-1.95;12.31;-204.93;68.77;108.00;1.06;2.55;-2.63;-69.40 
3.176;-0.06;-1.00;-0.29;-2.71;-2.85;10.78;-205.92;68.77;112.00;1.04;2.23;-3.03;-69.05 
3.206;-0.07;-1.00;-0.27;-2.09;-2.57;9.53;-205.92;72.59;108.00;1.04;1.87;-3.46;-68.77 
3.236;-0.06;-1.02;-0.27;-2.50;-1.11;8.21;-200.97;71.63;111.00;1.06;1.60;-3.78;-68.51 
3.266;-0.06;-1.02;-0.26;-2.71;0.42;8.07;-200.97;72.59;110.00;1.05;1.36;-4.07;-68.23 
3.297;-0.10;-0.99;-0.30;-1.81;0.14;6.75;-199.98;76.41;106.00;1.04;1.10;-4.35;-67.95 
3.327;-0.11;-1.00;-0.28;-1.18;-0.42;5.08;-199.98;77.36;110.00;1.04;0.89;-4.61;-67.70 
3.357;-0.14;-0.99;-0.28;-0.07;0.00;2.64;-199.98;77.36;112.00;1.04;0.74;-4.79;-67.49 
3.388;-0.10;-1.00;-0.27;0.21;1.25;-0.28;-197.01;78.32;110.00;1.04;0.66;-4.90;-67.35 
3.418;-0.09;-1.02;-0.29;0.07;2.02;-1.39;-196.02;76.41;108.00;1.06;0.64;-4.93;-67.21 
3.448;-0.09;-1.00;-0.29;-0.35;1.32;-2.57;-197.01;76.41;110.00;1.05;0.70;-4.88;-67.08 
3.478;-0.06;-1.02;-0.32;-0.21;1.04;-2.64;-199.98;77.36;110.00;1.07;0.74;-4.86;-66.96 
3.509;-0.08;-1.02;-0.26;0.07;1.67;-2.57;-199.98;75.45;109.00;1.06;0.79;-4.84;-66.87 
3.539;-0.08;-1.03;-0.30;0.77;2.09;-3.41;-198.99;77.36;111.00;1.08;0.85;-4.78;-66.77 
3.569;-0.06;-1.02;-0.27;0.97;2.43;-3.34;-200.97;75.45;107.00;1.06;0.91;-4.73;-66.69 
3.600;-0.07;-1.02;-0.27;1.18;1.81;-3.34;-199.98;75.45;109.00;1.06;0.97;-4.67;-66.63 
3.629;-0.06;-1.02;-0.27;0.83;2.02;-2.37;-198.99;74.50;111.00;1.06;1.03;-4.61;-66.57 
3.659;-0.05;-1.04;-0.28;0.77;2.64;-0.90;-198.99;71.63;111.00;1.08;1.06;-4.58;-66.50 
3.689;-0.06;-1.02;-0.30;0.63;1.39;-0.28;-200.97;73.54;113.00;1.06;1.04;-4.60;-66.40 
3.719;-0.06;-1.08;-0.29;0.35;0.56;-0.63;-201.96;74.50;109.00;1.12;1.01;-4.64;-66.32 
3.749;-0.04;-1.03;-0.26;-0.77;1.25;0.49;-198.99;72.59;112.00;1.06;0.97;-4.69;-66.23 
3.779;-0.05;-1.05;-0.30;-1.25;1.95;1.67;-200.97;73.54;109.00;1.09;0.93;-4.74;-66.11 
3.810;-0.07;-1.02;-0.30;-0.63;0.77;2.85;-201.96;73.54;110.00;1.07;0.83;-4.84;-65.99 
3.839;-0.07;-1.02;-0.26;-0.77;0.07;3.06;-199.98;72.59;105.00;1.05;0.71;-4.98;-65.87 
3.869;-0.06;-1.04;-0.26;-0.83;0.49;2.37;-199.98;76.41;114.00;1.07;0.60;-5.09;-65.77 
3.900;-0.09;-1.01;-0.27;-0.77;2.02;2.23;-199.98;74.50;111.00;1.05;0.50;-5.20;-65.65 
3.930;-0.08;-1.02;-0.31;-0.97;1.81;2.16;-198.99;76.41;111.00;1.07;0.41;-5.29;-65.54 
3.960;-0.08;-1.02;-0.30;-0.56;0.49;2.09;-202.95;76.41;111.00;1.07;0.33;-5.38;-65.44 
3.990;-0.08;-1.03;-0.26;-0.70;0.42;2.09;-202.95;75.45;110.00;1.07;0.23;-5.48;-65.35 
4.021;-0.08;-1.00;-0.29;-1.11;1.32;1.81;-198.99;76.41;107.00;1.04;0.13;-5.59;-65.24 
4.051;-0.09;-1.01;-0.28;-0.49;1.60;0.90;-195.03;77.36;108.00;1.05;0.05;-5.67;-65.14 
4.080;-0.06;-1.02;-0.23;0.14;1.53;0.63;-198.99;78.32;110.00;1.05;0.01;-5.71;-65.06 
4.111;-0.08;-1.03;-0.27;0.00;0.83;0.49;-203.94;76.41;110.00;1.07;-0.03;-5.74;-64.99 
4.141;-0.07;-1.01;-0.28;-0.28;1.46;0.63;-197.01;76.41;108.00;1.05;-0.06;-5.77;-64.95 
4.171;-0.07;-1.02;-0.28;0.28;1.67;0.28;-196.02;76.41;108.00;1.06;-0.12;-5.82;-64.88 
4.201;-0.10;-1.02;-0.26;-0.14;0.28;0.07;-198.00;77.36;108.00;1.06;-0.16;-5.87;-64.83 
4.230;-0.07;-1.02;-0.27;-0.97;0.49;-0.70;-197.01;76.41;111.00;1.06;-0.18;-5.90;-64.79 
4.260;-0.06;-1.02;-0.28;-1.53;1.74;0.56;-195.03;76.41;106.00;1.06;-0.20;-5.92;-64.74 
4.290;-0.07;-1.02;-0.28;-0.97;0.83;1.18;-196.02;76.41;109.00;1.06;-0.24;-5.96;-64.64 
4.321;-0.07;-1.02;-0.29;-0.07;0.07;1.18;-197.01;77.36;110.00;1.06;-0.31;-6.05;-64.53 
4.351;-0.09;-1.03;-0.26;0.00;0.42;-0.07;-197.01;80.23;110.00;1.07;-0.36;-6.12;-64.47 
4.381;-0.08;-1.02;-0.27;-0.42;1.46;-0.42;-198.00;78.32;113.00;1.06;-0.39;-6.14;-64.44 
4.411;-0.09;-1.02;-0.28;-0.35;1.95;-0.21;-198.00;79.27;113.00;1.06;-0.41;-6.16;-64.38 
4.440;-0.06;-1.02;-0.30;0.07;0.35;0.28;-196.02;79.27;111.00;1.06;-0.45;-6.19;-64.31 
4.470;-0.09;-1.02;-0.26;-0.63;0.56;0.07;-198.99;76.41;112.00;1.06;-0.48;-6.24;-64.26 
4.500;-0.08;-1.02;-0.30;-1.46;1.60;-0.63;-198.00;76.41;110.00;1.07;-0.51;-6.27;-64.20 
4.530;-0.06;-1.02;-0.26;-0.90;1.04;-0.07;-196.02;77.36;108.00;1.05;-0.53;-6.30;-64.12 
4.560;-0.07;-1.03;-0.29;-0.42;0.49;-0.63;-195.03;80.23;108.00;1.07;-0.56;-6.33;-64.08 
4.590;-0.08;-1.03;-0.28;-0.14;0.90;-0.14;-196.02;77.36;111.00;1.07;-0.59;-6.36;-64.05 
4.620;-0.07;-1.02;-0.26;-0.49;1.11;-0.21;-199.98;78.32;111.00;1.05;-0.63;-6.40;-64.03 
4.650;-0.06;-1.02;-0.26;-0.70;1.46;-0.21;-198.99;79.27;112.00;1.05;-0.65;-6.41;-64.03 
4.680;-0.09;-1.02;-0.30;-0.07;1.46;-0.21;-198.00;77.36;111.00;1.07;-0.68;-6.43;-63.99 
4.710;-0.09;-0.99;-0.26;0.21;0.35;-0.35;-195.03;77.36;112.00;1.03;-0.71;-6.46;-63.96 
4.740;-0.08;-1.03;-0.29;-0.83;0.42;-1.18;-197.01;76.41;109.00;1.07;-0.70;-6.46;-63.94 
4.770;-0.07;-1.03;-0.30;-1.32;1.81;-0.14;-197.01;75.45;111.00;1.08;-0.70;-6.46;-63.90 
4.800;-0.07;-1.02;-0.29;-0.83;1.04;0.63;-196.02;79.27;112.00;1.06;-0.73;-6.47;-63.85 
4.829;-0.08;-1.02;-0.30;0.00;0.00;0.70;-198.00;74.50;109.00;1.07;-0.79;-6.54;-63.80 
4.859;-0.08;-1.02;-0.28;-0.21;0.90;-0.21;-198.00;78.32;108.00;1.06;-0.83;-6.59;-63.79 
4.889;-0.07;-1.02;-0.28;-0.83;1.60;-0.56;-196.02;77.36;112.00;1.06;-0.86;-6.61;-63.76 
4.920;-0.06;-1.04;-0.26;-0.42;1.32;-0.49;-198.00;77.36;110.00;1.07;-0.88;-6.63;-63.71 
4.950;-0.09;-1.02;-0.33;-0.28;0.56;0.07;-197.01;79.27;112.00;1.08;-0.91;-6.65;-63.69 
4.979;-0.10;-1.01;-0.30;-0.28;0.21;0.14;-196.02;75.45;110.00;1.06;-0.95;-6.69;-63.66 
5.009;-0.06;-1.03;-0.27;-0.90;1.25;-0.56;-195.03;77.36;108.00;1.07;-0.97;-6.71;-63.63 
5.039;-0.06;-1.02;-0.26;-0.70;1.18;-0.07;-194.04;77.36;110.00;1.05;-0.98;-6.72;-63.59 
5.069;-0.08;-1.02;-0.30;-0.42;0.56;0.21;-199.98;76.41;110.00;1.07;-1.00;-6.73;-63.57 
5.099;-0.09;-1.01;-0.34;-0.21;0.77;-0.21;-197.01;77.36;108.00;1.07;-1.02;-6.75;-63.56 
5.130;-0.06;-1.02;-0.28;-0.14;0.83;-0.35;-197.01;77.36;111.00;1.06;-1.04;-6.77;-63.54 
5.160;-0.09;-1.02;-0.30;-0.70;1.04;-0.35;-198.99;74.50;108.00;1.07;-1.04;-6.77;-63.52 
5.189;-0.06;-1.02;-0.30;-0.70;1.81;-0.07;-198.00;75.45;105.00;1.06;-1.05;-6.78;-63.50 
5.220;-0.09;-1.02;-0.25;-0.14;0.70;0.14;-198.00;76.41;108.00;1.05;-1.08;-6.79;-63.49 
5.250;-0.09;-1.02;-0.27;-0.28;-0.14;-0.56;-201.96;75.45;111.00;1.06;-1.10;-6.82;-63.46 
5.280;-0.08;-1.03;-0.26;-1.11;0.97;-0.49;-198.99;79.27;108.00;1.07;-1.11;-6.83;-63.45 
5.310;-0.08;-1.02;-0.29;-1.39;1.67;0.70;-195.03;74.50;112.00;1.06;-1.12;-6.83;-63.43 
5.340;-0.08;-1.04;-0.34;-0.49;0.70;1.04;-198.99;77.36;110.00;1.10;-1.16;-6.87;-63.38 
5.370;-0.10;-1.01;-0.27;0.14;0.28;0.63;-196.02;75.45;112.00;1.05;-1.20;-6.91;-63.37 
5.399;-0.10;-1.02;-0.27;-0.21;0.90;0.00;-197.01;78.32;112.00;1.06;-1.24;-6.95;-63.34 
5.430;-0.10;-1.02;-0.28;-0.70;1.39;-0.42;-196.02;76.41;109.00;1.06;-1.25;-6.95;-63.32 
5.460;-0.11;-1.00;-0.30;-0.42;1.32;0.07;-198.00;79.27;110.00;1.05;-1.27;-6.95;-63.30 
5.490;-0.10;-1.01;-0.27;-0.14;0.83;-0.21;-198.00;79.27;110.00;1.05;-1.29;-6.97;-63.29 
5.521;-0.08;-1.02;-0.26;-0.49;0.56;-0.14;-196.02;75.45;112.00;1.06;-1.31;-6.99;-63.28 
5.551;-0.09;-1.02;-0.28;-1.04;1.11;-0.07;-198.00;76.41;108.00;1.06;-1.32;-6.99;-63.28 
5.581;-0.09;-1.02;-0.28;-0.63;0.90;-0.28;-198.99;75.45;109.00;1.06;-1.32;-6.99;-63.26 
5.610;-0.09;-1.02;-0.28;-0.14;0.56;-0.56;-196.02;77.36;109.00;1.06;-1.33;-7.00;-63.24 
5.640;-0.07;-1.02;-0.29;0.00;0.83;-0.83;-197.01;77.36;109.00;1.06;-1.34;-7.00;-63.24 
5.670;-0.09;-1.02;-0.26;-0.07;1.53;-0.90;-201.96;77.36;112.00;1.06;-1.31;-6.96;-63.25 
5.700;-0.07;-1.02;-0.27;-0.35;0.90;-0.35;-198.00;73.54;111.00;1.06;-1.31;-6.94;-63.26 
5.731;-0.08;-1.02;-0.30;-0.21;0.70;-0.14;-197.01;78.32;108.00;1.07;-1.32;-6.94;-63.26 
5.761;-0.09;-1.02;-0.27;-0.56;0.70;0.14;-197.01;76.41;109.00;1.06;-1.35;-6.96;-63.26 
5.790;-0.09;-1.02;-0.29;-0.35;1.18;0.35;-198.99;79.27;108.00;1.06;-1.37;-6.97;-63.26 
5.820;-0.06;-1.02;-0.29;-0.49;0.28;-0.49;-198.99;75.45;110.00;1.06;-1.39;-6.99;-63.26 
5.850;-0.08;-1.02;-0.30;-0.90;0.70;-0.70;-198.00;77.36;112.00;1.07;-1.41;-7.01;-63.27 
5.880;-0.08;-1.03;-0.29;-0.83;1.39;-0.07;-197.01;76.41;111.00;1.07;-1.40;-6.99;-63.26 
5.910;-0.06;-1.02;-0.30;-0.42;0.90;0.07;-198.00;78.32;107.00;1.06;-1.41;-6.99;-63.23 
5.941;-0.07;-1.02;-0.31;-0.07;0.49;0.14;-198.00;76.41;112.00;1.07;-1.45;-7.02;-63.23 
5.970;-0.09;-1.02;-0.29;-0.14;0.83;0.00;-197.01;77.36;111.00;1.06;-1.47;-7.04;-63.23 
6.000;-0.09;-1.01;-0.30;-0.70;0.90;-0.42;-199.98;79.27;109.00;1.06;-1.48;-7.04;-63.22 
6.031;-0.08;-1.00;-0.30;-0.07;1.11;-0.28;-198.99;78.32;113.00;1.05;-1.48;-7.03;-63.22 
6.061;-0.07;-1.02;-0.26;-0.28;1.04;-0.21;-197.01;75.45;111.00;1.05;-1.49;-7.02;-63.23 
6.091;-0.13;-1.02;-0.30;-0.56;0.97;0.07;-197.01;77.36;109.00;1.07;-1.51;-7.03;-63.24 
6.121;-0.08;-1.02;-0.28;-0.63;0.90;-0.35;-198.99;78.32;110.00;1.06;-1.52;-7.03;-63.23 
6.151;-0.09;-1.02;-0.27;-0.63;1.04;-0.28;-195.03;78.32;109.00;1.06;-1.54;-7.04;-63.24 
6.181;-0.06;-1.03;-0.30;-0.42;1.25;0.07;-198.00;79.27;111.00;1.07;-1.56;-7.05;-63.22 
6.210;-0.06;-1.02;-0.26;-0.28;0.97;-0.21;-198.00;77.36;108.00;1.05;-1.55;-7.03;-63.22 
6.241;-0.07;-1.02;-0.28;-0.21;0.90;-0.35;-198.99;78.32;106.00;1.06;-1.55;-7.03;-63.23 
6.271;-0.06;-1.02;-0.28;-0.49;1.11;0.00;-196.02;76.41;108.00;1.06;-1.57;-7.04;-63.24 
6.301;-0.09;-1.02;-0.27;-0.63;0.90;0.14;-197.01;77.36;112.00;1.06;-1.59;-7.04;-63.25 
6.332;-0.10;-1.04;-0.31;-0.63;0.90;0.28;-198.00;77.36;110.00;1.09;-1.61;-7.05;-63.25 
6.362;-0.08;-1.02;-0.27;-0.49;0.97;-0.28;-197.01;79.27;108.00;1.06;-1.62;-7.04;-63.27 
6.391;-0.08;-1.02;-0.30;-0.42;0.90;-0.07;-195.03;77.36;109.00;1.07;-1.62;-7.04;-63.28 
6.421;-0.05;-1.02;-0.26;-0.63;1.11;0.28;-196.02;76.41;109.00;1.05;-1.64;-7.04;-63.30 
6.451;-0.08;-1.02;-0.27;-0.63;0.90;0.21;-195.03;77.36;109.00;1.06;-1.65;-7.03;-63.31 
6.481;-0.09;-1.02;-0.28;-0.49;0.77;0.49;-198.00;77.36;111.00;1.06;-1.67;-7.04;-63.30 
6.511;-0.07;-1.00;-0.28;-0.83;0.49;-0.21;-197.01;80.23;106.00;1.04;-1.68;-7.05;-63.31 
6.542;-0.08;-1.02;-0.28;-0.83;1.53;-0.42;-198.00;75.45;109.00;1.06;-1.68;-7.04;-63.32 
6.572;-0.09;-0.97;-0.26;-0.56;1.11;0.35;-198.00;76.41;111.00;1.01;-1.69;-7.03;-63.35 
6.601;-0.07;-1.03;-0.27;-0.21;0.83;-0.21;-196.02;77.36;110.00;1.07;-1.71;-7.03;-63.36 
6.631;-0.08;-1.04;-0.28;-0.49;1.11;0.14;-198.99;78.32;110.00;1.08;-1.73;-7.05;-63.39 
6.661;-0.09;-1.02;-0.26;-0.63;0.97;0.35;-197.01;74.50;110.00;1.06;-1.75;-7.05;-63.40 
6.691;-0.10;-1.01;-0.29;-0.49;0.97;-0.35;-195.03;76.41;110.00;1.06;-1.76;-7.04;-63.41 
6.721;-0.07;-1.02;-0.28;-0.21;1.04;-0.28;-197.01;77.36;110.00;1.06;-1.76;-7.03;-63.44 
6.752;-0.06;-1.02;-0.28;-0.21;1.53;-0.28;-194.04;75.45;108.00;1.06;-1.76;-7.01;-63.45 
6.782;-0.07;-1.02;-0.29;-0.07;0.90;-0.35;-197.01;75.45;109.00;1.06;-1.75;-6.99;-63.46 
6.811;-0.09;-1.02;-0.32;-0.07;0.83;0.07;-197.01;78.32;112.00;1.07;-1.76;-6.99;-63.47 
6.842;-0.08;-1.02;-0.30;-0.42;1.11;-0.28;-195.03;76.41;111.00;1.07;-1.75;-6.97;-63.49 
6.872;-0.07;-1.02;-0.24;-0.49;1.46;-0.49;-198.99;78.32;109.00;1.05;-1.75;-6.95;-63.51 
6.902;-0.06;-1.02;-0.30;-0.21;1.39;-0.63;-198.99;79.27;110.00;1.06;-1.73;-6.92;-63.52 
6.932;-0.07;-1.01;-0.30;-0.28;1.11;-0.28;-200.97;77.36;109.00;1.06;-1.73;-6.90;-63.54 
6.962;-0.10;-1.02;-0.27;-0.56;1.11;0.35;-198.00;81.18;106.00;1.06;-1.74;-6.90;-63.55 
6.992;-0.06;-1.02;-0.28;-0.90;1.04;0.56;-197.01;77.36;110.00;1.06;-1.77;-6.92;-63.56 
7.021;-0.07;-1.02;-0.28;-0.63;1.11;0.56;-198.00;75.45;112.00;1.06;-1.80;-6.93;-63.56 
7.052;-0.09;-1.00;-0.30;-0.42;1.11;0.77;-196.02;77.36;108.00;1.05;-1.82;-6.93;-63.56 
7.082;-0.10;-1.02;-0.30;-0.28;1.18;0.56;-198.00;78.32;108.00;1.07;-1.85;-6.94;-63.55 
7.112;-0.08;-1.02;-0.31;-0.14;1.25;0.35;-199.98;77.36;108.00;1.07;-1.87;-6.95;-63.56 
7.142;-0.07;-1.02;-0.30;-0.56;0.97;0.49;-195.03;79.27;105.00;1.07;-1.91;-6.97;-63.56 
7.172;-0.07;-1.03;-0.29;-0.90;1.11;0.35;-198.00;78.32;111.00;1.07;-1.93;-6.98;-63.58 
7.202;-0.10;-1.02;-0.29;-0.28;1.18;0.35;-198.00;77.36;110.00;1.07;-1.96;-6.99;-63.57 
7.232;-0.09;-1.02;-0.28;-0.42;0.35;0.07;-199.98;80.23;106.00;1.06;-1.98;-7.00;-63.58 
7.261;-0.10;-1.00;-0.26;-1.04;0.83;-0.07;-198.00;78.32;110.00;1.04;-1.96;-6.97;-63.58 
7.291;-0.06;-1.04;-0.30;-1.11;1.46;0.90;-196.02;78.32;109.00;1.08;-1.98;-6.96;-63.60 
7.321;-0.07;-1.04;-0.29;-0.56;1.11;1.32;-194.04;77.36;110.00;1.08;-2.01;-6.98;-63.60 
7.352;-0.10;-1.02;-0.34;0.07;0.56;1.11;-197.01;74.50;107.00;1.08;-2.06;-7.01;-63.60 
7.382;-0.10;-1.00;-0.27;-0.07;1.18;0.90;-195.03;79.27;112.00;1.04;-2.11;-7.03;-63.62 
7.411;-0.09;-1.02;-0.28;-0.35;1.39;0.21;-194.04;78.32;108.00;1.06;-2.14;-7.03;-63.66 
7.440;-0.06;-1.03;-0.30;-0.42;1.95;0.35;-194.04;78.32;112.00;1.07;-2.14;-7.02;-63.67 
7.470;-0.07;-1.04;-0.26;-0.21;1.18;0.77;-195.03;78.32;112.00;1.07;-2.16;-7.02;-63.65 
7.500;-0.10;-1.02;-0.28;-0.35;0.63;0.49;-197.01;81.18;112.00;1.06;-2.19;-7.04;-63.64 
7.530;-0.10;-1.02;-0.31;-0.83;0.77;0.49;-196.02;76.41;106.00;1.07;-2.21;-7.04;-63.66 
7.560;-0.10;-1.00;-0.27;-0.97;1.18;0.56;-197.01;79.27;111.00;1.04;-2.26;-7.07;-63.68 
7.590;-0.07;-1.02;-0.30;-0.70;1.32;0.21;-193.05;80.23;107.00;1.07;-2.27;-7.06;-63.67 
7.620;-0.09;-1.02;-0.32;-0.07;1.25;0.56;-198.00;79.27;109.00;1.07;-2.30;-7.07;-63.69 
7.650;-0.08;-1.02;-0.26;-0.21;1.18;0.49;-197.01;80.23;110.00;1.06;-2.33;-7.08;-63.70 
7.680;-0.10;-1.02;-0.28;-0.28;1.39;0.77;-196.02;82.14;111.00;1.06;-2.36;-7.08;-63.71 
7.710;-0.10;-1.02;-0.30;-0.28;1.39;0.77;-194.04;79.27;112.00;1.07;-2.39;-7.10;-63.71 
7.740;-0.09;-1.02;-0.31;-0.42;1.18;0.35;-193.05;79.27;110.00;1.07;-2.41;-7.10;-63.71 
7.770;-0.10;-1.02;-0.29;-0.49;0.97;0.21;-196.02;76.41;111.00;1.07;-2.44;-7.10;-63.71 
7.800;-0.07;-1.02;-0.26;-0.21;1.25;0.14;-195.03;79.27;110.00;1.05;-2.45;-7.10;-63.72 
7.830;-0.09;-1.02;-0.28;-0.56;1.25;0.28;-196.02;78.32;114.00;1.06;-2.46;-7.09;-63.73 
7.861;-0.10;-1.03;-0.23;-0.35;1.53;-0.14;-193.05;78.32;110.00;1.06;-2.47;-7.08;-63.73 
7.890;-0.10;-1.02;-0.30;0.00;0.97;-0.35;-196.02;77.36;111.00;1.07;-2.47;-7.06;-63.75 
7.920;-0.08;-1.01;-0.26;-0.70;0.35;-0.70;-195.03;78.32;113.00;1.05;-2.48;-7.06;-63.77 
7.951;-0.08;-1.03;-0.29;-1.60;0.63;-0.14;-199.98;79.27;110.00;1.07;-2.48;-7.05;-63.77 
7.981;-0.09;-1.02;-0.35;-1.39;1.25;0.49;-196.02;80.23;110.00;1.08;-2.47;-7.03;-63.74 
8.011;-0.08;-1.02;-0.30;-0.35;0.35;0.56;-191.07;75.45;111.00;1.07;-2.50;-7.05;-63.72 
8.041;-0.09;-1.02;-0.30;0.00;0.63;0.35;-196.02;78.32;110.00;1.07;-2.53;-7.06;-63.75 
8.070;-0.08;-1.02;-0.29;-0.21;1.53;-0.28;-198.99;78.32;109.00;1.06;-2.54;-7.05;-63.80 
8.100;-0.06;-1.02;-0.26;-0.83;1.11;-0.49;-197.01;83.09;108.00;1.05;-2.54;-7.03;-63.82 
8.130;-0.09;-1.02;-0.26;-0.56;0.90;-0.07;-196.02;78.32;110.00;1.06;-2.54;-7.01;-63.84 
8.161;-0.09;-1.02;-0.27;-0.21;0.97;-0.56;-194.04;77.36;108.00;1.06;-2.54;-7.00;-63.86 
8.191;-0.09;-1.02;-0.28;-0.63;0.90;-0.56;-195.03;81.18;108.00;1.06;-2.55;-6.98;-63.88 
8.221;-0.07;-1.02;-0.28;-0.77;0.97;-0.56;-194.04;78.32;110.00;1.06;-2.53;-6.95;-63.89 
8.252;-0.08;-1.01;-0.30;-0.49;0.90;-0.63;-194.04;78.32;112.00;1.06;-2.52;-6.93;-63.90 
8.281;-0.10;-1.02;-0.31;-0.07;1.04;-0.21;-197.01;78.32;108.00;1.07;-2.52;-6.91;-63.92 
8.310;-0.10;-1.02;-0.30;0.21;1.11;-0.56;-195.03;81.18;107.00;1.07;-2.51;-6.88;-63.96 
8.340;-0.06;-1.02;-0.27;-0.42;0.77;0.07;-194.04;79.27;110.00;1.06;-2.49;-6.85;-63.98 
8.370;-0.09;-1.03;-0.29;-0.35;0.97;0.00;-196.02;79.27;109.00;1.07;-2.49;-6.83;-64.02 
8.400;-0.09;-1.02;-0.29;-0.63;0.83;0.14;-196.02;79.27;110.00;1.06;-2.50;-6.82;-64.01 
8.430;-0.07;-1.02;-0.29;-0.63;0.77;0.07;-195.03;78.32;111.00;1.06;-2.51;-6.82;-64.03 
8.460;-0.08;-1.02;-0.28;-0.97;0.90;-0.21;-198.00;82.14;109.00;1.06;-2.52;-6.81;-64.04 
8.490;-0.10;-1.02;-0.27;-0.63;1.18;-0.07;-195.03;79.27;111.00;1.06;-2.51;-6.78;-64.04 
8.520;-0.07;-1.02;-0.28;-0.42;0.49;-0.14;-196.02;78.32;108.00;1.06;-2.52;-6.78;-64.06 
8.550;-0.10;-1.02;-0.31;-0.35;0.97;0.07;-193.05;80.23;108.00;1.07;-2.53;-6.77;-64.09 
8.580;-0.10;-1.01;-0.27;-0.70;1.25;-0.49;-195.03;76.41;109.00;1.05;-2.53;-6.76;-64.11 
8.610;-0.10;-1.04;-0.32;-0.21;0.97;-0.14;-194.04;78.32;109.00;1.09;-2.54;-6.75;-64.13 
8.639;-0.09;-1.03;-0.29;-0.14;0.70;-0.14;-197.01;79.27;113.00;1.07;-2.54;-6.72;-64.16 
8.669;-0.07;-1.02;-0.29;-0.77;0.42;-0.97;-195.03;79.27;109.00;1.06;-2.52;-6.69;-64.19 
8.699;-0.09;-1.02;-0.29;-0.97;1.53;-0.21;-195.03;78.32;110.00;1.06;-2.53;-6.69;-64.20 
8.729;-0.10;-1.02;-0.30;-0.49;1.11;0.56;-196.02;78.32;112.00;1.07;-2.53;-6.67;-64.20 
8.760;-0.10;-1.02;-0.30;0.07;0.49;0.14;-194.04;80.23;109.00;1.07;-2.56;-6.68;-64.21 
8.790;-0.07;-1.02;-0.30;-0.07;1.18;-0.14;-197.01;78.32;109.00;1.07;-2.57;-6.67;-64.24 
8.820;-0.08;-1.03;-0.29;-0.56;1.74;-0.56;-196.02;79.27;110.00;1.07;-2.57;-6.65;-64.27 
8.849;-0.10;-1.02;-0.27;-0.42;0.97;-0.56;-195.03;80.23;109.00;1.06;-2.56;-6.62;-64.32 
8.879;-0.11;-1.02;-0.31;-0.21;0.63;0.14;-197.01;80.23;111.00;1.07;-2.57;-6.60;-64.36 
8.909;-0.10;-1.02;-0.29;-0.42;0.97;-0.35;-195.03;74.50;110.00;1.07;-2.55;-6.57;-64.36 
8.939;-0.07;-1.02;-0.26;-0.35;1.46;-0.70;-198.00;80.23;113.00;1.05;-2.54;-6.54;-64.38 
8.970;-0.07;-1.03;-0.30;-0.63;-0.35;0.07;-195.03;83.09;111.00;1.08;-2.52;-6.50;-64.39 
9.000;-0.09;-1.03;-0.26;-2.16;-2.02;-2.23;-195.03;82.14;111.00;1.07;-2.50;-6.50;-64.39 
9.030;-0.08;-1.03;-0.26;-4.66;1.39;-5.29;-198.00;78.32;108.00;1.07;-2.40;-6.43;-64.36 
