Time(s) acc_x(g) acc_y(g) acc_z(g) gyr_x(°/s) gyr_y(°/s) gyr_z(°/s) mag_x(G) mag_y(G) mag_z(G) SVM(g) yaw(°) pitch(°) roll(°)
0.000;-0.31;0.13;0.85;22.05;23.51;-19.06;359.38;-84.05;-384.00;0.91;-103.63;-9.08;6.53 
0.030;-0.26;0.19;0.71;17.60;14.19;-22.40;369.28;-72.59;-375.00;0.78;-103.21;-9.79;7.11 
0.060;-0.32;0.20;0.74;14.54;-3.90;-29.08;367.30;-71.63;-376.00;0.83;-102.63;-10.05;7.58 
0.090;-0.30;0.23;0.77;13.22;-11.90;-37.29;365.32;-68.77;-375.00;0.86;-101.82;-9.91;7.94 
0.121;-0.30;0.29;0.78;16.14;-10.02;-49.04;369.28;-63.99;-374.00;0.88;-100.64;-9.73;8.29 
0.151;-0.30;0.32;0.78;20.10;-12.66;-63.65;368.29;-60.17;-374.00;0.89;-99.07;-9.64;8.75 
0.181;-0.35;0.21;0.91;19.90;-19.41;-67.55;366.31;-58.26;-372.00;1.00;-97.18;-9.43;9.13 
0.211;-0.24;0.07;0.98;18.16;-2.30;-65.39;366.31;-54.44;-368.00;1.01;-95.29;-9.24;9.36 
0.241;-0.26;0.00;0.90;11.13;23.58;-60.87;361.36;-44.89;-366.00;0.94;-93.52;-9.69;9.50 
0.271;-0.35;-0.08;0.82;3.76;18.64;-38.12;360.37;-29.61;-362.00;0.90;-92.22;-10.59;9.27 
0.301;-0.36;-0.05;0.84;-0.42;3.48;-20.52;357.40;-26.74;-364.00;0.92;-91.51;-10.89;9.12 
0.332;-0.34;-0.10;0.90;-7.37;6.05;-4.66;360.37;-24.83;-360.00;0.97;-91.26;-11.01;8.79 
0.362;-0.29;-0.04;0.82;-17.88;11.20;7.10;354.43;-23.88;-364.00;0.87;-91.45;-11.20;8.24 
0.392;-0.29;0.16;0.79;-23.93;5.15;2.30;351.46;-21.97;-365.00;0.86;-91.81;-11.33;7.59 
0.423;-0.26;0.44;0.89;-15.79;3.69;-15.65;345.52;-22.92;-363.00;1.03;-91.91;-11.30;7.09 
0.453;-0.23;0.42;0.88;6.68;16.28;-40.07;343.54;-18.15;-370.00;1.00;-91.33;-11.47;7.02 
0.483;-0.25;0.19;0.79;20.17;23.86;-61.91;339.58;-11.46;-362.00;0.85;-90.16;-12.11;7.32 
0.513;-0.26;-0.10;0.86;16.28;12.52;-73.39;339.58;0.00;-357.00;0.90;-88.36;-12.78;7.42 
0.544;-0.22;-0.30;0.86;11.06;12.24;-61.84;331.66;10.51;-353.00;0.94;-86.34;-13.18;7.08 
0.574;-0.21;-0.27;0.73;17.88;16.49;-32.07;328.69;14.33;-351.00;0.81;-85.00;-13.61;6.79 
0.604;-0.23;-0.26;0.66;18.09;-2.16;-5.01;329.68;21.01;-349.00;0.75;-84.51;-13.81;6.81 
0.635;-0.30;-0.18;0.87;7.93;-25.32;13.91;335.62;16.24;-348.00;0.94;-84.65;-13.23;6.95 
0.665;-0.36;0.05;1.14;-5.63;-8.49;19.83;333.64;13.37;-352.00;1.20;-85.25;-12.33;6.98 
0.695;-0.37;0.12;1.09;-10.09;25.39;20.38;335.62;10.51;-353.00;1.16;-86.01;-12.33;6.82 
0.725;-0.34;0.06;0.82;-5.63;32.63;22.89;340.57;10.51;-352.00;0.89;-86.93;-12.99;6.68 
0.755;-0.27;-0.04;0.68;-0.49;23.51;26.64;339.58;15.28;-347.00;0.73;-87.94;-13.59;6.76 
0.785;-0.29;-0.10;0.68;0.83;7.72;33.74;344.53;17.19;-350.00;0.75;-89.02;-13.93;6.85 
0.815;-0.32;-0.11;0.84;-7.79;-7.58;40.49;349.48;11.46;-347.00;0.91;-90.19;-13.76;6.84 
0.846;-0.26;0.02;1.03;-18.71;-3.76;49.32;349.48;11.46;-350.00;1.06;-91.66;-13.20;6.64 
0.875;-0.26;0.19;1.05;-19.97;20.94;46.68;351.46;1.91;-350.00;1.10;-93.32;-13.02;6.39 
0.905;-0.29;0.26;0.90;-15.30;35.41;37.84;353.44;0.00;-348.00;0.98;-94.82;-13.53;6.26 
0.935;-0.31;0.26;0.71;-9.11;33.25;23.93;353.44;2.87;-345.00;0.82;-96.04;-14.39;6.29 
0.965;-0.35;0.24;0.66;-3.20;18.30;10.43;353.44;1.91;-347.00;0.78;-96.85;-15.12;6.44 
0.995;-0.36;0.19;0.75;-0.97;2.57;2.09;357.40;4.78;-346.00;0.85;-97.24;-15.40;6.55 
1.024;-0.33;0.13;0.81;-1.74;-2.64;-2.37;357.40;3.82;-346.00;0.88;-97.38;-15.30;6.58 
1.053;-0.31;0.14;0.91;0.35;7.30;-4.94;354.43;6.69;-346.00;0.97;-97.44;-15.25;6.58 
1.083;-0.30;0.14;0.82;3.06;16.07;-9.74;354.43;6.69;-345.00;0.88;-97.41;-15.52;6.63 
1.113;-0.34;0.10;0.77;3.20;13.63;-12.10;355.42;9.55;-342.00;0.85;-97.26;-15.95;6.68 
1.144;-0.34;0.07;0.78;1.18;6.47;-11.48;354.43;12.42;-343.00;0.85;-97.06;-16.26;6.65 
1.174;-0.34;0.10;0.81;-0.97;1.88;-10.37;354.43;15.28;-339.00;0.88;-96.86;-16.33;6.57 
1.204;-0.30;0.10;0.87;-1.32;5.08;-11.76;352.45;14.33;-337.00;0.93;-96.68;-16.35;6.45 
1.234;-0.30;0.12;0.86;-0.63;10.50;-14.26;352.45;19.10;-339.00;0.92;-96.45;-16.47;6.33 
1.264;-0.31;0.08;0.82;1.67;15.10;-16.97;348.49;23.88;-333.00;0.88;-96.15;-16.79;6.24 
1.293;-0.32;0.11;0.82;2.02;13.43;-18.50;346.51;25.79;-333.00;0.89;-95.80;-17.19;6.16 
1.323;-0.31;0.12;0.82;3.55;9.95;-21.08;346.51;28.65;-334.00;0.88;-95.41;-17.47;6.10 
1.353;-0.29;0.18;0.80;5.15;12.52;-28.10;343.54;33.43;-330.00;0.87;-94.87;-17.77;6.11 
1.383;-0.29;0.18;0.80;5.50;13.70;-37.63;339.58;38.20;-332.00;0.87;-94.11;-18.14;6.07 
1.413;-0.30;0.17;0.77;5.22;12.80;-45.43;335.62;44.89;-324.00;0.84;-93.10;-18.52;5.93 
1.444;-0.30;0.12;0.77;3.83;13.29;-53.91;333.64;52.53;-321.00;0.84;-91.80;-18.91;5.69 
1.474;-0.28;0.16;0.70;0.28;14.96;-62.19;324.73;61.12;-323.00;0.77;-90.25;-19.39;5.27 
1.504;-0.22;0.22;0.60;-2.30;15.86;-76.38;310.87;71.63;-314.00;0.68;-88.48;-19.83;4.78 
1.534;-0.20;0.28;0.50;1.04;8.56;-96.97;302.95;78.32;-314.00;0.61;-86.24;-20.24;4.20 
1.564;-0.14;0.30;0.52;3.41;5.77;-122.85;291.06;89.78;-310.00;0.62;-83.22;-20.45;3.49 
1.594;-0.08;0.37;0.44;2.78;0.97;-146.37;271.26;96.46;-312.00;0.58;-79.58;-20.54;2.67 
1.624;-0.06;0.37;0.43;2.78;-0.42;-172.94;248.49;106.97;-307.00;0.57;-75.21;-20.34;1.70 
1.655;0.01;0.29;0.35;1.81;5.22;-189.01;213.84;118.43;-305.00;0.45;-69.83;-20.26;0.01 
1.685;0.13;0.38;0.27;16.83;13.01;-196.45;180.18;125.11;-296.00;0.48;-64.13;-19.87;-1.27 
1.714;0.22;0.48;0.19;53.77;3.34;-198.33;155.43;127.98;-293.00;0.56;-58.68;-19.46;-1.58 
1.745;0.30;0.37;0.30;90.30;-24.42;-195.62;131.67;129.89;-285.00;0.56;-52.77;-18.39;-0.74 
1.775;0.30;0.30;0.44;96.49;-58.92;-193.95;107.91;125.11;-291.00;0.61;-46.29;-16.35;0.96 
1.805;0.18;0.28;0.78;68.03;-93.36;-208.07;91.08;113.65;-300.00;0.85;-39.74;-13.49;2.33 
1.835;0.02;-0.09;1.08;50.37;-37.57;-214.05;67.32;101.24;-312.00;1.08;-32.90;-11.16;2.91 
1.865;0.02;-0.72;1.03;40.83;15.65;-190.96;47.52;92.64;-310.00;1.26;-26.45;-10.89;2.87 
1.895;-0.92;-1.47;1.51;9.32;21.98;-139.83;16.83;88.82;-304.00;2.30;-21.24;-11.53;2.27 
1.925;-0.51;-2.34;1.70;-27.13;153.25;-32.63;3.96;91.69;-292.00;2.94;-18.62;-13.44;0.93 
1.956;-0.31;-1.02;0.71;-139.76;72.42;87.79;7.92;115.56;-273.00;1.28;-20.81;-17.42;-0.65 
1.986;0.05;1.40;1.02;-241.53;-119.30;-58.50;-0.99;115.56;-252.00;1.73;-24.35;-16.86;-5.76 
2.016;-0.26;1.78;1.23;-152.70;-13.84;-89.18;-57.42;104.10;-246.00;2.18;-23.06;-13.87;-12.03 
2.045;0.43;0.02;0.79;-97.39;105.95;-235.90;-89.10;100.28;-227.00;0.90;-18.80;-13.47;-15.60 
2.075;0.49;-0.76;0.34;-137.04;98.43;-165.36;-136.62;87.87;-194.00;0.97;-13.23;-14.04;-20.79 
2.105;0.34;-1.13;0.77;-131.83;58.50;-170.37;-169.29;78.32;-157.00;1.41;-8.89;-13.39;-26.89 
2.135;0.20;-3.13;0.49;-111.86;-61.29;-259.27;-220.77;46.80;-114.00;3.17;-3.53;-10.33;-32.82 
2.166;1.80;-6.43;1.05;-211.55;-164.45;-118.19;-245.52;4.78;-106.00;6.76;2.48;-2.96;-39.05 
2.196;-0.74;-0.86;-0.32;-175.23;-214.12;128.70;-261.36;-8.60;-81.00;1.18;2.45;1.05;-46.38 
2.226;0.66;0.35;1.05;-93.01;-276.38;-30.47;-257.40;-0.96;-76.00;1.29;0.88;5.40;-50.78 
2.256;0.82;-1.21;0.90;-231.17;-52.03;-47.58;-271.26;-21.97;-59.00;1.72;3.71;9.89;-54.98 
2.285;0.72;-0.98;0.06;-266.43;3.48;16.56;-280.17;-21.97;-15.00;1.22;6.33;11.26;-62.36 
2.315;0.41;-1.42;-0.50;-242.50;-52.73;12.66;-281.16;-16.24;31.00;1.56;8.20;11.52;-69.70 
2.345;0.54;-1.46;-0.46;-130.43;-100.94;45.98;-275.22;-15.28;62.00;1.62;9.28;11.51;-74.95 
2.375;0.15;-1.18;-0.03;-113.46;-88.77;22.05;-265.32;0.00;82.00;1.19;9.61;10.90;-78.21 
2.405;0.34;-1.10;-0.12;-99.06;11.76;-0.70;-259.38;2.87;97.00;1.16;10.62;10.76;-79.23 
2.435;0.23;-1.16;-0.40;-65.53;43.90;18.78;-256.41;6.69;103.00;1.25;11.57;10.82;-78.92 
2.466;0.21;-1.10;-0.43;-36.10;46.61;33.32;-253.44;4.78;129.00;1.20;11.26;10.04;-79.03 
2.496;0.12;-0.99;-0.22;-27.27;42.02;35.90;-243.54;6.69;136.00;1.02;10.75;9.31;-79.04 
2.526;0.04;-0.77;-0.24;-30.96;49.46;47.51;-241.56;11.46;148.00;0.81;9.84;8.31;-79.18 
2.557;0.08;-0.70;-0.34;-34.30;62.68;38.19;-236.61;10.51;155.00;0.78;8.83;7.28;-78.96 
2.587;0.22;-0.67;-0.58;-24.63;85.70;45.29;-227.70;8.60;171.00;0.91;7.93;6.54;-78.25 
2.617;0.14;-0.67;-0.90;-10.16;49.46;34.16;-221.76;13.37;182.00;1.13;7.12;6.04;-77.45 
2.647;0.00;-0.82;-0.86;4.17;-16.28;23.65;-214.83;14.33;185.00;1.19;6.47;5.44;-76.82 
2.678;0.10;-1.02;-0.59;16.14;-25.95;12.45;-216.81;21.97;181.00;1.18;6.08;4.87;-76.52 
2.708;0.12;-1.15;-0.43;14.61;-10.99;23.10;-217.80;23.88;176.00;1.23;5.77;4.44;-76.54 
2.738;0.13;-1.11;-0.42;11.13;8.28;27.06;-215.82;27.70;173.00;1.19;5.16;3.83;-76.58 
2.769;0.22;-1.18;-0.42;12.31;20.66;31.17;-208.89;32.47;172.00;1.27;4.52;3.32;-76.57 
2.799;0.30;-1.14;-0.46;12.66;2.64;54.82;-206.91;34.38;171.00;1.27;3.50;2.45;-76.61 
2.829;0.15;-0.97;-0.47;17.53;-32.63;65.95;-198.99;41.07;169.00;1.09;2.01;0.96;-76.68 
2.859;-0.16;-0.77;-0.40;25.81;-58.43;69.77;-193.05;61.12;152.00;0.88;0.03;-1.24;-76.67 
2.889;-0.38;-0.68;-0.24;26.92;-57.81;44.17;-188.10;70.68;145.00;0.82;-2.04;-3.64;-76.51 
2.919;-0.40;-0.82;-0.05;19.27;-40.56;8.42;-182.16;79.27;131.00;0.91;-3.18;-5.00;-76.53 
2.949;-0.19;-0.93;0.09;3.76;-18.09;-10.57;-187.11;82.14;124.00;0.95;-3.35;-5.32;-76.54 
2.980;-0.34;-1.08;-0.06;-2.78;31.65;11.48;-189.09;80.23;125.00;1.13;-3.35;-5.31;-76.42 
3.010;-0.31;-0.91;-0.27;-11.20;36.45;-4.03;-182.16;79.27;129.00;1.00;-3.57;-5.35;-75.72 
3.040;-0.17;-1.01;-0.32;-16.49;9.95;-15.51;-183.15;78.32;135.00;1.07;-3.28;-5.01;-74.94 
3.070;-0.05;-1.05;-0.31;-18.64;3.48;-26.50;-184.14;72.59;141.00;1.10;-2.50;-4.32;-74.20 
3.100;-0.06;-1.09;-0.37;-13.57;9.81;-25.95;-188.10;69.72;143.00;1.15;-1.49;-3.39;-73.50 
3.130;-0.05;-1.02;-0.43;-5.01;13.01;-27.41;-191.07;65.90;145.00;1.11;-0.55;-2.46;-72.91 
3.160;0.03;-1.06;-0.42;4.80;7.86;-21.22;-195.03;62.08;148.00;1.14;0.29;-1.58;-72.59 
3.191;0.14;-1.14;-0.30;10.37;8.07;-6.12;-200.97;57.30;150.00;1.19;0.88;-0.94;-72.49 
3.221;0.11;-1.10;-0.32;9.04;6.33;11.27;-198.00;56.35;149.00;1.15;0.96;-0.77;-72.46 
3.251;0.00;-1.07;-0.33;4.87;-7.23;19.48;-199.98;61.12;146.00;1.12;0.61;-1.10;-72.28 
3.282;-0.10;-1.01;-0.27;-2.23;-17.11;19.20;-195.03;63.03;142.00;1.05;0.01;-1.80;-71.94 
3.312;-0.15;-0.99;-0.18;-10.16;-12.10;10.57;-192.06;66.86;144.00;1.02;-0.46;-2.44;-71.40 
3.342;-0.18;-0.94;-0.27;-12.94;2.37;1.95;-194.04;69.72;139.00;0.99;-0.69;-2.78;-70.73 
3.372;-0.21;-0.90;-0.35;-6.54;11.27;-9.25;-190.08;68.77;144.00;0.99;-0.64;-2.74;-70.07 
3.403;-0.12;-0.97;-0.39;3.41;11.13;-16.56;-189.09;67.81;146.00;1.05;-0.28;-2.32;-69.64 
3.433;-0.02;-1.02;-0.36;9.25;8.90;-16.00;-192.06;64.95;149.00;1.08;0.24;-1.74;-69.54 
3.463;0.02;-1.07;-0.26;8.00;6.75;-9.11;-195.03;62.08;148.00;1.10;0.65;-1.26;-69.50 
3.493;0.00;-1.07;-0.30;4.24;3.34;-3.13;-199.98;60.17;147.00;1.11;0.88;-0.99;-69.44 
3.523;-0.07;-1.02;-0.30;1.46;-0.49;-2.57;-198.99;60.17;147.00;1.07;0.97;-0.91;-69.24 
3.553;-0.07;-1.02;-0.26;-0.28;-0.77;-5.36;-199.98;55.39;148.00;1.05;1.06;-0.85;-69.00 
3.583;-0.02;-1.03;-0.30;-1.60;2.78;-5.84;-198.00;56.35;149.00;1.07;1.23;-0.72;-68.73 
3.613;-0.02;-1.03;-0.31;-1.60;5.63;-3.97;-201.96;58.26;146.00;1.08;1.42;-0.51;-68.35 
3.643;-0.01;-1.02;-0.34;-0.35;3.83;-1.46;-198.99;55.39;148.00;1.08;1.55;-0.36;-67.99 
3.672;-0.02;-1.02;-0.31;0.21;-0.07;0.77;-202.95;55.39;145.00;1.07;1.57;-0.33;-67.75 
3.703;-0.05;-1.02;-0.31;-0.42;-1.11;1.46;-201.96;54.44;149.00;1.07;1.57;-0.37;-67.44 
3.733;-0.04;-1.02;-0.29;-1.60;1.39;1.25;-199.98;54.44;147.00;1.06;1.52;-0.42;-67.23 
3.762;-0.04;-1.02;-0.29;-2.71;1.39;1.81;-199.98;59.21;150.00;1.06;1.50;-0.46;-66.95 
3.793;-0.02;-1.02;-0.35;-2.85;-0.14;2.23;-200.97;60.17;148.00;1.08;1.45;-0.51;-66.62 
3.823;-0.02;-1.02;-0.33;-1.95;-0.07;3.13;-198.99;57.30;150.00;1.07;1.38;-0.61;-66.33 
3.853;-0.04;-1.01;-0.32;-0.83;0.63;2.85;-198.00;56.35;150.00;1.06;1.27;-0.73;-66.07 
3.883;-0.06;-1.02;-0.34;-0.07;1.18;2.50;-197.01;61.12;148.00;1.08;1.17;-0.83;-65.84 
3.913;-0.06;-1.02;-0.32;0.00;0.90;2.30;-198.99;57.30;145.00;1.07;1.09;-0.91;-65.60 
3.943;-0.06;-1.02;-0.34;0.14;0.90;0.90;-198.99;60.17;149.00;1.08;1.01;-0.99;-65.39 
3.973;-0.04;-1.00;-0.27;0.42;0.63;0.21;-197.01;62.08;147.00;1.04;0.96;-1.05;-65.22 
4.004;-0.07;-1.00;-0.28;0.28;1.39;-1.11;-199.98;60.17;147.00;1.04;0.94;-1.08;-65.05 
4.034;-0.05;-1.02;-0.30;0.14;2.23;-1.53;-200.97;60.17;147.00;1.06;0.93;-1.09;-64.87 
4.064;-0.03;-1.04;-0.36;0.35;1.88;-1.39;-197.01;58.26;148.00;1.10;0.96;-1.06;-64.70 
4.094;-0.06;-1.04;-0.34;0.35;1.46;-1.18;-196.02;60.17;145.00;1.10;0.97;-1.06;-64.54 
4.124;-0.04;-1.02;-0.30;0.35;1.95;-0.49;-200.97;57.30;149.00;1.06;0.97;-1.06;-64.37 
4.154;-0.05;-1.01;-0.30;-0.07;2.09;0.28;-197.01;59.21;149.00;1.05;0.95;-1.08;-64.22 
4.184;-0.03;-1.02;-0.34;0.07;1.46;0.49;-199.98;60.17;148.00;1.08;0.91;-1.11;-64.05 
4.215;-0.05;-1.02;-0.28;0.70;1.25;0.97;-198.00;58.26;149.00;1.06;0.87;-1.15;-63.91 
4.245;-0.05;-1.02;-0.31;0.00;0.42;1.04;-197.01;60.17;147.00;1.07;0.82;-1.20;-63.77 
4.275;-0.06;-1.02;-0.30;-1.04;0.90;0.70;-199.98;61.12;149.00;1.06;0.77;-1.27;-63.61 
4.305;-0.04;-1.02;-0.30;-1.67;1.95;1.46;-200.97;61.12;148.00;1.06;0.71;-1.33;-63.43 
4.335;-0.04;-1.02;-0.34;-0.97;0.70;2.30;-199.98;57.30;150.00;1.08;0.63;-1.40;-63.24 
4.365;-0.04;-1.02;-0.30;-0.07;-0.28;1.95;-198.99;60.17;146.00;1.06;0.54;-1.52;-63.09 
4.395;-0.07;-1.02;-0.29;0.07;0.14;1.53;-197.01;58.26;149.00;1.06;0.45;-1.61;-62.99 
4.425;-0.06;-1.02;-0.31;-0.28;1.95;1.18;-198.99;59.21;148.00;1.07;0.39;-1.68;-62.86 
4.455;-0.03;-1.01;-0.28;0.00;2.23;1.32;-200.97;60.17;145.00;1.05;0.33;-1.73;-62.74 
4.484;-0.04;-1.02;-0.31;0.07;0.35;1.25;-193.05;59.21;146.00;1.07;0.26;-1.80;-62.63 
4.515;-0.08;-1.01;-0.31;-0.14;0.07;0.42;-197.01;62.08;148.00;1.06;0.18;-1.90;-62.53 
4.545;-0.03;-1.04;-0.30;-0.42;1.67;0.35;-198.99;62.08;146.00;1.08;0.15;-1.94;-62.41 
4.575;-0.05;-1.00;-0.32;-0.56;1.88;0.42;-198.00;58.26;146.00;1.05;0.12;-1.97;-62.29 
4.605;-0.06;-1.02;-0.33;0.00;1.04;0.83;-197.01;58.26;148.00;1.07;0.07;-2.02;-62.16 
4.635;-0.08;-1.01;-0.33;-0.07;0.77;0.35;-195.03;60.17;146.00;1.07;0.02;-2.08;-62.05 
4.665;-0.06;-1.02;-0.32;-0.28;1.74;-0.35;-198.00;59.21;149.00;1.07;-0.02;-2.12;-61.96 
4.695;-0.06;-1.02;-0.31;-0.28;1.74;-0.35;-194.04;61.12;146.00;1.07;-0.05;-2.15;-61.84 
4.726;-0.09;-1.01;-0.33;0.00;0.07;-0.90;-197.01;63.99;150.00;1.07;-0.06;-2.17;-61.76 
4.756;-0.08;-1.02;-0.30;-1.04;0.14;-0.90;-198.99;60.17;146.00;1.07;-0.08;-2.22;-61.68 
4.786;-0.06;-1.02;-0.31;-1.88;2.64;-1.04;-198.99;60.17;152.00;1.07;-0.07;-2.22;-61.56 
4.816;-0.06;-1.02;-0.33;-1.32;0.97;0.83;-200.97;61.12;149.00;1.07;-0.09;-2.23;-61.44 
4.845;-0.06;-1.00;-0.33;-0.28;-1.46;0.56;-196.02;62.08;148.00;1.05;-0.14;-2.30;-61.31 
4.875;-0.06;-1.02;-0.28;-0.14;1.04;-0.77;-197.01;60.17;147.00;1.06;-0.17;-2.37;-61.23 
4.905;-0.05;-1.01;-0.34;-0.70;2.50;-0.83;-197.01;63.99;148.00;1.07;-0.18;-2.38;-61.15 
4.935;-0.04;-1.02;-0.31;-0.49;1.18;-0.70;-194.04;61.12;149.00;1.07;-0.18;-2.37;-61.05 
4.965;-0.06;-1.02;-0.30;-0.21;0.42;-0.49;-196.02;59.21;149.00;1.06;-0.19;-2.39;-60.97 
4.995;-0.06;-1.00;-0.30;-0.35;0.56;-0.63;-196.02;56.35;148.00;1.05;-0.21;-2.43;-60.91 
5.026;-0.06;-1.02;-0.33;-0.70;1.18;-1.67;-200.97;60.17;145.00;1.07;-0.20;-2.44;-60.84 
5.055;-0.06;-1.02;-0.30;-0.70;2.09;-1.67;-200.97;60.17;148.00;1.06;-0.18;-2.42;-60.78 
5.085;-0.01;-1.02;-0.32;-0.56;1.53;-0.90;-198.00;59.21;148.00;1.07;-0.16;-2.40;-60.69 
5.116;-0.05;-1.02;-0.33;-0.21;0.70;-0.63;-198.99;61.12;146.00;1.07;-0.16;-2.41;-60.61 
5.146;-0.06;-1.02;-0.28;-0.35;0.42;-0.63;-197.01;57.30;149.00;1.06;-0.18;-2.45;-60.54 
5.176;-0.06;-1.00;-0.27;-0.77;1.04;-1.11;-194.04;57.30;146.00;1.04;-0.18;-2.46;-60.49 
5.206;-0.04;-1.02;-0.33;-0.49;1.53;-1.25;-198.00;58.26;148.00;1.07;-0.15;-2.44;-60.42 
5.236;-0.06;-1.01;-0.29;-0.21;1.81;-0.63;-198.99;56.35;151.00;1.05;-0.14;-2.43;-60.37 
5.265;-0.06;-1.02;-0.30;-0.21;0.00;-0.49;-197.01;56.35;149.00;1.06;-0.15;-2.45;-60.32 
5.295;-0.05;-1.02;-0.30;-0.63;0.00;-1.46;-198.99;60.17;147.00;1.06;-0.16;-2.49;-60.25 
5.326;-0.05;-1.02;-0.29;-1.11;2.43;-0.90;-198.00;59.21;146.00;1.06;-0.13;-2.47;-60.21 
5.356;-0.04;-1.03;-0.34;-0.83;1.95;-1.04;-199.98;56.35;148.00;1.09;-0.13;-2.46;-60.14 
5.386;-0.05;-1.00;-0.31;-0.14;0.77;-0.70;-197.01;59.21;144.00;1.05;-0.12;-2.46;-60.09 
5.416;-0.02;-1.02;-0.33;-0.14;0.49;-0.28;-198.00;57.30;149.00;1.07;-0.14;-2.49;-60.04 
5.445;-0.05;-1.02;-0.27;-0.42;1.04;-0.70;-200.97;57.30;150.00;1.06;-0.14;-2.52;-60.00 
5.475;-0.04;-1.02;-0.34;-0.35;1.32;-0.90;-198.99;58.26;150.00;1.08;-0.14;-2.52;-59.97 
5.505;-0.05;-1.02;-0.30;-0.21;1.60;-1.18;-200.97;56.35;150.00;1.06;-0.14;-2.52;-59.94 
5.536;-0.05;-1.02;-0.28;-0.42;1.18;-0.77;-198.99;54.44;148.00;1.06;-0.13;-2.52;-59.92 
5.566;-0.04;-1.03;-0.31;-0.42;0.83;-1.11;-201.96;57.30;149.00;1.08;-0.13;-2.53;-59.89 
5.596;-0.03;-1.02;-0.28;-0.70;1.11;-1.32;-199.98;57.30;151.00;1.06;-0.13;-2.54;-59.86 
5.627;-0.05;-1.02;-0.30;-0.70;1.32;-0.63;-201.96;57.30;151.00;1.06;-0.13;-2.54;-59.82 
5.657;-0.04;-1.02;-0.31;-0.35;1.32;-0.63;-198.00;56.35;150.00;1.07;-0.13;-2.55;-59.79 
5.686;-0.02;-1.02;-0.29;-0.21;1.18;-0.70;-199.98;56.35;149.00;1.06;-0.13;-2.55;-59.76 
5.716;-0.05;-1.03;-0.29;-0.35;1.18;-0.28;-198.00;57.30;148.00;1.07;-0.14;-2.57;-59.74 
5.746;-0.04;-1.02;-0.33;-0.35;1.04;0.07;-200.97;57.30;146.00;1.07;-0.17;-2.60;-59.72 
5.776;-0.05;-1.02;-0.32;-0.63;1.25;-0.07;-199.98;59.21;147.00;1.07;-0.18;-2.62;-59.69 
5.806;-0.04;-1.02;-0.34;-0.56;0.56;0.07;-200.97;58.26;148.00;1.08;-0.21;-2.65;-59.68 
5.837;-0.02;-1.02;-0.30;-0.83;0.83;-0.49;-200.97;57.30;147.00;1.06;-0.23;-2.69;-59.65 
5.867;-0.03;-1.04;-0.33;-0.83;1.60;-0.28;-199.98;56.35;148.00;1.09;-0.23;-2.70;-59.57 
5.897;-0.02;-1.02;-0.34;-0.07;1.39;-0.28;-201.96;54.44;151.00;1.08;-0.25;-2.71;-59.53 
5.927;-0.03;-1.02;-0.30;-0.28;0.70;0.00;-200.97;54.44;149.00;1.06;-0.26;-2.73;-59.52 
5.957;-0.05;-1.02;-0.33;-0.70;1.25;0.07;-202.95;59.21;147.00;1.07;-0.28;-2.75;-59.51 
5.986;-0.06;-1.02;-0.34;-0.63;1.53;-0.21;-203.94;57.30;147.00;1.08;-0.29;-2.76;-59.49 
6.016;-0.02;-1.05;-0.32;-0.21;1.25;-0.14;-197.01;55.39;150.00;1.10;-0.30;-2.77;-59.45 
6.046;-0.02;-1.00;-0.32;-0.28;1.32;0.35;-198.99;55.39;147.00;1.05;-0.32;-2.79;-59.46 
6.076;-0.03;-1.02;-0.32;-0.21;1.11;0.90;-197.01;55.39;148.00;1.07;-0.35;-2.81;-59.47 
6.106;-0.04;-1.02;-0.34;-0.35;1.04;1.25;-199.98;55.39;148.00;1.08;-0.40;-2.85;-59.48 
6.137;-0.03;-1.02;-0.30;-0.83;0.77;1.53;-199.98;58.26;148.00;1.06;-0.45;-2.90;-59.45 
6.167;-0.02;-1.01;-0.30;-0.77;0.83;1.46;-195.03;58.26;148.00;1.05;-0.52;-2.96;-59.45 
6.196;-0.03;-1.03;-0.32;-0.35;1.60;0.70;-202.95;56.35;149.00;1.08;-0.57;-3.02;-59.44 
6.226;-0.05;-1.01;-0.33;-0.14;1.53;1.04;-198.99;56.35;147.00;1.06;-0.64;-3.08;-59.42 
6.256;-0.04;-1.02;-0.31;-0.07;1.18;0.90;-201.96;56.35;150.00;1.07;-0.68;-3.11;-59.41 
6.286;-0.03;-1.02;-0.33;-0.49;1.32;0.77;-200.97;58.26;147.00;1.07;-0.72;-3.16;-59.40 
6.316;-0.04;-1.02;-0.32;0.07;2.09;1.18;-198.00;54.44;147.00;1.07;-0.77;-3.19;-59.39 
6.347;-0.06;-1.00;-0.31;0.42;0.97;1.18;-198.00;55.39;151.00;1.05;-0.84;-3.24;-59.40 
6.376;-0.07;-1.01;-0.31;-0.49;0.56;-0.07;-198.00;58.26;150.00;1.06;-0.87;-3.28;-59.41 
6.406;-0.02;-1.02;-0.31;-1.18;2.50;-0.14;-198.00;57.30;151.00;1.07;-0.88;-3.28;-59.41 
6.437;-0.04;-1.02;-0.32;-0.35;2.09;0.83;-198.00;57.30;148.00;1.07;-0.90;-3.29;-59.38 
6.467;-0.02;-1.01;-0.28;0.56;0.35;1.46;-197.01;58.26;150.00;1.05;-0.94;-3.32;-59.36 
6.497;-0.04;-1.02;-0.30;0.63;0.14;0.90;-201.96;61.12;150.00;1.06;-1.00;-3.38;-59.39 
6.527;-0.04;-1.02;-0.34;-0.07;1.25;0.56;-198.99;57.30;148.00;1.08;-1.05;-3.43;-59.41 
6.557;-0.04;-1.02;-0.31;-0.21;2.23;0.63;-198.00;59.21;152.00;1.07;-1.09;-3.45;-59.42 
6.587;-0.06;-1.02;-0.27;0.07;1.32;1.18;-199.98;57.30;147.00;1.06;-1.15;-3.50;-59.40 
6.617;-0.04;-1.02;-0.31;-0.21;0.07;1.11;-198.99;59.21;149.00;1.07;-1.20;-3.55;-59.42 
6.648;-0.05;-1.02;-0.32;-0.42;0.77;0.77;-196.02;57.30;148.00;1.07;-1.26;-3.62;-59.40 
6.678;-0.04;-1.02;-0.30;-0.97;1.18;0.83;-198.00;58.26;149.00;1.06;-1.30;-3.66;-59.36 
6.708;-0.06;-1.02;-0.30;-0.70;1.39;0.83;-198.00;60.17;148.00;1.06;-1.34;-3.69;-59.34 
6.737;-0.03;-1.02;-0.34;0.28;1.11;0.07;-198.99;59.21;149.00;1.08;-1.37;-3.72;-59.35 
6.767;-0.04;-1.02;-0.31;0.00;0.77;-0.14;-198.99;58.26;147.00;1.07;-1.40;-3.75;-59.39 
6.797;-0.06;-1.02;-0.31;-0.63;0.97;-0.77;-198.99;59.21;147.00;1.07;-1.41;-3.77;-59.40 
6.827;-0.06;-1.03;-0.30;-0.90;1.18;-0.28;-199.98;61.12;148.00;1.07;-1.42;-3.77;-59.40 
6.857;-0.04;-1.02;-0.32;-0.70;0.56;-0.63;-196.02;59.21;151.00;1.07;-1.43;-3.79;-59.40 
6.887;-0.06;-1.02;-0.30;0.49;0.83;-0.63;-195.03;58.26;151.00;1.06;-1.43;-3.79;-59.41 
6.917;-0.06;-1.02;-0.30;0.00;0.21;-1.32;-199.98;60.17;149.00;1.06;-1.42;-3.80;-59.44 
6.948;-0.05;-1.02;-0.32;-1.39;1.53;-1.46;-198.00;58.26;147.00;1.07;-1.38;-3.77;-59.45 
6.978;-0.06;-1.02;-0.34;-1.53;2.09;0.07;-199.98;58.26;145.00;1.08;-1.34;-3.72;-59.43 
7.008;-0.06;-1.02;-0.30;0.00;-0.35;0.14;-200.97;60.17;150.00;1.06;-1.36;-3.74;-59.38 
7.038;-0.06;-1.01;-0.31;0.42;-0.35;-0.21;-197.01;56.35;148.00;1.06;-1.37;-3.77;-59.40 
7.067;-0.04;-1.02;-0.34;-0.35;1.74;-1.11;-201.96;60.17;148.00;1.08;-1.37;-3.77;-59.46 
7.097;0.00;-1.02;-0.31;-0.97;2.09;-1.25;-198.00;59.21;148.00;1.07;-1.33;-3.73;-59.47 
7.127;-0.03;-1.02;-0.31;-0.14;0.77;-0.77;-197.01;60.17;146.00;1.07;-1.30;-3.69;-59.48 
7.158;-0.06;-1.02;-0.34;0.14;0.07;-0.42;-198.99;60.17;147.00;1.08;-1.29;-3.69;-59.49 
7.188;-0.06;-1.02;-0.32;-0.63;0.83;-1.04;-198.99;57.30;149.00;1.07;-1.28;-3.68;-59.53 
7.218;-0.06;-1.02;-0.30;-0.83;1.60;-1.11;-198.99;59.21;149.00;1.06;-1.27;-3.67;-59.55 
7.249;-0.04;-1.02;-0.30;-0.42;1.11;-0.83;-200.97;56.35;147.00;1.06;-1.24;-3.64;-59.57 
7.279;-0.05;-1.02;-0.30;-0.21;0.28;-0.77;-199.98;60.17;146.00;1.06;-1.23;-3.63;-59.58 
7.308;-0.05;-1.02;-0.26;-0.42;0.42;-0.56;-198.99;56.35;148.00;1.05;-1.20;-3.61;-59.62 
7.338;-0.02;-1.02;-0.34;-0.63;1.25;-0.83;-199.98;54.44;146.00;1.08;-1.18;-3.59;-59.63 
7.368;-0.05;-1.02;-0.32;-0.56;1.53;-0.63;-198.99;57.30;150.00;1.07;-1.16;-3.56;-59.65 
7.398;-0.04;-1.02;-0.30;-0.63;1.11;-0.56;-198.99;58.26;149.00;1.06;-1.14;-3.55;-59.65 
7.428;-0.06;-1.02;-0.33;-0.63;0.63;-0.56;-198.00;57.30;150.00;1.07;-1.14;-3.56;-59.64 
7.459;-0.06;-1.02;-0.30;-0.56;1.39;-0.77;-198.00;56.35;149.00;1.06;-1.13;-3.55;-59.65 
7.489;-0.02;-1.02;-0.31;-0.21;1.04;-0.70;-201.96;62.08;145.00;1.07;-1.11;-3.53;-59.66 
7.518;-0.04;-1.01;-0.32;-0.63;0.28;-1.25;-198.99;54.44;148.00;1.06;-1.09;-3.51;-59.68 
7.547;-0.03;-1.02;-0.34;-0.77;0.90;-1.39;-199.98;57.30;147.00;1.08;-1.06;-3.48;-59.70 
7.577;-0.05;-1.04;-0.32;-0.97;1.60;-0.97;-202.95;57.30;150.00;1.09;-1.03;-3.45;-59.72 
7.607;-0.03;-1.02;-0.33;-0.21;1.32;-1.39;-199.98;56.35;147.00;1.07;-1.01;-3.42;-59.76 
7.637;-0.03;-1.01;-0.33;0.14;0.97;-0.90;-198.00;58.26;147.00;1.06;-0.99;-3.41;-59.78 
7.667;-0.03;-1.02;-0.31;-0.14;1.39;-0.77;-200.97;56.35;147.00;1.07;-0.97;-3.38;-59.81 
7.697;-0.06;-1.01;-0.30;-0.28;1.32;-0.77;-198.99;54.44;149.00;1.06;-0.95;-3.36;-59.85 
7.726;0.00;-0.99;-0.35;-0.28;1.25;-1.11;-200.97;56.35;147.00;1.05;-0.94;-3.35;-59.86 
7.757;-0.03;-1.02;-0.31;-0.56;1.18;-1.25;-200.97;56.35;148.00;1.07;-0.92;-3.32;-59.87 
7.787;-0.03;-1.02;-0.33;-0.35;1.32;-0.70;-199.98;54.44;148.00;1.07;-0.90;-3.30;-59.90 
7.817;-0.02;-1.02;-0.30;-0.56;1.18;-0.35;-199.98;54.44;147.00;1.06;-0.89;-3.29;-59.90 
7.847;-0.04;-1.03;-0.30;-0.49;0.83;-0.21;-201.96;57.30;151.00;1.07;-0.87;-3.27;-59.90 
7.877;-0.04;-1.02;-0.31;-0.49;1.11;0.21;-199.98;56.35;147.00;1.07;-0.87;-3.27;-59.92 
7.907;-0.03;-1.02;-0.32;-0.49;1.04;-0.14;-201.96;54.44;148.00;1.07;-0.87;-3.26;-59.95 
7.936;-0.02;-1.02;-0.31;-0.35;1.04;-0.42;-202.95;57.30;148.00;1.07;-0.86;-3.24;-59.98 
7.966;-0.06;-1.01;-0.33;-0.42;0.90;-0.28;-200.97;55.39;146.00;1.06;-0.86;-3.24;-59.98 
7.996;-0.05;-1.02;-0.31;-0.28;1.18;-0.83;-198.99;54.44;148.00;1.07;-0.84;-3.21;-60.00 
8.026;-0.04;-1.02;-0.30;-0.28;1.18;-0.63;-201.96;57.30;146.00;1.06;-0.83;-3.20;-60.02 
8.057;-0.03;-1.02;-0.30;-0.35;1.11;-0.77;-198.99;55.39;147.00;1.06;-0.82;-3.19;-60.06 
8.087;-0.05;-1.02;-0.33;-0.35;1.81;-0.21;-200.97;58.26;149.00;1.07;-0.80;-3.15;-60.09 
8.117;-0.03;-1.02;-0.32;-0.28;1.18;0.56;-198.00;52.53;148.00;1.07;-0.80;-3.14;-60.11 
8.146;-0.03;-1.04;-0.30;-0.49;1.04;0.28;-202.95;53.48;147.00;1.08;-0.81;-3.14;-60.12 
8.176;-0.03;-1.02;-0.30;-0.83;1.67;0.42;-199.98;55.39;151.00;1.06;-0.80;-3.12;-60.12 
8.206;-0.02;-1.03;-0.32;-0.97;1.39;1.11;-198.99;55.39;149.00;1.08;-0.80;-3.10;-60.12 
8.236;-0.04;-1.02;-0.32;-0.42;0.97;1.39;-200.97;56.35;146.00;1.07;-0.83;-3.12;-60.11 
8.267;-0.03;-1.02;-0.31;-0.56;0.63;1.74;-200.97;54.44;154.00;1.07;-0.87;-3.16;-60.12 
8.297;-0.05;-1.02;-0.30;-0.90;1.04;1.67;-200.97;60.17;151.00;1.06;-0.92;-3.20;-60.13 
8.327;-0.04;-1.02;-0.35;-1.04;1.25;0.97;-198.00;57.30;151.00;1.08;-0.98;-3.24;-60.12 
8.358;-0.03;-1.02;-0.30;-0.56;1.04;0.90;-198.00;57.30;148.00;1.06;-1.03;-3.28;-60.11 
8.388;-0.06;-1.02;-0.32;-0.90;1.32;1.04;-197.01;58.26;150.00;1.07;-1.07;-3.30;-60.11 
8.418;-0.05;-1.02;-0.32;-0.83;0.70;1.39;-201.96;57.30;146.00;1.07;-1.10;-3.32;-60.12 
8.448;-0.04;-1.02;-0.31;-1.32;0.56;1.95;-199.98;57.30;146.00;1.07;-1.15;-3.36;-60.12 
8.478;-0.04;-1.04;-0.32;-1.32;0.70;1.88;-198.99;54.44;152.00;1.09;-1.21;-3.42;-60.11 
8.508;-0.05;-1.02;-0.34;-0.70;1.11;2.23;-199.98;55.39;149.00;1.08;-1.27;-3.47;-60.10 
8.538;-0.05;-1.01;-0.36;0.00;1.11;2.09;-196.02;57.30;150.00;1.07;-1.34;-3.51;-60.12 
8.568;-0.06;-1.02;-0.31;-0.35;0.49;1.32;-198.00;60.17;147.00;1.07;-1.39;-3.56;-60.13 
8.598;-0.06;-1.01;-0.34;-0.49;0.97;1.32;-199.98;58.26;150.00;1.07;-1.43;-3.59;-60.12 
8.628;-0.05;-1.04;-0.32;-0.35;1.18;1.04;-198.99;58.26;147.00;1.09;-1.46;-3.60;-60.13 
8.658;-0.06;-1.00;-0.30;-0.70;1.04;0.77;-199.98;59.21;152.00;1.05;-1.49;-3.62;-60.15 
8.688;-0.07;-1.02;-0.30;-0.49;1.11;1.11;-197.01;61.12;152.00;1.07;-1.53;-3.64;-60.17 
8.718;-0.06;-1.02;-0.32;-0.07;1.39;0.77;-197.01;59.21;147.00;1.07;-1.56;-3.66;-60.16 
8.748;-0.06;-1.02;-0.31;0.63;1.11;0.63;-197.01;59.21;151.00;1.07;-1.59;-3.68;-60.16 
8.779;-0.06;-1.02;-0.33;-0.07;0.42;0.63;-197.01;58.26;147.00;1.07;-1.62;-3.69;-60.21 
8.808;-0.06;-1.02;-0.30;-1.46;0.90;0.28;-197.01;61.12;147.00;1.06;-1.62;-3.70;-60.21 
8.838;-0.06;-1.02;-0.33;-1.67;1.60;0.90;-197.01;59.21;150.00;1.07;-1.61;-3.67;-60.22 
8.869;-0.08;-1.02;-0.35;0.14;0.21;0.97;-195.03;61.12;149.00;1.08;-1.63;-3.67;-60.17 
8.899;-0.04;-1.02;-0.26;0.28;0.56;-0.21;-197.01;59.21;149.00;1.05;-1.66;-3.70;-60.20 
8.929;-0.06;-1.01;-0.33;-0.63;1.53;-0.63;-198.00;59.21;148.00;1.06;-1.66;-3.69;-60.23 
8.959;-0.06;-1.01;-0.34;-1.04;1.53;-0.77;-194.04;59.21;148.00;1.07;-1.63;-3.65;-60.22 
8.988;-0.06;-1.02;-0.29;-0.28;0.77;-0.90;-197.01;59.21;149.00;1.06;-1.61;-3.62;-60.24 
9.017;-0.05;-1.00;-0.33;-0.35;0.63;-0.83;-198.99;58.26;149.00;1.05;-1.58;-3.59;-60.25 
9.047;-0.05;-1.02;-0.34;-0.56;1.25;-1.18;-195.03;59.21;150.00;1.08;-1.55;-3.55;-60.26 
9.078;-0.06;-1.02;-0.32;-0.63;1.32;-0.63;-197.01;59.21;149.00;1.07;-1.53;-3.51;-60.28 
9.108;-0.05;-1.02;-0.29;-0.21;0.49;-0.42;-198.00;61.12;149.00;1.06;-1.52;-3.49;-60.30 
9.138;-0.06;-1.02;-0.31;0.28;0.56;-0.97;-199.98;59.21;148.00;1.07;-1.49;-3.47;-60.33 
9.169;-0.05;-1.02;-0.35;-0.07;1.32;-1.60;-198.00;59.21;145.00;1.08;-1.46;-3.44;-60.37 
9.199;-0.05;-1.03;-0.29;-0.28;1.60;-1.32;-193.05;61.12;147.00;1.07;-1.42;-3.38;-60.41 
9.228;-0.03;-1.02;-0.34;-0.42;1.18;-0.97;-199.98;60.17;146.00;1.08;-1.38;-3.33;-60.43 
9.258;-0.02;-1.02;-0.32;-0.42;0.28;-0.83;-198.99;60.17;148.00;1.07;-1.35;-3.30;-60.43 
9.288;-0.05;-1.02;-0.34;-0.28;0.56;-1.04;-198.99;59.21;146.00;1.08;-1.30;-3.25;-60.45 
9.318;-0.07;-1.01;-0.35;-0.35;1.53;-1.53;-198.99;58.26;148.00;1.07;-1.25;-3.20;-60.46 
9.348;-0.05;-1.02;-0.34;-0.49;1.60;-1.32;-198.99;57.30;150.00;1.08;-1.22;-3.15;-60.49 
9.379;-0.04;-1.03;-0.30;-0.42;1.25;-0.90;-198.00;56.35;147.00;1.07;-1.18;-3.10;-60.52 
9.409;-0.06;-1.03;-0.32;-0.28;0.63;-1.25;-197.01;56.35;151.00;1.08;-1.16;-3.07;-60.57 
9.439;-0.06;-1.02;-0.30;-0.90;1.11;-1.25;-196.02;58.26;149.00;1.06;-1.12;-3.03;-60.58 
9.468;-0.05;-1.02;-0.33;-1.25;1.88;-1.18;-196.02;57.30;151.00;1.07;-1.06;-2.96;-60.57 
9.498;-0.03;-1.03;-0.34;-0.21;1.18;-0.70;-198.99;58.26;148.00;1.09;-1.04;-2.92;-60.57 
9.528;-0.03;-1.02;-0.33;0.00;1.25;-0.28;-198.99;56.35;148.00;1.07;-1.01;-2.88;-60.61 
9.558;-0.02;-1.03;-0.31;0.35;0.77;-0.14;-199.98;62.08;148.00;1.08;-0.99;-2.84;-60.65 
9.588;-0.04;-1.02;-0.34;2.09;1.25;-1.74;-198.99;56.35;148.00;1.08;-0.97;-2.81;-60.72 
9.618;-0.03;-1.02;-0.38;2.50;0.97;-1.81;-199.98;59.21;152.00;1.09;-0.89;-2.70;-60.82 
9.648;-0.06;-0.96;-0.33;4.94;-0.14;-0.83;-199.98;57.30;148.00;1.02;-0.89;-2.72;-60.92 
9.678;-0.11;-0.94;-0.32;8.63;8.49;-4.80;-201.96;57.30;146.00;1.00;-0.86;-2.64;-61.12 
9.708;-0.16;-0.90;-0.34;13.36;10.09;-12.17;-200.97;54.44;145.00;0.98;-0.74;-2.39;-61.48 
