Time(s) acc_x(g) acc_y(g) acc_z(g) gyr_x(°/s) gyr_y(°/s) gyr_z(°/s) mag_x(G) mag_y(G) mag_z(G) SVM(g) yaw(°) pitch(°) roll(°)
0.000;-0.31;0.01;0.78;1.32;2.71;-1.46;357.32;-242.85;-372.00;0.84;-136.79;-20.03;0.87 
0.030;-0.30;0.01;0.87;0.49;-9.95;-0.77;358.31;-244.76;-373.00;0.92;-136.73;-19.92;0.92 
0.059;-0.27;0.01;1.01;1.32;-1.39;-2.16;356.32;-244.76;-370.00;1.05;-136.73;-19.60;0.97 
0.088;-0.30;0.01;0.84;1.46;12.87;-2.64;359.30;-240.93;-375.00;0.89;-136.60;-19.77;1.00 
0.118;-0.31;0.00;0.74;1.18;-0.56;-2.37;360.29;-241.89;-373.00;0.80;-136.44;-20.07;1.04 
0.147;-0.28;0.00;0.86;1.04;-8.00;-1.88;359.30;-242.85;-377.00;0.90;-136.39;-19.87;1.05 
0.176;-0.30;0.02;0.85;2.99;1.81;-4.03;361.29;-244.76;-369.00;0.90;-136.30;-19.76;1.10 
0.206;-0.33;0.02;0.81;3.55;4.59;-5.29;359.30;-240.93;-376.00;0.87;-136.13;-19.85;1.18 
0.236;-0.31;0.10;0.78;-2.92;2.85;-8.97;360.29;-239.02;-371.00;0.85;-135.90;-20.04;1.19 
0.266;-0.26;0.06;0.78;-1.32;-25.60;-19.55;356.32;-239.98;-374.00;0.82;-135.49;-19.84;0.99 
0.297;-0.02;0.03;0.90;8.49;-20.38;-27.97;360.29;-239.98;-375.00;0.90;-134.92;-18.93;0.91 
0.327;0.05;-0.10;0.88;13.50;-27.55;-22.89;358.31;-244.76;-372.00;0.89;-134.11;-18.06;0.92 
0.357;-0.20;0.13;1.28;1.18;-22.05;-23.44;356.32;-244.76;-371.00;1.30;-133.66;-16.93;0.96 
0.387;-0.10;0.07;1.28;0.14;43.27;-42.02;357.32;-246.67;-373.00;1.29;-132.73;-16.87;0.74 
0.416;-0.17;0.00;0.76;7.93;73.46;-50.57;352.35;-232.33;-374.00;0.78;-131.11;-18.52;0.41 
0.446;-0.27;0.02;0.43;15.30;38.19;-49.67;352.35;-215.12;-361.00;0.51;-129.29;-20.32;0.23 
0.476;-0.26;0.05;0.66;12.17;-21.15;-48.56;353.35;-204.60;-360.00;0.71;-127.76;-20.68;0.16 
0.507;-0.14;-0.02;1.10;6.05;-7.65;-51.34;354.34;-203.65;-360.00;1.11;-126.36;-20.00;-0.11 
0.537;-0.09;-0.04;1.06;5.77;34.23;-53.08;350.37;-196.95;-363.00;1.06;-124.74;-20.13;-0.53 
0.567;-0.19;0.05;0.77;8.07;41.88;-55.51;345.41;-188.35;-357.00;0.79;-123.00;-21.08;-0.88 
0.598;-0.22;0.11;0.68;7.58;28.94;-60.59;341.43;-166.36;-351.00;0.72;-121.09;-22.05;-1.21 
0.628;-0.18;0.10;0.72;6.12;11.76;-68.38;336.47;-169.23;-348.00;0.75;-119.12;-22.46;-1.62 
0.658;-0.10;0.05;0.82;4.03;5.70;-74.57;330.52;-154.89;-345.00;0.83;-117.11;-22.39;-2.16 
0.688;-0.08;0.02;0.90;1.53;18.78;-77.84;320.59;-147.24;-342.00;0.90;-114.96;-22.27;-2.86 
0.718;-0.14;0.01;0.81;-0.56;27.13;-78.96;314.64;-133.85;-339.00;0.82;-112.59;-22.53;-3.72 
0.748;-0.14;-0.09;0.79;-1.18;20.80;-75.13;305.70;-123.34;-335.00;0.81;-110.33;-22.81;-4.66 
0.778;-0.12;-0.12;0.89;-2.43;23.03;-64.63;294.79;-113.77;-331.00;0.91;-108.26;-22.89;-5.59 
0.809;-0.18;-0.02;0.82;-5.36;34.37;-57.18;290.82;-106.13;-328.00;0.84;-106.39;-23.23;-6.47 
0.839;-0.18;0.02;0.66;-7.23;36.17;-55.44;275.93;-91.78;-320.00;0.68;-104.69;-23.83;-7.24 
0.869;-0.14;0.00;0.63;-6.82;34.02;-56.49;269.97;-85.09;-315.00;0.65;-103.04;-24.34;-8.00 
0.899;-0.11;0.04;0.58;-7.23;27.48;-53.43;262.03;-77.44;-313.00;0.59;-101.45;-24.66;-8.77 
0.929;-0.16;0.17;0.63;-16.90;22.54;-57.18;251.11;-73.62;-307.00;0.67;-99.95;-24.84;-9.56 
0.959;-0.16;0.18;0.59;-25.60;34.23;-67.06;236.23;-62.15;-298.00;0.64;-98.31;-24.95;-10.58 
0.989;-0.14;0.06;0.51;-34.57;47.37;-77.22;221.34;-51.63;-296.00;0.53;-96.22;-25.37;-12.02 
1.019;-0.14;0.06;0.42;-45.63;48.83;-75.69;207.44;-43.98;-287.00;0.45;-93.92;-25.89;-13.87 
1.048;-0.09;0.12;0.42;-52.03;46.54;-76.87;187.59;-38.24;-277.00;0.45;-91.71;-26.24;-15.83 
1.078;-0.05;0.16;0.41;-49.60;54.68;-88.07;171.71;-29.64;-273.00;0.44;-89.39;-26.52;-17.77 
1.109;-0.07;0.10;0.34;-36.80;57.67;-95.44;144.91;-19.12;-257.00;0.36;-86.51;-26.78;-19.81 
1.139;0.01;0.11;0.25;-25.46;66.23;-108.10;126.05;-11.47;-243.00;0.27;-83.02;-27.09;-22.11 
1.168;-0.02;0.19;0.16;-17.46;83.34;-133.08;102.23;-4.78;-229.00;0.25;-79.28;-26.94;-23.83 
1.198;-0.07;-0.06;0.18;-2.92;119.58;-170.02;90.32;0.96;-222.00;0.20;-74.40;-27.08;-25.82 
1.228;-4.21;-1.29;0.47;-67.62;143.03;-260.31;23.82;15.30;-178.00;4.43;-66.76;-27.83;-29.86 
1.258;-0.12;0.01;0.50;-133.91;-96.35;-53.91;-13.90;10.52;-167.00;0.51;-61.19;-25.33;-34.75 
1.287;0.98;0.39;0.59;-178.43;33.95;-202.50;-41.69;0.00;-170.00;1.21;-58.86;-21.46;-39.35 
1.318;1.06;-0.71;0.67;-80.77;17.88;-163.34;-87.34;-13.39;-156.00;1.44;-52.52;-15.90;-44.75 
1.348;-1.30;-2.12;0.90;-31.93;-94.47;-69.57;-131.02;-25.81;-144.00;2.64;-46.87;-13.04;-49.73 
1.378;-0.26;-1.19;0.37;-263.10;328.97;-356.03;-149.87;-25.81;-122.00;1.27;-41.57;-14.05;-52.04 
1.409;0.56;-7.78;-1.43;-837.50;168.21;-247.79;-226.30;-58.32;-42.00;7.93;-23.42;-8.92;-67.43 
1.439;0.52;-1.35;-3.32;-496.28;-37.57;-42.92;-256.08;-94.65;112.00;3.62;0.47;-2.21;-85.42 
1.469;-0.31;-1.45;-2.38;52.24;-100.80;64.70;-225.31;-87.00;160.00;2.80;3.41;-4.05;-78.55 
1.499;0.04;-0.79;-1.00;243.69;-167.93;-66.02;-237.22;-82.22;118.00;1.28;2.29;-3.45;-82.05 
1.529;0.95;-0.24;0.40;145.25;-85.91;-5.70;-250.12;-84.14;60.00;1.06;-0.43;-1.54;-88.08 
1.559;0.14;-0.84;0.44;-16.35;-41.60;-6.12;-248.14;-79.36;41.00;0.96;-1.16;-0.39;-89.16 
1.589;-0.06;-0.90;1.02;-97.53;-9.04;43.06;-247.14;-81.27;42.00;1.36;1.80;-0.05;-88.40 
1.620;0.02;-0.42;-0.60;-14.40;205.84;-21.91;-242.18;-78.40;65.00;0.73;3.20;-0.04;-86.80 
1.650;-0.06;-1.23;-1.71;-8.14;51.34;-47.79;-249.13;-87.96;84.00;2.11;6.11;2.14;-84.92 
1.680;0.42;-1.40;-0.79;53.08;-59.83;6.26;-256.08;-93.70;81.00;1.66;7.38;2.80;-84.12 
1.710;0.22;-1.40;-0.09;40.00;-53.50;21.36;-256.08;-86.05;58.00;1.42;6.80;2.77;-84.93 
1.739;0.02;-1.29;0.06;24.00;29.91;-13.57;-256.08;-87.00;51.00;1.29;6.33;2.92;-85.41 
1.769;0.16;-1.21;-0.26;16.42;30.96;-1.32;-257.07;-87.00;50.00;1.25;6.69;3.66;-85.12 
1.799;0.01;-0.98;-0.29;21.98;20.87;5.63;-259.05;-87.96;54.00;1.02;6.96;4.16;-84.83 
1.830;-0.10;-0.91;-0.16;29.63;17.81;9.25;-256.08;-87.00;48.00;0.93;6.67;4.18;-84.99 
1.860;-0.06;-0.94;-0.13;27.76;14.61;6.89;-256.08;-85.09;47.00;0.95;6.24;4.23;-85.21 
1.889;-0.05;-1.02;-0.06;24.42;13.15;5.50;-257.07;-87.00;44.00;1.02;5.96;4.38;-85.27 
1.920;-0.07;-1.02;0.00;18.85;11.76;5.91;-252.11;-87.00;42.00;1.02;5.73;4.48;-85.30 
1.950;-0.03;-1.06;-0.06;12.80;12.94;4.24;-507.19;-84.14;40.00;1.06;5.65;4.62;-85.23 
1.980;-0.09;-1.03;-0.09;5.22;8.77;3.90;-252.11;-85.09;42.00;1.04;5.82;4.78;-85.07 
2.009;-0.09;-1.01;-0.07;0.56;7.30;-0.70;-249.13;-82.22;42.00;1.02;6.23;4.98;-84.81 
2.039;-0.07;-0.99;-0.14;-2.02;0.14;-2.43;-252.11;-83.18;45.00;1.00;6.89;5.27;-84.40 
2.069;0.00;-1.06;-0.14;2.71;-1.11;-3.76;-256.08;-85.09;43.00;1.07;7.57;5.64;-83.93 
2.099;0.06;-1.10;-0.08;-0.49;0.28;2.02;-251.11;-85.09;41.00;1.10;8.15;5.98;-83.52 
2.129;0.01;-1.09;-0.15;-2.85;-1.18;10.78;-252.11;-84.14;44.00;1.10;8.66;6.14;-83.21 
2.159;-0.07;-1.03;-0.14;-0.70;-1.18;9.60;-250.12;-83.18;43.00;1.04;8.94;6.06;-83.09 
2.189;-0.10;-0.98;-0.08;2.71;-2.71;6.68;-249.13;-80.31;47.00;0.99;9.13;5.98;-83.01 
2.220;-0.06;-1.02;-0.04;-4.52;-2.99;3.34;-247.14;-80.31;41.00;1.02;9.58;6.15;-82.71 
2.250;0.02;-1.07;-0.11;-10.57;0.14;5.08;-246.15;-76.49;43.00;1.08;10.18;6.26;-82.31 
2.280;-0.06;-1.05;-0.18;-5.70;1.25;9.88;-249.13;-78.40;43.00;1.07;10.73;6.37;-81.93 
2.310;-0.10;-1.01;-0.14;-3.20;-5.15;8.56;-246.15;-75.53;47.00;1.02;11.04;6.25;-81.72 
2.339;-0.10;-0.97;-0.07;-3.55;-2.43;3.20;-248.14;-74.57;45.00;0.98;11.39;6.22;-81.48 
2.369;-0.11;-1.01;-0.08;-3.76;1.46;-0.07;-242.18;-72.66;41.00;1.02;11.85;6.34;-81.14 
2.399;-0.06;-1.02;-0.16;-2.02;-0.90;-0.28;-244.17;-74.57;44.00;1.03;12.32;6.51;-80.78 
2.430;-0.08;-1.02;-0.11;-1.04;-0.42;-0.07;-242.18;-75.53;44.00;1.03;12.75;6.66;-80.47 
2.460;-0.05;-1.06;-0.12;-0.90;1.32;-0.28;-242.18;-72.66;45.00;1.07;13.15;6.81;-80.18 
2.490;-0.04;-1.10;-0.16;1.18;0.56;0.28;-241.19;-77.44;43.00;1.11;13.53;6.97;-79.90 
2.519;-0.05;-1.06;-0.12;1.32;1.04;0.90;-242.18;-73.62;44.00;1.07;13.79;7.08;-79.71 
2.549;-0.07;-1.02;-0.11;1.39;1.67;0.35;-242.18;-73.62;43.00;1.03;14.08;7.19;-79.50 
2.579;-0.06;-1.02;-0.10;1.11;1.39;0.00;-244.17;-72.66;44.00;1.03;14.35;7.32;-79.30 
2.609;-0.07;-1.02;-0.12;-0.49;1.39;-0.21;-241.19;-75.53;40.00;1.03;14.64;7.46;-79.09 
2.638;-0.07;-1.04;-0.14;-0.28;0.56;-0.97;-244.17;-72.66;43.00;1.05;14.93;7.57;-78.88 
2.668;-0.07;-1.02;-0.12;-0.49;-0.14;-1.46;-243.17;-75.53;44.00;1.03;15.26;7.71;-78.64 
2.698;-0.04;-1.04;-0.17;-1.67;0.21;0.14;-242.18;-77.44;43.00;1.05;15.57;7.83;-78.42 
2.729;-0.06;-1.05;-0.12;-1.18;-0.21;0.97;-242.18;-73.62;43.00;1.06;15.87;7.91;-78.20 
2.759;-0.06;-1.04;-0.10;-0.49;0.35;0.83;-242.18;-75.53;45.00;1.05;16.16;8.00;-78.00 
2.789;-0.06;-1.05;-0.13;-0.42;0.77;1.18;-241.19;-72.66;42.00;1.06;16.36;8.06;-77.85 
2.818;-0.09;-1.02;-0.14;-0.07;0.63;1.39;-246.15;-72.66;46.00;1.03;16.61;8.15;-77.68 
2.848;-0.05;-1.04;-0.12;-0.14;0.56;0.77;-243.17;-75.53;43.00;1.05;16.80;8.19;-77.54 
2.878;-0.06;-1.03;-0.12;-0.07;1.32;0.42;-241.19;-71.71;41.00;1.04;17.02;8.26;-77.38 
2.908;-0.07;-1.04;-0.10;0.35;0.28;-0.07;-243.17;-73.62;40.00;1.05;17.25;8.35;-77.22 
2.937;-0.04;-1.05;-0.10;-0.56;0.70;1.18;-240.20;-73.62;40.00;1.06;17.45;8.42;-77.09 
2.967;-0.05;-1.03;-0.12;-0.97;1.39;1.46;-241.19;-71.71;43.00;1.04;17.66;8.49;-76.94 
2.997;-0.10;-1.02;-0.14;-0.14;0.00;1.25;-238.21;-72.66;42.00;1.03;17.82;8.50;-76.82 
3.028;-0.06;-1.02;-0.11;-0.97;0.07;0.70;-240.20;-74.57;41.00;1.03;18.00;8.54;-76.70 
3.058;-0.06;-1.04;-0.14;-1.18;0.97;0.97;-242.18;-70.75;45.00;1.05;18.23;8.59;-76.53 
3.088;-0.07;-1.02;-0.14;-0.35;-0.14;1.46;-244.17;-72.66;46.00;1.03;18.42;8.61;-76.40 
3.117;-0.05;-1.02;-0.14;-0.49;0.56;1.46;-243.17;-72.66;40.00;1.03;18.58;8.64;-76.30 
3.147;-0.06;-1.05;-0.10;-0.90;1.25;1.95;-244.17;-70.75;42.00;1.06;18.73;8.65;-76.19 
3.177;-0.09;-1.04;-0.13;-0.49;0.42;1.60;-241.19;-69.79;41.00;1.05;18.85;8.65;-76.10 
3.207;-0.06;-1.02;-0.10;-0.77;0.28;1.18;-237.22;-67.88;42.00;1.03;19.02;8.66;-75.99 
3.238;-0.05;-1.03;-0.12;-0.90;1.32;1.39;-240.20;-73.62;43.00;1.04;19.15;8.68;-75.90 
3.267;-0.09;-1.02;-0.18;-0.07;0.90;0.42;-238.21;-69.79;43.00;1.04;19.30;8.72;-75.79 
3.297;-0.07;-1.02;-0.18;-0.83;-0.28;0.77;-241.19;-70.75;41.00;1.04;19.44;8.74;-75.70 
3.328;-0.07;-1.02;-0.14;-1.11;0.56;1.60;-239.20;-70.75;44.00;1.03;19.58;8.77;-75.61 
3.358;-0.06;-1.02;-0.14;-0.49;0.77;2.30;-239.20;-68.84;44.00;1.03;19.69;8.75;-75.54 
3.388;-0.06;-1.06;-0.12;0.56;0.28;2.71;-236.23;-65.01;43.00;1.07;19.77;8.74;-75.49 
3.417;-0.07;-1.05;-0.14;0.42;1.67;3.06;-235.23;-70.75;43.00;1.06;19.84;8.72;-75.44 
3.447;-0.11;-1.04;-0.14;0.21;1.67;2.71;-239.20;-66.93;40.00;1.06;19.86;8.67;-75.42 
3.477;-0.10;-1.02;-0.15;0.35;0.42;0.90;-237.22;-67.88;42.00;1.04;19.88;8.62;-75.41 
3.507;-0.09;-1.02;-0.10;0.00;0.90;0.00;-239.20;-67.88;42.00;1.03;19.96;8.63;-75.37 
3.538;-0.10;-1.04;-0.13;-0.28;0.63;0.21;-235.23;-67.88;38.00;1.05;20.08;8.66;-75.30 
3.567;-0.06;-1.06;-0.15;-0.42;0.07;-0.28;-238.21;-70.75;42.00;1.07;20.20;8.66;-75.23 
3.597;-0.08;-1.04;-0.11;-0.70;0.56;-0.35;-234.24;-68.84;45.00;1.05;20.34;8.71;-75.14 
3.628;-0.04;-1.02;-0.11;0.14;0.35;-0.28;-237.22;-67.88;43.00;1.03;20.49;8.74;-75.05 
3.658;-0.09;-1.04;-0.10;-0.49;0.28;0.07;-236.23;-68.84;43.00;1.05;20.60;8.76;-74.99 
3.688;-0.08;-1.04;-0.14;-0.77;0.97;0.35;-239.20;-67.88;42.00;1.05;20.70;8.77;-74.93 
3.717;-0.07;-1.02;-0.15;0.14;0.70;-0.28;-237.22;-68.84;43.00;1.03;20.80;8.78;-74.87 
3.747;-0.10;-1.02;-0.12;-0.21;0.28;-0.77;-240.20;-69.79;39.00;1.03;20.93;8.80;-74.79 
3.777;-0.09;-1.02;-0.14;-0.28;1.25;-0.83;-237.22;-70.75;43.00;1.03;21.08;8.85;-74.71 
3.807;-0.09;-1.04;-0.15;0.63;0.90;-0.63;-238.21;-68.84;39.00;1.05;21.20;8.88;-74.64 
3.838;-0.07;-1.05;-0.13;0.21;0.97;-1.04;-239.20;-65.01;43.00;1.06;21.29;8.93;-74.61 
3.868;-0.09;-1.04;-0.14;-0.35;1.25;-1.11;-235.23;-68.84;45.00;1.05;21.38;8.99;-74.57 
3.897;-0.07;-1.05;-0.16;-0.42;0.28;-0.56;-238.21;-67.88;43.00;1.06;21.50;9.03;-74.49 
3.927;-0.07;-1.03;-0.12;-0.14;0.07;-0.42;-237.22;-68.84;43.00;1.04;21.63;9.07;-74.43 
3.957;-0.09;-1.02;-0.14;-0.07;0.97;-0.35;-236.23;-64.06;41.00;1.03;21.72;9.09;-74.39 
3.987;-0.08;-1.06;-0.10;-0.28;0.56;-0.77;-235.23;-68.84;43.00;1.07;21.81;9.12;-74.35 
4.017;-0.07;-1.04;-0.16;-0.21;0.90;-0.90;-235.23;-69.79;40.00;1.05;21.91;9.15;-74.30 
4.048;-0.07;-1.02;-0.14;0.00;1.18;-1.18;-237.22;-69.79;42.00;1.03;22.05;9.21;-74.23 
4.078;-0.08;-1.04;-0.11;-0.21;0.42;-2.23;-237.22;-70.75;38.00;1.05;22.19;9.27;-74.15 
4.108;-0.06;-1.04;-0.12;-0.56;0.97;-1.81;-238.21;-66.93;40.00;1.05;22.32;9.33;-74.09 
4.139;-0.06;-1.03;-0.14;-0.35;0.90;-0.97;-240.20;-70.75;39.00;1.04;22.46;9.38;-74.01 
4.168;-0.10;-1.01;-0.12;-0.14;0.49;-0.07;-241.19;-68.84;45.00;1.02;22.60;9.43;-73.93 
4.198;-0.06;-1.02;-0.13;-0.42;0.56;-0.35;-239.20;-69.79;42.00;1.03;22.68;9.46;-73.90 
4.228;-0.07;-1.03;-0.14;-0.35;0.77;-0.35;-237.22;-69.79;43.00;1.04;22.75;9.47;-73.87 
4.258;-0.08;-1.04;-0.16;-0.07;0.49;-0.56;-238.21;-69.79;41.00;1.06;22.84;9.50;-73.84 
4.288;-0.06;-1.02;-0.14;-0.77;0.49;-0.14;-239.20;-70.75;41.00;1.03;22.92;9.52;-73.81 
4.317;-0.06;-1.02;-0.10;-0.63;0.56;0.14;-236.23;-65.97;41.00;1.03;23.02;9.54;-73.76 
4.348;-0.06;-1.03;-0.12;-0.14;0.35;-0.28;-238.21;-70.75;45.00;1.04;23.10;9.53;-73.73 
4.378;-0.07;-1.03;-0.15;-0.63;0.56;-0.14;-242.18;-70.75;42.00;1.04;23.18;9.55;-73.70 
4.408;-0.07;-1.02;-0.15;-0.63;0.77;0.42;-242.18;-68.84;42.00;1.03;23.24;9.56;-73.68 
4.439;-0.07;-1.05;-0.09;0.07;0.83;0.14;-240.20;-70.75;47.00;1.06;23.34;9.59;-73.64 
4.468;-0.09;-1.02;-0.11;-0.14;0.77;-0.07;-238.21;-69.79;38.00;1.03;23.39;9.59;-73.62 
4.498;-0.09;-1.02;-0.14;-0.70;0.35;-0.35;-236.23;-70.75;41.00;1.03;23.45;9.60;-73.61 
4.528;-0.06;-1.05;-0.12;-0.56;0.77;-0.07;-235.23;-69.79;41.00;1.06;23.54;9.61;-73.57 
4.558;-0.10;-1.02;-0.14;0.07;0.77;0.21;-238.21;-69.79;40.00;1.03;23.60;9.60;-73.55 
4.588;-0.06;-1.02;-0.14;0.56;0.90;-0.21;-240.20;-66.93;41.00;1.03;23.66;9.63;-73.54 
4.618;-0.06;-1.05;-0.13;1.04;1.60;-0.21;-237.22;-70.75;41.00;1.06;23.71;9.65;-73.53 
4.648;-0.08;-1.05;-0.12;0.14;0.90;0.56;-237.22;-69.79;39.00;1.06;23.74;9.67;-73.53 
4.678;-0.08;-1.03;-0.13;-0.28;0.77;1.39;-238.21;-70.75;42.00;1.04;23.76;9.65;-73.54 
4.708;-0.10;-1.02;-0.10;-0.56;0.21;0.97;-238.21;-66.93;43.00;1.03;23.78;9.61;-73.55 
4.738;-0.09;-1.02;-0.16;-0.70;0.42;0.35;-237.22;-67.88;42.00;1.04;23.84;9.60;-73.53 
4.768;-0.02;-1.02;-0.09;-1.11;0.49;0.97;-238.21;-68.84;40.00;1.02;23.93;9.59;-73.49 
4.797;-0.06;-1.04;-0.13;-0.56;0.00;1.53;-237.22;-69.79;40.00;1.05;23.95;9.54;-73.49 
4.827;-0.08;-1.02;-0.10;-0.42;0.56;1.32;-236.23;-69.79;42.00;1.03;23.94;9.47;-73.52 
4.857;-0.08;-1.05;-0.11;-0.63;0.56;1.18;-240.20;-68.84;45.00;1.06;23.95;9.42;-73.55 
4.887;-0.10;-1.04;-0.14;-0.83;0.49;1.11;-237.22;-65.97;42.00;1.05;23.99;9.37;-73.54 
4.917;-0.07;-1.04;-0.13;-0.49;0.56;0.77;-237.22;-66.93;41.00;1.05;24.02;9.32;-73.53 
4.947;-0.08;-1.02;-0.12;-0.14;1.04;0.97;-240.20;-67.88;44.00;1.03;24.05;9.29;-73.54 
4.977;-0.10;-1.02;-0.16;-0.56;0.77;1.18;-238.21;-69.79;40.00;1.04;24.04;9.24;-73.56 
5.007;-0.10;-1.03;-0.10;0.00;0.97;0.56;-237.22;-66.93;44.00;1.04;24.01;9.21;-73.61 
5.037;-0.10;-1.06;-0.17;0.07;1.18;0.83;-237.22;-68.84;41.00;1.08;24.03;9.20;-73.62 
5.067;-0.10;-1.02;-0.16;-0.49;0.83;0.83;-237.22;-67.88;39.00;1.04;24.04;9.16;-73.64 
5.097;-0.09;-1.04;-0.11;-0.42;0.97;1.04;-238.21;-68.84;44.00;1.05;24.07;9.15;-73.64 
5.127;-0.08;-1.03;-0.14;-0.35;1.04;0.83;-235.23;-67.88;40.00;1.04;24.10;9.13;-73.64 
5.158;-0.09;-1.02;-0.12;-0.56;0.28;0.70;-235.23;-63.10;40.00;1.03;24.14;9.11;-73.64 
5.188;-0.10;-1.03;-0.12;-0.49;0.21;0.28;-234.24;-65.97;38.00;1.04;24.20;9.09;-73.62 
5.217;-0.08;-1.03;-0.14;-0.77;0.83;0.77;-234.24;-65.01;37.00;1.04;24.27;9.09;-73.60 
5.248;-0.10;-1.02;-0.12;-0.42;0.83;1.25;-236.23;-65.97;42.00;1.03;24.31;9.06;-73.60 
5.278;-0.08;-1.02;-0.14;0.21;1.18;1.04;-236.23;-65.97;41.00;1.03;24.31;9.02;-73.62 
5.308;-0.08;-1.04;-0.14;0.42;1.25;1.53;-234.24;-67.88;43.00;1.05;24.31;8.98;-73.64 
5.338;-0.10;-1.04;-0.13;0.14;1.25;2.23;-232.26;-65.01;39.00;1.05;24.28;8.94;-73.68 
5.367;-0.08;-1.02;-0.12;-0.14;1.46;2.02;-235.23;-64.06;43.00;1.03;24.22;8.87;-73.73 
5.397;-0.09;-1.02;-0.15;0.07;1.04;2.16;-233.25;-66.93;39.00;1.03;24.18;8.81;-73.78 
5.427;-0.10;-1.02;-0.14;-0.07;0.77;1.39;-236.23;-63.10;42.00;1.03;24.15;8.76;-73.82 
5.458;-0.09;-1.02;-0.14;-0.63;0.77;1.18;-234.24;-65.01;42.00;1.03;24.21;8.74;-73.80 
5.488;-0.11;-1.03;-0.10;-0.56;0.56;1.32;-232.26;-64.06;39.00;1.04;24.22;8.68;-73.82 
5.518;-0.13;-1.02;-0.14;-0.56;0.56;1.11;-231.26;-63.10;41.00;1.04;24.21;8.62;-73.85 
5.547;-0.10;-1.02;-0.14;-0.70;0.35;0.77;-229.28;-65.01;40.00;1.03;24.22;8.57;-73.86 
5.577;-0.10;-1.04;-0.11;-0.42;0.63;0.42;-231.26;-63.10;39.00;1.05;24.27;8.55;-73.86 
5.607;-0.10;-1.02;-0.13;-0.56;0.70;0.49;-235.23;-62.15;41.00;1.03;24.31;8.52;-73.86 
5.637;-0.11;-1.06;-0.13;-0.28;0.49;0.00;-233.25;-61.19;38.00;1.07;24.32;8.49;-73.88 
5.667;-0.11;-1.04;-0.13;-0.21;0.83;-0.07;-232.26;-62.15;40.00;1.05;24.37;8.48;-73.87 
5.696;-0.10;-1.04;-0.13;-0.14;0.77;0.42;-229.28;-63.10;41.00;1.05;24.37;8.47;-73.91 
5.726;-0.10;-1.05;-0.10;0.21;0.97;-0.35;-231.26;-63.10;39.00;1.06;24.41;8.46;-73.91 
5.757;-0.10;-1.04;-0.14;0.97;1.60;-0.35;-233.25;-63.10;42.00;1.05;24.42;8.45;-73.93 
5.787;-0.09;-1.02;-0.15;0.97;2.09;-0.21;-234.24;-63.10;43.00;1.03;24.42;8.47;-73.97 
5.816;-0.09;-1.02;-0.11;0.70;1.60;0.35;-230.27;-64.06;39.00;1.03;24.41;8.46;-74.00 
5.847;-0.08;-1.04;-0.14;-0.21;1.53;0.83;-234.24;-61.19;40.00;1.05;24.40;8.44;-74.03 
5.877;-0.09;-1.04;-0.14;-0.07;1.67;0.97;-234.24;-61.19;42.00;1.05;24.39;8.40;-74.06 
5.907;-0.09;-1.02;-0.14;0.00;-0.35;0.77;-233.25;-63.10;37.00;1.03;24.39;8.36;-74.09 
5.937;-0.10;-1.03;-0.10;-0.70;0.35;0.07;-229.28;-63.10;41.00;1.04;24.44;8.33;-74.08 
5.968;-0.11;-1.04;-0.11;-1.11;0.77;0.00;-231.26;-62.15;42.00;1.05;24.52;8.34;-74.06 
5.998;-0.11;-1.02;-0.11;-0.49;0.28;-0.70;-232.26;-64.06;42.00;1.03;24.61;8.33;-74.03 
6.028;-0.10;-1.04;-0.11;-0.56;0.70;-0.90;-232.26;-63.10;41.00;1.05;24.70;8.34;-74.01 
6.059;-0.10;-1.03;-0.10;-0.14;1.04;-1.39;-231.26;-64.06;39.00;1.04;24.76;8.35;-74.00 
6.088;-0.10;-1.02;-0.12;-0.07;1.04;-1.32;-233.25;-62.15;41.00;1.03;24.86;8.40;-73.97 
6.118;-0.09;-1.04;-0.14;-0.07;1.39;-0.90;-233.25;-65.97;41.00;1.05;24.92;8.42;-73.96 
6.148;-0.09;-1.03;-0.12;0.28;1.25;-0.35;-235.23;-64.06;41.00;1.04;24.96;8.43;-73.96 
6.178;-0.08;-1.03;-0.11;0.00;0.63;0.00;-232.26;-64.06;39.00;1.04;25.02;8.43;-73.95 
6.207;-0.12;-1.01;-0.11;-0.49;0.77;-0.14;-234.24;-64.06;42.00;1.02;25.02;8.41;-73.98 
6.237;-0.08;-1.02;-0.13;-0.42;0.77;0.42;-232.26;-64.06;42.00;1.03;25.03;8.39;-74.01 
6.268;-0.07;-1.03;-0.13;-0.49;0.56;0.56;-233.25;-66.93;43.00;1.04;25.07;8.36;-74.02 
6.298;-0.09;-1.03;-0.14;-0.83;1.04;0.56;-230.27;-65.01;40.00;1.04;25.11;8.31;-74.02 
6.328;-0.11;-1.04;-0.13;-0.14;0.70;0.21;-231.26;-62.15;37.00;1.05;25.11;8.25;-74.04 
6.358;-0.10;-1.03;-0.11;-0.28;1.04;0.77;-233.25;-63.10;39.00;1.04;25.13;8.24;-74.06 
6.388;-0.10;-1.02;-0.14;-0.14;1.18;-0.14;-232.26;-63.10;40.00;1.03;25.15;8.25;-74.08 
6.418;-0.09;-1.05;-0.09;0.07;0.49;-0.56;-228.28;-64.06;39.00;1.06;25.21;8.25;-74.08 
6.448;-0.10;-1.02;-0.13;-0.42;1.25;0.07;-231.26;-62.15;42.00;1.03;25.25;8.26;-74.09 
6.478;-0.10;-1.02;-0.15;-0.77;0.77;-0.14;-234.24;-65.97;40.00;1.04;25.30;8.26;-74.09 
6.508;-0.10;-1.02;-0.16;-0.28;0.07;-0.56;-232.26;-61.19;40.00;1.04;25.32;8.22;-74.11 
6.538;-0.11;-1.02;-0.13;-0.63;0.83;0.21;-230.27;-62.15;42.00;1.03;25.40;8.23;-74.09 
6.569;-0.12;-1.03;-0.14;-0.35;1.11;-0.35;-230.27;-62.15;41.00;1.05;25.43;8.22;-74.11 
6.599;-0.09;-1.05;-0.13;-0.21;0.83;-0.90;-231.26;-62.15;38.00;1.06;25.46;8.22;-74.13 
6.629;-0.09;-1.02;-0.11;-0.14;1.32;-0.63;-233.25;-64.06;42.00;1.03;25.49;8.24;-74.14 
6.659;-0.12;-1.02;-0.13;-0.07;0.63;-0.49;-231.26;-64.06;40.00;1.04;25.52;8.24;-74.15 
6.689;-0.08;-1.02;-0.11;-0.07;1.32;-0.49;-233.25;-61.19;41.00;1.03;25.57;8.26;-74.17 
6.719;-0.09;-1.03;-0.14;-0.07;1.46;-0.28;-233.25;-65.97;40.00;1.04;25.61;8.26;-74.17 
6.749;-0.11;-1.03;-0.14;0.00;0.63;-0.77;-234.24;-65.97;42.00;1.05;25.66;8.27;-74.17 
6.779;-0.09;-1.04;-0.12;-0.63;0.77;-0.49;-233.25;-65.01;44.00;1.05;25.74;8.28;-74.15 
6.809;-0.07;-1.03;-0.14;-0.70;0.70;-0.35;-235.23;-64.06;42.00;1.04;25.80;8.28;-74.15 
6.839;-0.09;-1.05;-0.11;-0.49;0.07;0.21;-230.27;-60.23;40.00;1.06;25.85;8.28;-74.16 
6.870;-0.09;-1.02;-0.11;-0.49;0.97;0.77;-232.26;-63.10;43.00;1.03;25.86;8.23;-74.18 
6.900;-0.11;-1.02;-0.13;-0.42;1.04;0.21;-231.26;-65.01;39.00;1.03;25.87;8.18;-74.20 
6.929;-0.10;-1.02;-0.10;-0.28;0.70;0.35;-233.25;-65.97;42.00;1.03;25.89;8.15;-74.22 
6.959;-0.10;-1.03;-0.13;-0.49;1.18;0.14;-232.26;-63.10;41.00;1.04;25.95;8.13;-74.22 
6.989;-0.10;-1.02;-0.14;-0.28;0.70;-0.83;-232.26;-63.10;42.00;1.03;26.01;8.13;-74.21 
7.019;-0.09;-1.06;-0.10;-0.42;0.83;-0.97;-232.26;-62.15;39.00;1.07;26.05;8.14;-74.22 
7.049;-0.10;-1.02;-0.13;-0.07;0.90;-0.90;-232.26;-65.01;40.00;1.03;26.12;8.18;-74.22 
7.080;-0.08;-1.04;-0.14;-0.35;0.90;-0.63;-231.26;-65.01;40.00;1.05;26.19;8.22;-74.21 
7.109;-0.09;-1.03;-0.14;-0.14;0.90;-0.28;-231.26;-66.93;42.00;1.04;26.23;8.22;-74.22 
7.139;-0.10;-1.02;-0.14;-0.42;0.97;-0.28;-235.23;-61.19;42.00;1.03;26.31;8.24;-74.20 
7.170;-0.09;-1.06;-0.11;-0.35;1.11;0.28;-233.25;-64.06;39.00;1.07;26.36;8.24;-74.20 
7.200;-0.10;-1.02;-0.16;-0.28;0.70;0.28;-233.25;-65.97;43.00;1.04;26.42;8.23;-74.20 
7.230;-0.09;-1.05;-0.11;-0.35;0.63;0.42;-232.26;-61.19;42.00;1.06;26.45;8.23;-74.21 
7.259;-0.08;-1.03;-0.16;-0.49;0.70;-0.21;-233.25;-65.97;43.00;1.05;26.51;8.21;-74.21 
7.289;-0.09;-1.05;-0.14;-0.56;0.56;0.56;-233.25;-63.10;41.00;1.06;26.56;8.18;-74.22 
7.319;-0.08;-1.05;-0.14;-0.49;0.56;0.77;-235.23;-62.15;39.00;1.06;26.60;8.16;-74.23 
7.349;-0.09;-1.03;-0.11;-0.83;0.28;0.56;-233.25;-65.01;41.00;1.04;26.66;8.13;-74.22 
7.380;-0.12;-1.03;-0.15;-0.90;0.14;0.70;-233.25;-64.06;42.00;1.05;26.74;8.11;-74.22 
7.410;-0.10;-1.05;-0.14;-0.70;0.07;1.60;-232.26;-64.06;41.00;1.06;26.76;8.05;-74.24 
7.439;-0.10;-1.02;-0.14;-0.90;0.49;1.67;-231.26;-61.19;42.00;1.03;26.79;7.99;-74.26 
7.469;-0.12;-1.02;-0.12;-0.63;0.63;0.90;-232.26;-64.06;40.00;1.03;26.80;7.93;-74.28 
7.499;-0.10;-1.02;-0.12;0.00;0.49;-0.49;-229.28;-63.10;41.00;1.03;26.86;7.90;-74.28 
7.529;-0.10;-1.06;-0.14;-0.21;0.83;-0.28;-232.26;-62.15;41.00;1.07;26.94;7.88;-74.27 
7.559;-0.10;-1.04;-0.10;-0.49;1.04;0.56;-230.27;-63.10;40.00;1.05;26.96;7.87;-74.29 
7.589;-0.10;-1.02;-0.13;-0.49;0.70;0.77;-228.28;-61.19;41.00;1.03;27.02;7.85;-74.29 
7.619;-0.09;-1.03;-0.15;0.00;1.04;0.49;-233.25;-62.15;42.00;1.04;27.06;7.82;-74.30 
7.649;-0.10;-1.02;-0.14;-0.35;1.04;-0.07;-230.27;-64.06;40.00;1.03;27.08;7.80;-74.32 
7.680;-0.11;-1.02;-0.12;-0.90;-0.07;0.28;-231.26;-63.10;40.00;1.03;27.12;7.77;-74.34 
7.710;-0.09;-1.04;-0.17;-0.70;0.14;0.77;-233.25;-60.23;42.00;1.06;27.19;7.75;-74.33 
7.739;-0.09;-1.03;-0.11;-0.49;1.11;1.60;-229.28;-60.23;40.00;1.04;27.21;7.71;-74.36 
7.769;-0.10;-1.02;-0.11;-0.35;0.83;1.81;-232.26;-62.15;42.00;1.03;27.21;7.67;-74.39 
7.799;-0.11;-1.05;-0.13;-0.28;0.83;1.18;-228.28;-63.10;41.00;1.06;27.19;7.60;-74.44 
7.829;-0.10;-1.02;-0.12;-0.49;1.18;1.25;-226.30;-61.19;41.00;1.03;27.17;7.56;-74.48 
7.859;-0.14;-1.02;-0.10;-0.28;0.97;0.07;-228.28;-60.23;41.00;1.03;27.21;7.53;-74.48 
7.889;-0.10;-1.06;-0.13;-0.35;0.28;-0.07;-228.28;-61.19;44.00;1.07;27.23;7.52;-74.51 
7.919;-0.10;-1.03;-0.12;-0.56;1.11;0.35;-231.26;-60.23;40.00;1.04;27.27;7.51;-74.53 
7.949;-0.11;-1.04;-0.18;-0.42;0.49;-0.35;-231.26;-59.28;43.00;1.06;27.29;7.47;-74.55 
7.980;-0.11;-1.02;-0.13;-0.07;0.28;-0.14;-229.28;-62.15;41.00;1.03;27.36;7.46;-74.55 
8.010;-0.10;-1.04;-0.12;-0.63;0.77;-0.14;-231.26;-61.19;38.00;1.05;27.40;7.46;-74.58 
8.039;-0.10;-1.04;-0.10;-0.63;0.63;0.14;-228.28;-62.15;41.00;1.05;27.46;7.44;-74.58 
8.069;-0.10;-1.03;-0.12;0.14;0.49;-0.49;-230.27;-58.32;41.00;1.04;27.54;7.43;-74.58 
8.099;-0.10;-1.03;-0.13;0.49;0.97;-0.77;-232.26;-60.23;40.00;1.04;27.57;7.45;-74.61 
8.129;-0.12;-1.02;-0.13;0.35;0.77;-0.90;-230.27;-64.06;42.00;1.04;27.61;7.46;-74.63 
8.159;-0.10;-1.02;-0.14;0.00;1.11;-1.18;-230.27;-65.01;42.00;1.03;27.72;7.50;-74.60 
8.190;-0.09;-1.05;-0.12;-0.21;1.04;-0.83;-229.28;-59.28;39.00;1.06;27.78;7.51;-74.61 
8.219;-0.10;-1.04;-0.15;-0.14;0.77;-0.77;-228.28;-60.23;40.00;1.06;27.82;7.51;-74.62 
8.249;-0.09;-1.05;-0.11;-0.28;0.49;-1.25;-227.29;-62.15;41.00;1.06;27.92;7.52;-74.61 
8.279;-0.09;-1.03;-0.12;-0.63;0.56;-0.97;-227.29;-65.01;38.00;1.04;28.04;7.55;-74.58 
8.309;-0.09;-1.04;-0.11;-0.42;1.04;-0.56;-231.26;-62.15;39.00;1.05;28.16;7.57;-74.56 
8.339;-0.10;-1.03;-0.14;-0.07;0.63;-0.49;-232.26;-64.06;39.00;1.04;28.18;7.55;-74.59 
8.368;-0.10;-1.02;-0.14;-0.21;0.42;-1.11;-230.27;-60.23;42.00;1.03;28.23;7.55;-74.60 
8.398;-0.08;-1.03;-0.15;-0.14;0.97;-1.04;-233.25;-62.15;42.00;1.04;28.31;7.55;-74.61 
8.428;-0.10;-1.04;-0.11;0.00;1.18;-0.42;-232.26;-64.06;41.00;1.05;28.36;7.55;-74.61 
8.458;-0.10;-1.03;-0.12;0.56;1.04;-0.83;-231.26;-61.19;39.00;1.04;28.43;7.57;-74.61 
8.489;-0.11;-1.02;-0.14;0.42;0.83;-1.18;-232.26;-62.15;39.00;1.04;28.46;7.58;-74.64 
8.518;-0.11;-1.03;-0.09;-0.14;0.28;-1.95;-229.28;-65.01;39.00;1.04;28.48;7.60;-74.68 
8.548;-0.08;-1.03;-0.14;-0.28;0.42;-1.67;-231.26;-62.15;38.00;1.04;28.53;7.64;-74.71 
8.578;-0.09;-1.02;-0.13;-0.56;1.18;-1.46;-232.26;-64.06;39.00;1.03;28.62;7.66;-74.70 
8.608;-0.09;-1.02;-0.16;0.07;1.04;-1.95;-233.25;-63.10;40.00;1.04;28.69;7.68;-74.70 
8.638;-0.10;-1.05;-0.14;-0.07;0.49;-2.85;-233.25;-63.10;43.00;1.06;28.83;7.73;-74.67 
8.668;-0.08;-1.02;-0.13;0.35;0.56;-3.55;-231.26;-66.93;40.00;1.03;29.03;7.82;-74.61 
