Time(s) acc_x(g) acc_y(g) acc_z(g) gyr_x(°/s) gyr_y(°/s) gyr_z(°/s) mag_x(G) mag_y(G) mag_z(G) SVM(g) yaw(°) pitch(°) roll(°)
0.000;0.15;0.10;0.86;-1.04;-0.77;-4.94;391.71;-389.14;-364.00;0.88;-130.74;9.46;3.57 
0.030;0.16;0.05;0.86;-1.11;-2.57;-6.19;392.70;-392.97;-365.00;0.88;-130.60;9.51;3.57 
0.060;0.15;0.06;0.90;-1.25;-3.06;-6.12;392.70;-394.89;-365.00;0.91;-130.43;9.61;3.57 
0.090;0.16;0.06;0.89;-0.63;-0.70;-5.84;391.71;-394.89;-367.00;0.91;-130.27;9.68;3.56 
0.120;0.16;0.04;0.86;0.56;-1.04;-4.38;389.72;-391.06;-368.00;0.88;-130.14;9.71;3.58 
0.150;0.13;0.04;0.90;0.14;-2.37;-2.50;392.70;-393.93;-363.00;0.91;-130.06;9.78;3.58 
0.180;0.12;0.02;0.86;-0.28;0.35;-1.46;387.73;-393.93;-366.00;0.87;-130.03;9.84;3.54 
0.210;0.16;0.02;0.86;-0.07;0.83;-1.11;386.74;-393.93;-363.00;0.87;-130.03;9.82;3.52 
0.240;0.14;0.10;0.89;0.97;0.21;0.28;390.72;-392.01;-365.00;0.91;-130.04;9.82;3.53 
0.271;0.14;0.05;0.89;0.28;0.90;0.70;392.70;-392.97;-365.00;0.90;-130.09;9.83;3.54 
0.301;0.15;0.06;0.89;0.14;-0.21;1.60;391.71;-392.97;-363.00;0.90;-130.15;9.87;3.53 
0.330;0.15;0.07;0.90;0.35;-0.07;2.92;391.71;-392.97;-366.00;0.92;-130.24;9.90;3.52 
0.359;0.17;0.09;0.90;1.32;2.23;4.24;389.72;-392.97;-361.00;0.92;-130.37;9.91;3.50 
0.389;0.15;0.08;0.90;1.18;5.36;4.66;392.70;-391.06;-367.00;0.92;-130.55;9.84;3.53 
0.419;0.14;0.10;0.84;0.28;0.97;3.62;391.71;-390.10;-365.00;0.86;-130.71;9.75;3.56 
0.449;0.18;0.10;0.89;0.90;-0.83;3.69;392.70;-392.97;-368.00;0.91;-130.84;9.78;3.59 
0.480;0.14;0.11;0.90;0.42;2.37;2.64;390.72;-392.97;-368.00;0.92;-130.97;9.79;3.61 
0.510;0.13;0.10;0.92;-0.28;1.46;1.67;390.72;-393.93;-367.00;0.93;-131.08;9.74;3.61 
0.540;0.17;0.11;0.87;-0.21;2.09;0.42;388.73;-393.93;-364.00;0.89;-131.13;9.70;3.65 
0.571;0.16;0.14;0.86;0.90;3.76;0.21;393.70;-395.85;-365.00;0.89;-131.17;9.65;3.67 
0.601;0.17;0.10;0.87;0.90;1.67;0.70;393.70;-394.89;-363.00;0.89;-131.21;9.62;3.67 
0.630;0.15;0.06;0.86;2.71;0.14;1.53;389.72;-397.77;-362.00;0.88;-131.25;9.67;3.76 
0.660;0.18;0.05;0.83;3.13;-0.14;2.78;391.71;-394.89;-366.00;0.85;-131.34;9.73;3.81 
0.690;0.16;0.12;0.90;2.37;-0.14;3.76;394.69;-392.97;-362.00;0.92;-131.46;9.78;3.89 
0.720;0.15;0.11;0.93;1.60;1.18;4.52;395.69;-391.06;-366.00;0.95;-131.62;9.80;3.91 
0.750;0.17;0.13;0.88;2.99;3.27;4.80;391.71;-395.85;-363.00;0.91;-131.78;9.79;3.98 
0.781;0.18;0.08;0.90;2.71;2.64;7.03;392.70;-395.85;-362.00;0.92;-131.99;9.74;4.06 
0.811;0.18;0.04;0.92;2.64;0.77;9.81;395.69;-398.72;-360.00;0.94;-132.28;9.76;4.06 
0.841;0.18;0.02;0.90;3.13;1.04;12.38;394.69;-396.81;-362.00;0.92;-132.62;9.81;4.07 
0.871;0.19;0.06;0.94;2.92;3.13;15.44;393.70;-395.85;-365.00;0.96;-133.05;9.82;4.06 
0.901;0.14;0.09;0.94;2.85;8.49;16.70;398.67;-399.68;-360.00;0.95;-133.59;9.73;4.06 
0.931;0.14;0.10;0.93;2.16;13.15;16.56;394.69;-395.85;-363.00;0.95;-134.13;9.46;4.08 
0.961;0.12;0.14;0.88;2.78;15.44;14.82;395.69;-399.68;-364.00;0.90;-134.67;9.07;4.11 
0.992;0.14;0.14;0.83;2.71;14.47;12.80;393.70;-399.68;-362.00;0.85;-135.15;8.65;4.21 
1.022;0.14;0.16;0.83;3.34;10.09;10.85;395.69;-397.77;-363.00;0.86;-135.57;8.27;4.35 
1.052;0.10;0.15;0.86;7.44;2.09;6.96;394.69;-398.72;-363.00;0.88;-135.89;8.12;4.47 
1.083;0.13;0.13;0.82;5.08;8.97;5.77;394.69;-397.77;-359.00;0.84;-136.13;7.95;4.63 
1.112;0.10;0.06;0.78;5.91;4.24;7.03;400.66;-397.77;-363.00;0.79;-136.34;7.76;4.81 
1.142;0.05;0.03;0.88;9.88;-6.40;8.63;395.69;-395.85;-359.00;0.88;-136.59;7.79;4.97 
1.172;0.08;0.10;1.01;4.24;-11.13;10.50;401.65;-402.56;-358.00;1.02;-136.90;8.10;5.31 
1.202;0.16;0.06;1.09;-0.35;14.68;6.96;402.65;-405.43;-358.00;1.10;-137.15;8.15;5.41 
1.232;0.13;0.23;0.96;0.63;34.57;-3.06;399.66;-403.52;-357.00;1.00;-137.32;7.45;5.50 
1.262;0.18;0.32;0.77;6.54;39.51;-12.45;403.64;-396.81;-358.00;0.85;-137.24;6.39;5.82 
1.293;0.22;0.23;0.66;13.29;21.84;-18.57;405.63;-384.35;-357.00;0.73;-136.88;5.45;6.37 
1.323;0.17;0.16;0.71;10.16;1.74;-18.16;406.62;-376.68;-356.00;0.75;-136.39;5.20;6.97 
1.353;0.14;0.00;0.80;4.59;-4.94;-19.41;410.60;-376.68;-357.00;0.81;-135.84;5.27;7.20 
1.383;0.13;-0.02;0.93;3.41;-5.84;-15.03;409.60;-377.64;-358.00;0.94;-135.37;5.54;7.35 
1.413;0.15;0.22;0.96;13.98;-8.00;-15.79;413.58;-375.72;-351.00;1.00;-134.94;5.86;7.67 
1.443;0.24;0.33;1.01;11.13;16.83;-26.92;417.56;-373.80;-351.00;1.09;-134.41;5.85;8.22 
1.473;0.24;0.42;0.92;11.34;22.33;-39.65;419.55;-365.18;-352.00;1.04;-133.60;5.29;8.86 
1.504;0.26;0.56;0.82;7.44;22.26;-59.90;420.54;-357.51;-348.00;1.03;-132.28;4.55;9.58 
1.534;0.32;0.50;0.77;-4.80;23.65;-84.66;421.53;-340.26;-348.00;0.97;-130.21;3.72;10.05 
1.564;0.29;0.43;0.62;-15.30;22.75;-102.05;421.53;-323.96;-350.00;0.81;-127.60;2.81;10.22 
1.595;0.33;0.31;0.54;-26.92;11.34;-117.57;415.57;-309.59;-351.00;0.70;-124.35;2.07;10.01 
1.625;0.37;0.30;0.45;-36.73;8.77;-131.27;410.60;-289.46;-355.00;0.66;-120.56;1.61;9.41 
1.655;0.33;0.41;0.35;-43.27;0.07;-143.86;393.70;-263.58;-356.00;0.63;-116.56;1.32;8.70 
1.685;0.42;0.33;0.42;-46.96;-24.97;-153.53;379.78;-250.16;-361.00;0.68;-112.16;1.61;7.83 
1.714;0.36;0.21;0.54;-47.37;-41.60;-153.53;362.88;-241.53;-368.00;0.68;-107.52;2.61;6.81 
1.744;0.34;0.15;0.69;-47.44;-34.99;-152.56;345.98;-234.83;-365.00;0.78;-103.05;3.78;5.77 
1.774;0.44;0.28;0.64;-52.17;-14.05;-153.95;331.06;-222.37;-372.00;0.83;-98.56;4.67;4.72 
1.805;0.55;0.14;0.36;-60.17;7.65;-155.13;305.22;-206.07;-378.00;0.67;-93.89;5.16;3.60 
1.835;0.41;0.09;0.06;-67.62;-17.04;-153.25;281.35;-194.57;-376.00;0.42;-89.35;5.87;2.22 
1.865;0.45;0.20;0.23;-69.84;-66.64;-141.70;254.51;-189.78;-377.00;0.54;-85.15;7.99;0.88 
1.895;0.38;0.42;0.48;-84.73;-61.77;-149.01;231.65;-195.53;-383.00;0.74;-81.07;10.73;-0.26 
1.925;0.26;0.45;0.46;-100.17;-37.08;-159.86;194.86;-198.40;-387.00;0.69;-76.49;12.93;-1.60 
1.955;0.32;0.46;0.49;-110.40;-34.57;-168.63;163.05;-200.32;-388.00;0.74;-71.77;14.79;-2.93 
1.984;0.55;0.18;0.19;-107.55;-7.93;-170.09;128.25;-201.28;-385.00;0.61;-66.90;16.40;-4.20 
2.015;0.31;-0.57;-0.22;-96.77;-41.81;-160.97;94.45;-200.32;-382.00;0.69;-61.98;18.43;-5.92 
2.045;-0.12;-1.39;0.26;-97.81;-133.36;-93.70;48.72;-219.49;-382.00;1.42;-58.30;21.95;-8.17 
2.075;-1.43;-2.14;2.51;19.20;-383.37;-7.10;29.83;-259.75;-391.00;3.60;-59.59;28.70;-10.08 
2.106;2.42;-1.51;2.08;-195.90;165.77;-98.50;25.85;-309.59;-402.00;3.53;-58.53;33.95;-9.29 
2.136;1.48;0.10;1.65;-347.62;89.39;210.50;-30.82;-287.54;-381.00;2.22;-58.00;33.42;-19.02 
2.166;-0.69;0.24;0.34;-317.98;149.15;-6.54;-125.27;-232.91;-325.00;0.81;-53.15;27.30;-29.08 
2.196;1.08;-1.25;-0.74;-384.49;148.87;-43.13;-181.94;-223.32;-280.00;1.81;-43.41;24.98;-36.05 
2.226;1.54;-3.62;-1.62;-427.06;-130.16;127.23;-242.58;-215.66;-212.00;4.25;-30.09;25.02;-47.79 
2.256;-0.21;-3.10;-0.02;-174.12;-260.52;162.71;-277.38;-211.82;-163.00;3.11;-26.86;23.61;-57.83 
2.286;1.86;-2.46;-0.41;-219.62;-57.95;53.01;-298.26;-209.91;-120.00;3.11;-15.87;24.34;-62.57 
2.317;1.81;-1.50;0.85;76.31;-170.99;90.64;-306.21;-207.03;-109.00;2.50;-8.86;22.40;-66.48 
2.347;0.12;-1.82;0.27;-246.12;71.79;282.43;-286.33;-186.90;-127.00;1.84;-14.86;17.48;-71.05 
2.377;0.35;-0.19;-0.44;-220.52;22.54;227.06;-270.42;-134.19;-80.00;0.59;13.55;9.42;-80.53 
2.406;-0.74;0.19;0.13;-80.77;-13.98;71.51;-247.55;-96.81;-39.00;0.77;24.10;4.85;-83.09 
2.436;-0.38;-0.66;0.47;73.88;-49.95;19.48;-243.58;-95.85;-53.00;0.89;22.29;3.13;-85.21 
2.466;0.16;0.14;-0.46;-16.83;29.63;27.20;-235.62;-92.01;-65.00;0.51;20.68;2.54;-85.73 
2.496;-0.21;-0.04;-0.44;-42.71;24.56;6.75;-234.63;-88.18;-59.00;0.49;26.58;2.41;-84.40 
2.527;-0.41;-0.54;-0.66;-67.90;45.63;4.17;-237.61;-88.18;-43.00;0.95;34.57;2.31;-82.00 
2.556;-0.37;-0.86;-1.06;-79.72;40.28;6.05;-233.63;-86.26;-25.00;1.41;40.55;2.24;-79.08 
2.586;-0.68;-1.02;-1.45;-29.22;-36.73;-16.14;-242.58;-88.18;-12.00;1.90;46.30;2.53;-76.59 
2.617;-0.56;-0.95;-0.94;-0.49;-131.13;-24.90;-243.58;-93.93;-23.00;1.45;55.69;2.31;-75.58 
2.647;0.00;-1.19;-0.22;8.56;-67.83;-31.72;-251.53;-104.47;-43.00;1.21;67.58;2.45;-75.36 
2.677;-0.22;-1.06;-0.34;-0.35;12.10;-21.15;-257.49;-108.31;-45.00;1.13;71.82;3.10;-75.20 
2.707;-0.25;-1.14;-0.70;-2.30;21.84;-9.46;-256.50;-114.06;-42.00;1.36;71.68;3.76;-74.74 
2.737;-0.22;-1.08;-0.70;5.70;12.31;-8.56;-256.50;-112.14;-38.00;1.31;71.72;4.14;-74.33 
2.767;-0.17;-0.94;-0.74;23.65;7.17;-10.30;-260.48;-114.06;-41.00;1.21;71.87;4.59;-74.21 
2.797;-0.10;-0.82;-0.75;35.20;-13.29;-2.78;-257.49;-115.98;-45.00;1.12;72.68;4.86;-74.47 
2.828;-0.06;-0.86;-0.54;39.65;-25.53;6.19;-257.49;-115.02;-55.00;1.02;75.22;4.79;-75.12 
2.858;-0.14;-0.88;-0.38;46.05;-22.12;7.10;-252.52;-116.93;-62.00;0.97;78.07;4.48;-76.08 
2.888;-0.16;-0.93;-0.28;55.23;-19.48;4.52;-247.55;-116.93;-77.00;0.98;80.82;4.16;-77.32 
2.918;-0.13;-1.02;-0.14;58.57;-8.49;-2.43;-246.56;-115.02;-91.00;1.04;83.41;4.03;-78.82 
2.948;-0.06;-1.06;-0.07;52.10;11.62;-9.88;-240.59;-112.14;-99.00;1.06;84.48;4.30;-80.25 
2.978;0.00;-1.14;-0.11;44.45;27.97;-10.71;-242.58;-116.93;-106.00;1.15;81.60;4.81;-81.25 
3.008;-0.03;-1.11;-0.17;40.28;29.01;-5.29;-238.60;-115.02;-110.00;1.12;75.04;5.36;-81.93 
3.037;-0.06;-1.05;-0.13;35.55;24.77;-0.49;-236.62;-114.06;-119.00;1.06;67.65;5.66;-82.48 
3.067;-0.09;-1.00;-0.13;29.36;22.26;-1.53;-233.63;-111.18;-119.00;1.01;59.78;5.80;-82.93 
3.097;-0.07;-1.02;-0.08;24.00;21.84;-2.57;-230.65;-111.18;-119.00;1.03;51.51;5.94;-83.20 
3.128;-0.03;-1.02;-0.08;18.64;24.56;-3.69;-228.66;-109.27;-119.00;1.02;43.08;6.19;-83.25 
3.158;-0.12;-0.97;-0.13;16.42;22.68;0.35;-229.66;-107.35;-122.00;0.99;35.40;6.34;-83.28 
3.188;-0.14;-0.99;-0.10;13.84;16.49;-2.09;-228.66;-108.31;-122.00;1.00;30.02;6.39;-83.35 
3.218;-0.08;-1.08;-0.12;10.37;9.18;-4.59;-226.67;-107.35;-125.00;1.09;27.13;6.56;-83.24 
3.248;-0.06;-1.05;-0.12;8.56;8.14;-1.39;-225.68;-106.39;-123.00;1.06;25.67;6.79;-83.05 
3.277;-0.13;-1.02;-0.12;5.36;3.06;0.63;-226.67;-106.39;-124.00;1.04;25.48;6.82;-83.04 
3.306;-0.09;-1.02;-0.08;1.11;-0.90;-3.27;-227.67;-104.47;-125.00;1.03;27.62;6.88;-82.96 
3.335;-0.11;-1.00;-0.06;-2.50;-1.18;-6.40;-224.69;-106.39;-125.00;1.01;31.31;7.04;-82.77 
3.365;-0.09;-1.05;-0.08;-4.38;1.32;-7.93;-226.67;-111.18;-124.00;1.06;36.23;7.28;-82.47 
3.395;-0.05;-1.06;-0.13;-5.63;1.81;-6.75;-226.67;-108.31;-122.00;1.07;41.94;7.57;-82.11 
3.426;-0.04;-1.08;-0.14;-4.94;0.42;-4.94;-231.65;-110.22;-121.00;1.09;48.12;7.81;-81.77 
3.456;0.00;-1.14;-0.14;-3.41;-1.81;-1.11;-231.65;-114.06;-123.00;1.15;54.25;7.99;-81.49 
3.486;-0.05;-1.06;-0.11;-1.53;-4.38;3.62;-231.65;-113.10;-120.00;1.07;60.23;8.04;-81.36 
3.516;-0.10;-1.00;-0.11;-1.67;-3.69;1.81;-234.63;-111.18;-122.00;1.01;66.53;7.95;-81.35 
3.546;-0.10;-1.02;-0.14;-1.95;-0.14;-0.97;-232.64;-114.06;-123.00;1.03;71.84;7.93;-81.29 
3.576;-0.06;-1.05;-0.13;-0.28;1.25;-1.39;-235.62;-111.18;-121.00;1.06;76.01;7.99;-81.15 
3.606;-0.05;-1.09;-0.14;2.16;-0.28;0.77;-231.65;-110.22;-120.00;1.10;80.16;8.04;-81.04 
3.636;-0.06;-1.04;-0.08;3.55;1.74;1.74;-230.65;-111.18;-125.00;1.04;84.04;8.03;-81.01 
3.665;-0.06;-1.05;-0.14;4.10;4.66;2.57;-232.64;-112.14;-121.00;1.06;86.49;8.00;-81.03 
3.695;-0.06;-1.04;-0.14;4.94;3.83;4.17;-231.65;-112.14;-122.00;1.05;88.49;7.95;-81.08 
3.726;-0.09;-1.04;-0.11;6.68;2.92;3.48;-228.66;-107.35;-125.00;1.05;91.03;7.82;-81.20 
3.756;-0.08;-1.05;-0.14;7.17;3.97;3.48;-226.67;-109.27;-126.00;1.06;93.68;7.73;-81.32 
3.786;-0.07;-1.04;-0.11;7.23;3.55;5.29;-226.67;-108.31;-125.00;1.05;96.04;7.62;-81.46 
3.816;-0.07;-1.04;-0.06;6.89;2.37;5.15;-221.70;-106.39;-125.00;1.04;98.94;7.47;-81.64 
3.846;-0.09;-1.02;-0.14;5.77;2.71;4.87;-224.69;-106.39;-126.00;1.03;102.19;7.33;-81.79 
3.876;-0.09;-1.03;-0.09;5.15;3.06;5.22;-219.72;-106.39;-128.00;1.04;105.16;7.18;-81.94 
3.906;-0.10;-1.03;-0.07;4.31;2.16;5.57;-226.67;-101.60;-130.00;1.04;108.09;7.03;-82.09 
3.937;-0.12;-1.01;-0.09;2.99;0.63;5.36;-217.73;-104.47;-131.00;1.02;111.73;6.85;-82.24 
3.967;-0.10;-1.02;-0.06;1.81;1.74;4.45;-220.71;-101.60;-132.00;1.03;115.04;6.72;-82.35 
3.997;-0.08;-1.02;-0.08;1.25;1.74;4.45;-218.72;-100.64;-130.00;1.03;117.59;6.59;-82.43 
4.027;-0.13;-1.04;-0.06;1.11;0.07;4.31;-218.72;-99.68;-132.00;1.05;120.07;6.43;-82.52 
4.057;-0.11;-1.06;-0.10;0.28;-0.35;2.64;-213.75;-99.68;-129.00;1.07;123.02;6.26;-82.63 
4.087;-0.09;-1.00;-0.09;-0.77;1.39;1.67;-218.72;-101.60;-132.00;1.01;125.21;6.17;-82.64 
4.117;-0.14;-1.02;-0.07;-1.25;0.42;1.81;-218.72;-98.72;-133.00;1.03;126.65;6.11;-82.60 
4.148;-0.14;-1.02;-0.09;-1.32;0.00;0.90;-215.74;-97.76;-134.00;1.03;128.39;6.04;-82.57 
4.177;-0.11;-1.02;-0.05;-1.11;1.11;-0.28;-217.73;-95.85;-128.00;1.03;129.95;6.00;-82.51 
4.207;-0.12;-1.02;-0.10;-1.25;0.42;-1.11;-215.74;-100.64;-130.00;1.03;131.23;5.98;-82.44 
4.238;-0.10;-1.02;-0.07;-0.77;0.28;-1.46;-214.74;-99.68;-132.00;1.03;132.52;6.00;-82.33 
4.268;-0.09;-1.02;-0.10;-0.70;0.83;-1.18;-215.74;-101.60;-130.00;1.03;133.93;6.02;-82.24 
4.298;-0.12;-1.02;-0.10;-0.49;0.21;-0.90;-212.76;-99.68;-130.00;1.03;134.91;6.03;-82.14 
4.328;-0.11;-1.03;-0.10;-0.56;0.56;-1.53;-217.73;-98.72;-128.00;1.04;135.97;6.03;-82.06 
4.358;-0.09;-1.02;-0.10;-1.25;1.04;-1.25;-220.71;-100.64;-133.00;1.03;136.88;6.03;-81.97 
4.388;-0.11;-1.02;-0.13;-1.11;0.63;-0.28;-216.73;-102.56;-129.00;1.03;137.67;6.01;-81.90 
4.418;-0.10;-1.02;-0.09;-0.83;0.56;-0.56;-219.72;-97.76;-130.00;1.03;138.38;6.00;-81.81 
4.449;-0.10;-1.02;-0.08;-0.83;0.77;-0.49;-218.72;-98.72;-132.00;1.03;139.09;5.98;-81.72 
4.479;-0.10;-1.02;-0.10;-0.42;0.97;-0.49;-214.74;-100.64;-130.00;1.03;139.73;5.95;-81.65 
4.509;-0.10;-1.04;-0.10;-0.70;0.83;0.07;-216.73;-98.72;-129.00;1.05;140.39;5.91;-81.60 
4.538;-0.10;-1.03;-0.10;-0.21;0.56;0.70;-220.71;-99.68;-132.00;1.04;141.04;5.86;-81.55 
4.568;-0.11;-1.02;-0.07;-0.21;0.63;0.77;-216.73;-97.76;-127.00;1.03;141.86;5.80;-81.53 
4.598;-0.09;-1.03;-0.09;0.00;1.25;0.97;-218.72;-100.64;-129.00;1.04;142.50;5.74;-81.52 
4.628;-0.10;-1.03;-0.10;0.56;0.70;0.83;-216.73;-99.68;-131.00;1.04;143.12;5.68;-81.51 
4.658;-0.10;-1.04;-0.11;0.90;-0.14;0.77;-215.74;-97.76;-128.00;1.05;143.88;5.60;-81.51 
4.688;-0.11;-1.02;-0.09;0.63;0.90;0.49;-217.73;-97.76;-131.00;1.03;144.61;5.54;-81.51 
4.718;-0.12;-1.02;-0.11;0.28;0.90;0.49;-216.73;-97.76;-130.00;1.03;145.24;5.47;-81.52 
4.748;-0.12;-1.02;-0.08;0.63;0.14;-0.28;-219.72;-96.81;-128.00;1.03;145.83;5.41;-81.50 
4.777;-0.10;-1.02;-0.07;0.14;0.21;-0.28;-213.75;-98.72;-129.00;1.03;146.54;5.36;-81.49 
4.807;-0.11;-1.02;-0.09;-0.49;0.77;-0.35;-219.72;-96.81;-129.00;1.03;147.19;5.32;-81.47 
4.838;-0.11;-1.02;-0.10;-0.83;0.63;-0.90;-214.74;-96.81;-128.00;1.03;147.71;5.27;-81.44 
4.868;-0.11;-1.02;-0.10;-0.97;0.97;-0.83;-215.74;-98.72;-131.00;1.03;148.13;5.24;-81.39 
4.898;-0.10;-1.02;-0.11;-0.63;0.56;-0.70;-217.73;-98.72;-129.00;1.03;148.44;5.20;-81.34 
4.928;-0.10;-1.03;-0.09;-0.14;0.21;-0.77;-222.70;-98.72;-128.00;1.04;148.80;5.16;-81.28 
4.959;-0.09;-1.02;-0.07;0.28;0.83;-0.42;-218.72;-100.64;-128.00;1.03;149.15;5.12;-81.22 
4.989;-0.12;-1.02;-0.08;0.56;0.97;-0.83;-219.72;-100.64;-129.00;1.03;149.55;5.07;-81.19 
5.019;-0.10;-1.02;-0.09;0.49;0.63;-0.42;-219.72;-99.68;-131.00;1.03;149.99;5.03;-81.17 
5.050;-0.09;-1.02;-0.07;-0.49;0.83;-0.28;-215.74;-98.72;-126.00;1.03;150.44;4.98;-81.15 
5.079;-0.10;-1.03;-0.10;-1.32;1.39;0.28;-217.73;-101.60;-129.00;1.04;150.66;4.93;-81.10 
5.109;-0.10;-1.02;-0.10;-1.88;0.28;0.49;-219.72;-100.64;-129.00;1.03;150.84;4.86;-81.06 
5.139;-0.10;-1.02;-0.11;-1.53;-0.42;0.56;-215.74;-102.56;-131.00;1.03;151.00;4.77;-81.00 
5.169;-0.10;-1.05;-0.07;-1.46;0.35;0.70;-217.73;-96.81;-133.00;1.06;151.30;4.70;-80.97 
5.199;-0.12;-1.02;-0.09;-1.32;0.97;-0.14;-219.72;-99.68;-129.00;1.03;151.47;4.61;-80.93 
5.229;-0.08;-1.02;-0.10;-0.35;0.70;-0.14;-214.74;-100.64;-130.00;1.03;151.68;4.54;-80.89 
5.260;-0.10;-1.03;-0.10;-0.28;0.21;0.21;-215.74;-99.68;-129.00;1.04;151.99;4.47;-80.86 
5.290;-0.11;-1.02;-0.10;0.00;0.42;-0.28;-216.73;-98.72;-132.00;1.03;152.28;4.40;-80.85 
5.320;-0.12;-1.02;-0.10;0.14;0.42;-0.07;-216.73;-99.68;-128.00;1.03;152.66;4.32;-80.85 
5.349;-0.10;-1.02;-0.09;-0.14;0.90;-0.42;-218.72;-97.76;-130.00;1.03;153.02;4.27;-80.85 
5.379;-0.11;-1.02;-0.10;0.00;0.90;0.35;-219.72;-96.81;-130.00;1.03;153.31;4.18;-80.86 
5.409;-0.11;-1.02;-0.10;0.00;1.11;0.42;-215.74;-101.60;-129.00;1.03;153.51;4.10;-80.84 
5.439;-0.11;-1.03;-0.11;0.28;0.42;1.04;-219.72;-100.64;-128.00;1.04;153.80;4.01;-80.86 
5.469;-0.10;-1.03;-0.08;0.49;0.70;1.25;-216.73;-99.68;-128.00;1.04;154.11;3.90;-80.88 
5.499;-0.13;-1.02;-0.10;0.35;1.11;0.90;-216.73;-98.72;-129.00;1.03;154.40;3.80;-80.90 
5.528;-0.10;-1.05;-0.10;0.35;1.67;0.63;-217.73;-98.72;-128.00;1.06;154.63;3.70;-80.92 
5.558;-0.13;-1.02;-0.11;0.63;0.90;0.77;-216.73;-96.81;-126.00;1.03;154.79;3.60;-80.92 
5.588;-0.11;-1.03;-0.08;0.35;-0.28;0.56;-216.73;-96.81;-130.00;1.04;155.05;3.48;-80.94 
5.618;-0.13;-1.02;-0.07;-0.49;1.32;0.90;-213.75;-95.85;-130.00;1.03;155.29;3.38;-80.95 
5.649;-0.11;-1.03;-0.09;-0.77;1.74;0.07;-218.72;-96.81;-131.00;1.04;155.35;3.27;-80.92 
5.679;-0.12;-1.03;-0.09;-0.14;-0.07;-0.21;-214.74;-96.81;-129.00;1.04;155.49;3.19;-80.90 
5.709;-0.10;-1.02;-0.10;0.21;-0.14;0.21;-216.73;-96.81;-131.00;1.03;155.67;3.10;-80.87 
5.739;-0.12;-1.02;-0.08;-0.21;1.18;-0.63;-216.73;-101.60;-129.00;1.03;155.89;3.03;-80.86 
5.770;-0.11;-1.04;-0.10;-0.56;0.42;-0.56;-216.73;-97.76;-131.00;1.05;156.08;2.97;-80.84 
5.800;-0.12;-1.02;-0.10;-0.83;0.07;0.21;-217.73;-98.72;-131.00;1.03;156.29;2.89;-80.83 
5.829;-0.09;-1.03;-0.10;-0.83;0.21;0.35;-215.74;-98.72;-130.00;1.04;156.44;2.79;-80.82 
5.860;-0.11;-1.01;-0.10;-0.97;0.63;0.21;-216.73;-96.81;-126.00;1.02;156.56;2.69;-80.79 
5.890;-0.10;-1.03;-0.08;-0.63;0.28;-0.07;-214.74;-100.64;-127.00;1.04;156.71;2.60;-80.76 
5.920;-0.11;-1.04;-0.09;0.00;1.18;-0.35;-216.73;-98.72;-129.00;1.05;156.83;2.55;-80.71 
5.950;-0.10;-1.02;-0.11;0.97;1.74;-0.42;-216.73;-99.68;-127.00;1.03;157.04;2.49;-80.71 
5.980;-0.10;-1.03;-0.10;1.81;0.83;-0.14;-219.72;-97.76;-127.00;1.04;157.32;2.41;-80.75 
6.010;-0.11;-1.03;-0.10;1.25;1.25;0.28;-216.73;-96.81;-130.00;1.04;157.58;2.33;-80.78 
6.040;-0.09;-1.05;-0.06;0.90;1.53;0.28;-216.73;-98.72;-129.00;1.06;157.80;2.26;-80.80 
6.071;-0.10;-1.05;-0.10;0.35;1.74;0.35;-214.74;-95.85;-128.00;1.06;157.97;2.16;-80.82 
6.101;-0.11;-1.02;-0.12;0.21;0.63;0.28;-212.76;-95.85;-132.00;1.03;158.12;2.05;-80.83 
6.130;-0.10;-1.02;-0.08;-0.42;-0.07;-0.07;-215.74;-99.68;-129.00;1.03;158.22;1.95;-80.81 
6.161;-0.13;-0.99;-0.11;-1.04;0.21;-0.77;-213.75;-96.81;-129.00;1.00;158.31;1.86;-80.77 
6.191;-0.10;-1.02;-0.10;-1.32;0.28;-1.53;-214.74;-93.93;-131.00;1.03;158.40;1.79;-80.72 
6.221;-0.11;-1.02;-0.07;-1.67;-0.63;-1.88;-213.75;-97.76;-130.00;1.03;158.57;1.74;-80.69 
6.251;-0.07;-1.04;-0.08;-1.46;0.63;-1.53;-216.73;-99.68;-128.00;1.05;158.72;1.71;-80.65 
6.282;-0.12;-0.98;-0.09;-0.83;1.11;-1.60;-220.71;-101.60;-134.00;0.99;158.81;1.67;-80.60 
6.312;-0.10;-1.03;-0.06;0.35;0.97;-1.18;-214.74;-100.64;-129.00;1.04;158.93;1.62;-80.57 
6.342;-0.12;-1.03;-0.09;1.11;0.42;-1.11;-216.73;-99.68;-130.00;1.04;159.12;1.56;-80.57 
6.373;-0.10;-1.02;-0.07;1.25;1.60;-1.39;-220.71;-99.68;-130.00;1.03;159.36;1.52;-80.59 
6.403;-0.13;-1.05;-0.14;1.81;1.60;-0.42;-221.70;-97.76;-128.00;1.07;159.57;1.47;-80.63 
6.433;-0.10;-1.03;-0.08;1.95;1.11;0.07;-219.72;-101.60;-127.00;1.04;159.77;1.39;-80.67 
6.463;-0.10;-1.02;-0.09;1.25;2.02;-0.07;-221.70;-103.51;-127.00;1.03;160.05;1.31;-80.75 
6.493;-0.11;-1.02;-0.06;1.11;1.67;0.28;-217.73;-99.68;-132.00;1.03;160.22;1.23;-80.79 
6.522;-0.09;-1.06;-0.10;1.04;0.07;0.70;-218.72;-98.72;-129.00;1.07;160.36;1.13;-80.81 
6.552;-0.10;-1.02;-0.07;-0.14;0.14;0.49;-218.72;-99.68;-133.00;1.03;160.45;1.00;-80.81 
6.583;-0.10;-1.03;-0.07;-0.56;0.63;0.56;-220.71;-102.56;-127.00;1.04;160.59;0.89;-80.83 
6.613;-0.10;-1.02;-0.11;-1.04;0.56;0.77;-214.74;-98.72;-131.00;1.03;160.66;0.79;-80.81 
6.643;-0.11;-1.02;-0.08;-1.04;0.07;1.11;-214.74;-98.72;-129.00;1.03;160.69;0.69;-80.78 
6.673;-0.10;-1.02;-0.09;-0.97;0.42;1.25;-216.73;-98.72;-128.00;1.03;160.71;0.56;-80.75 
6.703;-0.11;-1.02;-0.07;-0.56;0.14;1.11;-214.74;-98.72;-129.00;1.03;160.74;0.45;-80.72 
6.733;-0.10;-1.02;-0.09;-0.07;0.14;1.11;-218.72;-96.81;-131.00;1.03;160.87;0.35;-80.73 
6.763;-0.13;-1.01;-0.11;0.42;1.39;0.63;-214.74;-97.76;-132.00;1.02;160.95;0.22;-80.75 
6.794;-0.10;-1.02;-0.14;1.11;1.74;-0.14;-216.73;-98.72;-132.00;1.03;161.04;0.09;-80.77 
6.824;-0.08;-1.03;-0.07;1.88;1.67;1.18;-215.74;-96.81;-129.00;1.04;161.20;-0.00;-80.82 
6.854;-0.10;-1.03;-0.10;1.60;0.35;2.30;-216.73;-96.81;-132.00;1.04;161.39;-0.13;-80.89 
6.885;-0.12;-1.00;-0.07;0.83;0.28;0.90;-213.75;-97.76;-131.00;1.01;161.53;-0.29;-80.94 
6.915;-0.12;-1.06;-0.05;0.07;1.60;-0.07;-214.74;-94.89;-131.00;1.07;161.69;-0.40;-80.99 
6.944;-0.10;-1.02;-0.07;-0.21;1.25;0.35;-215.74;-97.76;-130.00;1.03;161.79;-0.50;-81.01 
6.973;-0.11;-1.03;-0.11;0.07;0.07;1.32;-212.76;-95.85;-131.00;1.04;161.84;-0.59;-80.99 
7.002;-0.11;-1.03;-0.05;-0.42;0.21;0.70;-214.74;-97.76;-133.00;1.04;161.90;-0.73;-81.00 
7.032;-0.05;-1.00;-0.07;-0.63;0.49;0.77;-213.75;-97.76;-133.00;1.00;161.91;-0.87;-80.98 
7.062;-0.12;-1.02;-0.09;-0.70;1.04;-0.07;-215.74;-99.68;-132.00;1.03;161.91;-1.01;-80.95 
7.093;-0.12;-1.04;-0.10;-0.49;1.18;-0.07;-214.74;-93.93;-136.00;1.05;162.02;-1.10;-80.97 
7.123;-0.11;-1.03;-0.09;-0.49;0.14;0.28;-216.73;-97.76;-132.00;1.04;162.06;-1.18;-80.94 
7.153;-0.11;-1.04;-0.08;-0.14;0.49;0.83;-212.76;-96.81;-134.00;1.05;162.17;-1.27;-80.95 
7.184;-0.10;-1.05;-0.08;0.07;0.97;0.70;-214.74;-96.81;-130.00;1.06;162.26;-1.39;-80.96 
7.214;-0.10;-1.04;-0.08;0.21;0.07;1.46;-212.76;-94.89;-135.00;1.05;162.32;-1.52;-80.96 
7.244;-0.09;-1.02;-0.07;0.28;-0.70;1.18;-211.76;-97.76;-132.00;1.03;162.41;-1.67;-80.98 
7.274;-0.11;-1.02;-0.08;-0.21;0.07;1.60;-212.76;-93.93;-133.00;1.03;162.48;-1.80;-80.99 
7.303;-0.14;-1.04;-0.09;-1.11;-0.49;0.63;-208.78;-95.85;-130.00;1.05;162.50;-1.93;-80.96 
7.332;-0.10;-1.03;-0.07;-1.32;-0.77;0.21;-213.75;-96.81;-131.00;1.04;162.55;-2.03;-80.93 
7.361;-0.12;-1.03;-0.06;-1.81;-0.56;0.28;-212.76;-96.81;-131.00;1.04;162.58;-2.12;-80.89 
7.391;-0.10;-1.05;-0.10;-2.57;-0.70;-0.49;-214.74;-94.89;-130.00;1.06;162.61;-2.21;-80.85 
7.420;-0.11;-1.04;-0.10;-3.55;-1.53;-0.90;-212.76;-98.72;-132.00;1.05;162.61;-2.29;-80.78 
7.449;-0.14;-1.02;-0.08;-5.57;-1.53;-1.39;-214.74;-95.85;-130.00;1.03;162.64;-2.33;-80.71 
7.479;-0.13;-1.01;-0.08;-6.89;-2.78;-3.90;-216.73;-97.76;-132.00;1.02;162.53;-2.38;-80.56 
7.508;-0.14;-0.97;-0.10;-8.14;-3.34;-6.40;-214.74;-95.85;-131.00;0.99;162.45;-2.36;-80.37 
7.537;-0.16;-0.95;-0.06;-9.25;-2.92;-10.30;-219.72;-101.60;-130.00;0.97;162.41;-2.28;-80.19 
7.567;-0.17;-0.97;-0.08;-10.37;-2.37;-16.83;-220.71;-103.51;-127.00;0.99;162.43;-2.07;-79.99 
7.597;-0.14;-0.98;-0.13;-11.97;-3.48;-21.15;-221.70;-106.39;-128.00;1.00;162.63;-1.68;-79.80 
7.627;-0.17;-0.93;-0.12;-10.43;-1.81;-26.23;-232.64;-107.35;-126.00;0.95;162.89;-1.17;-79.58 
