Time(s) acc_x(g) acc_y(g) acc_z(g) gyr_x(°/s) gyr_y(°/s) gyr_z(°/s) mag_x(G) mag_y(G) mag_z(G) SVM(g) yaw(°) pitch(°) roll(°)
0.000;-0.10;0.17;0.91;-0.56;1.25;5.57;371.26;5.73;-407.00;0.93;10.38;4.22;26.26 
0.030;-0.10;0.15;0.90;-0.42;2.02;3.83;373.24;5.73;-411.00;0.92;10.18;4.26;26.37 
0.060;-0.11;0.17;0.90;-0.49;3.41;2.64;373.24;6.69;-407.00;0.92;10.03;4.26;26.48 
0.090;-0.10;0.17;0.90;0.07;1.25;2.23;374.23;5.73;-408.00;0.92;9.91;4.26;26.60 
0.120;-0.12;0.16;0.88;0.07;-1.11;2.71;373.24;2.87;-408.00;0.90;9.80;4.30;26.71 
0.150;-0.13;0.16;0.89;0.49;-1.60;2.85;371.26;3.82;-407.00;0.91;9.69;4.38;26.84 
0.180;-0.11;0.14;0.87;0.35;-2.09;2.57;375.22;3.82;-406.00;0.89;9.59;4.45;26.96 
0.211;-0.14;0.15;0.87;0.21;-0.21;0.83;374.23;3.82;-410.00;0.89;9.51;4.51;27.09 
0.241;-0.13;0.17;0.88;0.56;1.04;-0.28;371.26;4.78;-409.00;0.91;9.46;4.52;27.19 
0.271;-0.10;0.14;0.90;0.35;1.25;-1.74;372.25;5.73;-405.00;0.92;9.45;4.48;27.32 
0.302;-0.10;0.18;0.91;0.28;0.21;-1.74;374.23;1.91;-408.00;0.93;9.47;4.45;27.46 
0.332;-0.12;0.20;0.90;0.21;-0.77;-0.97;373.24;0.00;-407.00;0.93;9.48;4.45;27.60 
0.362;-0.12;0.19;0.90;0.14;0.21;-1.11;372.25;6.69;-407.00;0.93;9.53;4.38;27.69 
0.392;-0.16;0.18;0.84;0.42;-0.83;-0.49;375.22;3.82;-410.00;0.87;9.53;4.36;27.82 
0.422;-0.11;0.18;0.90;-0.14;-2.09;-0.77;373.24;3.82;-409.00;0.92;9.54;4.37;27.94 
0.452;-0.12;0.17;0.92;0.49;-1.60;-0.56;376.21;0.00;-408.00;0.94;9.54;4.39;28.08 
0.482;-0.14;0.18;0.91;1.25;-0.77;-0.07;371.26;1.91;-406.00;0.94;9.56;4.37;28.16 
0.512;-0.12;0.19;0.90;0.97;0.83;0.90;375.22;1.91;-408.00;0.93;9.53;4.36;28.31 
0.542;-0.11;0.18;0.88;0.70;1.53;1.18;377.20;3.82;-406.00;0.90;9.47;4.33;28.43 
0.572;-0.14;0.18;0.91;0.97;0.21;0.97;372.25;0.96;-404.00;0.94;9.53;4.19;28.33 
0.602;-0.19;0.16;0.90;1.81;-2.50;0.90;374.23;4.78;-408.00;0.93;9.49;4.19;28.46 
0.632;-0.19;0.14;0.91;2.37;-5.29;0.70;376.21;-1.91;-407.00;0.94;9.61;4.09;28.40 
0.661;-0.24;0.10;0.82;1.46;-3.41;-0.49;377.20;-0.96;-408.00;0.86;9.64;4.11;28.46 
0.691;-0.27;0.11;0.78;-0.56;4.87;-4.03;377.20;-2.87;-407.00;0.83;9.75;3.94;28.55 
0.722;-0.30;0.06;0.76;-3.69;15.17;-5.98;375.22;0.96;-407.00;0.82;10.08;3.34;28.36 
0.752;-0.30;0.06;0.67;-4.10;29.57;-13.01;370.27;6.69;-407.00;0.74;10.47;2.36;28.29 
0.782;-0.30;0.06;0.61;-5.22;44.17;-16.21;365.32;13.37;-400.00;0.68;11.01;0.99;28.18 
0.813;-0.34;0.08;0.51;-2.78;56.00;-9.32;367.30;20.06;-402.00;0.62;11.51;-0.79;28.13 
0.843;-0.29;0.13;0.50;0.97;74.09;-4.31;359.38;32.47;-396.00;0.59;11.81;-2.85;28.21 
0.873;-0.23;0.24;0.51;2.92;92.66;2.57;355.42;49.66;-384.00;0.61;11.91;-5.17;28.47 
0.903;-0.23;0.34;0.52;1.18;89.60;14.47;356.41;59.21;-372.00;0.66;11.69;-7.47;28.85 
0.933;-0.29;0.42;0.60;-0.56;90.64;23.86;358.39;69.72;-364.00;0.79;11.10;-9.56;29.41 
0.963;-0.27;0.34;0.94;-5.01;99.97;33.25;358.39;76.41;-346.00;1.04;10.22;-11.44;29.78 
0.993;-0.20;0.11;1.10;-22.96;62.75;45.15;358.39;87.87;-336.00;1.12;8.98;-12.84;29.79 
1.024;-0.23;0.05;1.06;-21.01;35.69;36.10;363.34;91.69;-329.00;1.09;7.36;-13.14;29.32 
1.054;-0.17;0.14;1.08;-1.04;5.57;29.84;363.34;85.96;-323.00;1.10;6.28;-13.02;29.24 
1.084;-0.22;0.16;0.90;-1.25;-11.41;42.64;366.31;86.91;-326.00;0.94;4.96;-12.10;29.51 
1.114;-0.28;0.37;0.84;-20.52;0.49;29.01;372.25;76.41;-322.00;0.96;3.79;-11.14;29.68 
1.144;-0.55;0.04;0.69;-34.57;8.28;25.60;376.21;78.32;-317.00;0.88;2.56;-11.08;29.09 
1.174;-0.45;0.12;1.03;-41.67;11.55;16.70;374.23;80.23;-321.00;1.13;1.68;-10.88;28.29 
1.204;-0.51;0.26;1.02;-40.07;1.25;27.06;372.25;81.18;-324.00;1.17;0.62;-10.32;27.58 
1.235;-0.37;0.12;1.05;-23.03;-25.67;21.57;378.19;79.27;-332.00;1.12;-0.55;-9.40;26.86 
1.265;-0.50;0.08;0.78;-13.91;-23.23;16.97;375.22;76.41;-341.00;0.93;-1.34;-8.62;26.48 
1.295;-0.39;0.20;0.92;-16.42;-11.69;12.73;380.17;69.72;-340.00;1.02;-1.86;-7.76;26.39 
1.326;-0.51;0.02;0.90;-17.04;-20.24;16.00;381.16;71.63;-338.00;1.03;-2.48;-6.99;25.98 
1.356;-0.50;0.10;0.89;-9.67;-31.72;13.77;381.16;65.90;-346.00;1.03;-3.07;-5.91;25.78 
1.386;-0.45;0.10;0.97;-4.94;-37.84;14.89;382.15;60.17;-355.00;1.07;-3.59;-4.69;25.76 
1.415;-0.48;0.14;0.98;-4.52;-28.80;16.00;388.09;57.30;-358.00;1.10;-4.06;-3.72;25.71 
1.444;-0.34;0.18;1.08;18.43;-48.07;22.05;393.04;49.66;-359.00;1.15;-4.64;-2.42;26.01 
1.473;-0.39;0.10;1.00;29.57;-56.14;28.80;395.02;40.11;-361.00;1.08;-5.39;-0.80;26.71 
1.502;-0.22;0.18;1.02;40.14;-53.50;27.97;408.88;20.06;-364.00;1.06;-6.19;1.07;27.82 
1.531;-0.10;0.19;0.94;38.68;-46.40;31.30;415.81;11.46;-365.00;0.96;-7.16;2.90;29.05 
1.561;-0.14;0.19;0.85;39.65;-47.72;28.38;424.72;-3.82;-360.00;0.88;-8.13;4.59;30.16 
1.591;-0.13;0.21;0.88;42.85;-47.03;22.75;432.64;-13.37;-362.00;0.91;-9.02;6.25;31.35 
1.622;-0.10;0.24;0.88;47.72;-48.63;13.98;437.59;-22.92;-354.00;0.92;-9.75;7.83;32.65 
1.652;-0.02;0.25;0.91;59.69;-50.09;5.77;451.45;-38.20;-347.00;0.94;-10.27;9.30;34.23 
1.682;0.06;0.36;0.86;73.74;-50.23;0.90;459.37;-42.98;-345.00;0.93;-10.67;10.68;36.31 
1.711;0.00;0.47;0.82;82.92;-48.35;-0.14;471.25;-53.48;-334.00;0.95;-10.98;11.79;38.58 
1.741;0.09;0.47;0.80;78.05;-46.54;-2.71;482.14;-55.39;-325.00;0.93;-11.27;12.84;41.11 
1.771;0.03;0.44;0.80;73.04;-45.22;-8.07;495.01;-62.08;-308.00;0.91;-11.47;13.77;43.41 
1.801;0.03;0.45;0.78;63.30;-41.74;-7.44;507.88;-71.63;-295.00;0.90;-11.62;14.52;45.38 
1.832;0.02;0.43;0.80;62.96;-37.70;-12.24;511.84;-71.63;-288.00;0.91;-11.67;15.07;47.30 
1.862;0.00;0.51;0.78;56.77;-41.53;-13.29;519.76;-71.63;-281.00;0.93;-11.74;15.62;49.41 
1.892;0.07;0.60;0.70;54.75;-46.89;-12.10;526.69;-73.54;-267.00;0.92;-11.67;16.00;51.08 
1.923;0.13;0.61;0.66;57.18;-41.74;-12.10;530.65;-77.36;-260.00;0.91;-11.63;16.39;52.89 
1.953;0.14;0.66;0.62;48.42;-31.93;-8.97;538.57;-75.45;-251.00;0.92;-11.66;16.65;54.53 
1.983;0.09;0.62;0.59;51.34;-27.62;-4.73;546.49;-77.36;-243.00;0.86;-11.75;16.83;55.96 
2.013;0.14;0.65;0.61;50.57;-22.96;-5.29;548.47;-77.36;-227.00;0.90;-11.91;16.95;57.40 
2.043;0.14;0.68;0.61;51.20;-23.03;-6.68;557.38;-81.18;-217.00;0.92;-12.07;17.03;58.84 
2.072;0.16;0.69;0.60;51.48;-22.33;-4.45;557.38;-78.32;-206.00;0.93;-12.23;17.07;60.17 
2.102;0.18;0.70;0.62;48.42;-23.65;-3.97;564.31;-78.32;-195.00;0.95;-12.48;17.17;61.44 
2.133;0.14;0.67;0.58;48.21;-17.53;-5.50;573.22;-84.05;-181.00;0.90;-12.70;17.25;62.65 
2.163;0.12;0.69;0.67;46.12;-11.06;-12.52;574.21;-78.32;-174.00;0.97;-12.71;17.01;63.88 
2.193;0.11;0.81;0.62;41.67;-28.87;-18.99;577.18;-82.14;-166.00;1.03;-12.45;16.58;65.19 
2.223;0.14;0.87;0.46;40.28;-30.12;-11.55;583.12;-79.27;-153.00;0.99;-12.24;16.29;66.52 
2.253;0.15;0.85;0.40;38.89;-11.55;-8.49;583.12;-80.23;-147.00;0.95;-12.19;16.04;67.71 
2.283;0.13;0.78;0.52;33.39;-5.91;-14.12;586.09;-81.18;-136.00;0.95;-12.06;15.68;68.71 
2.312;0.17;0.83;0.56;35.76;-15.72;-16.63;589.06;-73.54;-134.00;1.02;-11.79;15.22;69.66 
2.342;0.20;0.87;0.42;39.65;-26.37;-18.37;589.06;-73.54;-128.00;0.99;-11.51;14.78;70.75 
2.372;0.14;0.85;0.38;44.45;-11.97;-14.54;591.04;-71.63;-116.00;0.94;-11.33;14.34;71.94 
2.402;0.14;0.91;0.42;44.24;-12.38;-12.73;594.01;-66.86;-109.00;1.01;-11.19;13.87;73.09 
2.433;0.17;0.90;0.41;42.43;-11.41;-11.55;590.05;-64.95;-98.00;1.00;-11.14;13.49;74.14 
2.463;0.13;0.89;0.37;43.06;-8.83;-16.63;594.01;-63.03;-94.00;0.97;-11.02;13.04;75.13 
2.493;0.11;0.98;0.30;45.57;-12.10;-15.51;592.03;-58.26;-82.00;1.03;-10.80;12.49;76.20 
2.523;0.13;1.01;0.29;46.05;-8.35;-8.00;588.07;-56.35;-67.00;1.06;-10.76;12.06;77.12 
2.553;0.08;0.97;0.26;50.02;-7.10;-7.65;589.06;-55.39;-61.00;1.01;-10.87;11.76;77.84 
2.583;0.11;0.93;0.23;55.23;2.16;-8.21;588.07;-57.30;-52.00;0.96;-11.01;11.46;78.42 
2.613;0.05;1.02;0.23;63.03;4.87;-5.98;586.09;-53.48;-32.00;1.05;-11.16;11.13;78.87 
2.643;0.05;1.06;0.14;63.03;10.16;-1.74;582.13;-52.53;-17.00;1.07;-11.38;10.85;79.01 
2.672;0.06;1.07;0.14;61.84;19.69;3.13;583.12;-54.44;-2.00;1.08;-11.68;10.71;78.76 
2.702;0.05;1.10;0.09;61.22;20.94;8.21;579.16;-55.39;11.00;1.10;-12.10;10.78;78.14 
2.733;0.02;1.04;0.10;54.75;34.16;13.98;576.19;-59.21;20.00;1.04;-12.64;11.06;77.20 
2.763;0.11;1.10;0.12;69.77;32.90;14.68;571.24;-64.95;38.00;1.11;-13.32;11.56;75.99 
2.793;0.06;1.21;0.10;59.06;28.24;19.90;565.30;-71.63;59.00;1.22;-14.06;12.13;74.56 
2.823;0.10;1.15;0.09;41.88;20.17;20.52;562.33;-76.41;65.00;1.16;-14.65;12.68;73.43 
2.853;0.11;1.20;0.00;22.19;15.51;22.40;557.38;-82.14;69.00;1.21;-15.29;13.29;72.47 
2.883;0.13;1.06;0.01;9.74;10.09;30.05;560.35;-90.73;80.00;1.07;-16.11;14.13;71.57 
2.912;0.19;1.02;-0.06;3.90;-3.34;23.79;556.39;-96.46;77.00;1.04;-16.84;14.86;70.95 
2.942;0.29;1.02;-0.11;2.99;-0.49;28.73;556.39;-99.33;78.00;1.07;-17.53;15.51;70.39 
2.971;0.29;0.94;-0.14;4.17;4.87;23.79;556.39;-105.06;78.00;0.99;-18.37;16.35;69.70 
3.000;0.30;1.02;-0.09;6.75;15.30;15.37;559.36;-110.79;79.00;1.07;-18.89;16.91;69.24 
3.031;0.24;1.03;0.00;8.28;7.37;16.83;552.43;-115.56;79.00;1.06;-19.34;17.43;68.74 
3.061;0.23;1.06;-0.02;5.01;-7.65;14.96;555.40;-119.38;81.00;1.08;-19.84;17.89;68.23 
3.091;0.26;1.07;0.00;2.78;-12.52;12.17;557.38;-121.29;78.00;1.10;-20.24;18.19;67.87 
3.121;0.22;1.02;-0.06;1.39;-11.62;7.72;556.39;-124.16;84.00;1.05;-20.42;18.28;67.78 
3.151;0.23;1.06;-0.05;6.68;-5.57;12.66;556.39;-125.11;86.00;1.09;-20.62;18.42;67.62 
3.181;0.24;1.03;0.00;3.55;-5.15;13.01;555.40;-124.16;87.00;1.06;-20.88;18.63;67.39 
3.210;0.22;1.04;0.02;-1.67;-10.30;14.05;556.39;-128.94;84.00;1.06;-21.15;18.85;67.21 
3.241;0.26;1.05;0.00;-4.73;-11.97;16.63;553.42;-131.80;85.00;1.08;-21.49;19.13;67.04 
3.271;0.25;1.05;0.00;-5.15;-13.29;17.32;556.39;-134.67;81.00;1.08;-22.01;19.55;66.69 
3.301;0.29;1.03;0.00;-1.81;-9.74;18.57;551.44;-136.58;81.00;1.07;-22.43;19.89;66.45 
3.332;0.30;1.02;0.00;4.94;-8.56;20.38;555.40;-140.40;83.00;1.06;-23.05;20.40;65.91 
3.362;0.31;1.01;0.00;0.49;-3.76;20.59;554.41;-143.26;83.00;1.06;-23.62;20.92;65.42 
3.392;0.30;1.00;0.02;0.77;-6.26;21.91;555.40;-148.04;84.00;1.04;-24.16;21.43;65.02 
3.422;0.30;1.10;-0.04;2.85;-4.31;17.18;555.40;-150.90;83.00;1.14;-24.49;21.73;64.78 
3.453;0.30;1.02;-0.11;9.25;0.35;23.93;556.39;-155.68;86.00;1.07;-25.11;22.28;64.21 
3.483;0.32;1.02;-0.14;14.19;9.95;26.92;558.37;-159.50;90.00;1.08;-25.89;23.04;63.42 
3.513;0.39;0.96;-0.08;15.37;23.23;23.65;553.42;-169.05;96.00;1.04;-26.61;23.83;62.63 
3.543;0.33;1.06;-0.02;13.84;14.19;20.10;548.47;-174.78;97.00;1.11;-27.12;24.49;62.04 
3.573;0.31;1.07;-0.10;13.84;14.54;25.46;547.48;-175.73;103.00;1.12;-27.73;25.17;61.35 
3.602;0.34;1.05;-0.10;15.17;22.89;28.38;544.51;-187.19;105.00;1.11;-28.33;25.88;60.68 
3.632;0.39;1.00;0.00;13.70;33.53;24.42;543.52;-191.97;107.00;1.07;-28.97;26.69;59.94 
3.662;0.51;0.80;0.11;20.80;27.62;20.87;539.56;-203.43;112.00;0.96;-29.62;27.62;59.21 
3.692;0.53;0.76;0.07;28.59;0.70;-3.06;536.59;-210.12;115.00;0.93;-29.99;28.14;58.67 
3.722;0.45;0.71;-0.22;26.50;-5.98;-13.91;532.63;-205.34;124.00;0.87;-29.95;28.04;58.43 
3.753;0.42;0.88;-0.26;13.29;39.17;-48.63;528.67;-199.61;126.00;1.01;-28.95;27.14;59.03 
3.783;0.44;0.90;0.00;13.29;42.30;-58.02;530.65;-193.88;128.00;1.00;-27.17;25.84;60.45 
3.813;0.39;1.01;0.00;15.23;4.52;-60.17;526.69;-182.42;129.00;1.08;-25.30;24.22;61.97 
3.844;0.41;1.02;-0.10;15.17;3.90;-52.45;528.67;-173.82;134.00;1.10;-23.45;22.46;63.37 
3.874;0.39;1.06;-0.10;9.32;9.74;-42.85;523.72;-161.41;133.00;1.13;-21.85;20.97;64.55 
3.904;0.34;1.14;-0.07;4.17;0.21;-27.06;523.72;-154.72;132.00;1.19;-20.66;19.87;65.47 
3.933;0.31;1.10;-0.10;-0.63;-15.23;-9.11;523.72;-154.72;137.00;1.15;-19.99;19.19;66.05 
3.963;0.26;1.01;-0.19;-2.64;-20.45;-7.72;523.72;-148.04;135.00;1.06;-19.64;18.70;66.37 
3.993;0.24;1.05;-0.15;-9.18;-6.47;-10.99;527.68;-146.13;137.00;1.09;-19.22;18.20;66.82 
4.023;0.19;1.03;-0.07;-8.00;-8.28;-9.60;525.70;-142.31;131.00;1.05;-18.75;17.71;67.40 
4.054;0.22;1.07;-0.10;-2.92;-14.33;-5.84;527.68;-140.40;126.00;1.10;-18.38;17.28;67.87 
4.084;0.17;1.10;-0.11;4.66;-14.05;-2.30;529.66;-139.44;130.00;1.12;-18.11;16.91;68.16 
4.114;0.18;1.07;-0.17;5.36;-10.37;-2.92;525.70;-133.71;135.00;1.10;-17.80;16.50;68.36 
4.144;0.24;0.95;-0.10;3.13;-6.05;2.64;526.69;-136.58;130.00;0.98;-17.70;16.33;68.39 
4.174;0.18;1.01;-0.11;11.34;-10.64;8.49;522.73;-134.67;131.00;1.03;-17.65;16.24;68.40 
4.203;0.18;1.15;-0.10;6.33;-7.51;9.95;526.69;-138.49;136.00;1.17;-17.71;16.22;68.27 
4.233;0.20;1.08;-0.07;2.99;-6.26;13.43;523.72;-135.62;133.00;1.10;-17.87;16.34;68.17 
4.264;0.26;1.02;-0.07;4.52;-14.12;17.74;524.71;-142.31;135.00;1.05;-18.19;16.58;67.94 
4.294;0.27;1.02;-0.12;3.97;-21.84;21.77;525.70;-141.35;138.00;1.06;-18.72;16.93;67.53 
4.324;0.30;1.02;-0.17;1.46;-21.91;16.63;523.72;-138.49;139.00;1.08;-19.25;17.25;67.14 
4.355;0.30;0.99;-0.19;3.69;-17.46;20.94;522.73;-140.40;135.00;1.05;-19.72;17.53;66.78 
4.384;0.33;0.95;-0.18;4.59;-9.11;17.95;522.73;-145.17;135.00;1.02;-20.29;17.93;66.29 
4.414;0.31;1.00;-0.16;1.32;-4.31;11.13;522.73;-145.17;136.00;1.06;-20.63;18.19;66.02 
4.444;0.32;1.02;-0.20;1.60;-6.54;10.64;520.75;-147.08;137.00;1.09;-20.89;18.40;65.84 
4.474;0.34;0.99;-0.22;1.39;-6.12;7.30;520.75;-151.86;133.00;1.07;-21.11;18.55;65.67 
4.504;0.36;1.02;-0.22;-2.57;1.67;3.27;520.75;-149.95;134.00;1.10;-21.20;18.61;65.63 
4.534;0.32;1.00;-0.19;-6.75;7.72;-0.77;518.77;-152.81;138.00;1.07;-21.17;18.65;65.75 
4.565;0.33;1.00;-0.15;-6.54;8.35;0.83;523.72;-151.86;132.00;1.06;-21.06;18.65;65.98 
4.595;0.33;1.02;-0.13;-4.24;4.17;3.13;522.73;-152.81;131.00;1.08;-20.98;18.67;66.17 
4.625;0.31;1.00;-0.14;-2.23;1.60;4.87;524.71;-151.86;130.00;1.06;-21.01;18.75;66.25 
4.655;0.33;1.02;-0.14;-2.16;1.04;4.66;526.69;-154.72;132.00;1.08;-21.08;18.85;66.27 
4.685;0.32;1.02;-0.15;-3.20;-0.28;3.90;523.72;-155.68;129.00;1.08;-21.14;18.96;66.29 
4.715;0.33;1.02;-0.13;-2.85;1.39;2.50;523.72;-153.77;131.00;1.08;-21.16;19.00;66.36 
4.745;0.34;1.02;-0.10;-1.95;1.18;2.78;524.71;-153.77;128.00;1.08;-21.15;19.03;66.43 
4.776;0.35;1.00;-0.12;-0.35;1.39;2.64;526.69;-159.50;133.00;1.07;-21.17;19.08;66.47 
4.806;0.34;1.02;-0.16;0.42;0.49;2.16;525.70;-158.54;133.00;1.09;-21.18;19.10;66.49 
4.836;0.32;1.01;-0.14;-0.28;0.21;0.63;526.69;-158.54;130.00;1.07;-21.15;19.09;66.55 
4.866;0.34;0.98;-0.16;-0.49;0.14;0.00;527.68;-160.45;132.00;1.05;-21.07;19.02;66.62 
4.895;0.33;1.02;-0.17;-0.35;-0.28;0.07;525.70;-157.59;130.00;1.09;-21.01;18.97;66.70 
4.924;0.34;1.02;-0.17;0.00;0.28;-0.70;525.70;-157.59;129.00;1.09;-20.95;18.92;66.77 
4.953;0.34;1.02;-0.14;-0.07;0.14;-1.32;527.68;-156.63;129.00;1.08;-20.84;18.84;66.88 
4.982;0.35;1.02;-0.16;0.21;0.56;-1.60;527.68;-158.54;132.00;1.09;-20.73;18.74;67.00 
5.012;0.34;1.00;-0.16;-0.28;1.04;-1.53;527.68;-157.59;128.00;1.07;-20.61;18.64;67.12 
5.042;0.27;1.01;-0.16;0.00;-0.07;-1.18;524.71;-157.59;130.00;1.06;-20.49;18.54;67.24 
5.072;0.31;1.02;-0.10;0.35;-0.97;0.14;527.68;-156.63;128.00;1.07;-20.39;18.44;67.34 
5.102;0.32;1.03;-0.14;0.56;-1.46;0.49;526.69;-155.68;131.00;1.09;-20.34;18.39;67.40 
5.132;0.35;1.02;-0.17;0.56;-0.42;0.49;526.69;-155.68;132.00;1.09;-20.28;18.34;67.45 
5.163;0.33;1.02;-0.17;-0.07;-0.21;0.83;525.70;-155.68;130.00;1.09;-20.24;18.31;67.49 
5.193;0.33;1.02;-0.18;-0.07;0.77;0.63;525.70;-158.54;131.00;1.09;-20.19;18.26;67.57 
5.223;0.34;1.02;-0.15;0.00;0.77;0.35;524.71;-157.59;130.00;1.09;-20.13;18.22;67.64 
5.253;0.34;1.03;-0.14;0.28;1.04;-0.07;523.72;-154.72;129.00;1.09;-20.06;18.16;67.70 
5.283;0.34;1.02;-0.18;-0.21;0.83;-0.14;523.72;-156.63;132.00;1.09;-19.99;18.11;67.78 
5.313;0.34;1.01;-0.16;-0.56;0.90;-0.21;526.69;-156.63;128.00;1.08;-19.92;18.06;67.85 
5.343;0.31;1.02;-0.12;-0.63;0.35;-0.35;524.71;-154.72;128.00;1.07;-19.88;18.03;67.89 
5.374;0.32;1.02;-0.18;-0.49;0.49;-0.14;525.70;-157.59;131.00;1.08;-19.81;17.98;67.98 
5.404;0.31;1.01;-0.18;0.07;0.83;-0.14;523.72;-157.59;132.00;1.07;-19.74;17.92;68.05 
5.434;0.34;1.02;-0.18;0.35;0.70;0.35;524.71;-156.63;133.00;1.09;-19.68;17.87;68.11 
5.465;0.34;1.03;-0.14;0.00;-0.14;0.07;522.73;-154.72;131.00;1.09;-19.64;17.84;68.16 
5.494;0.33;1.01;-0.16;-0.21;0.07;0.28;524.71;-155.68;133.00;1.07;-19.59;17.79;68.22 
5.524;0.32;1.01;-0.18;-0.28;0.63;0.28;524.71;-155.68;130.00;1.07;-19.55;17.76;68.26 
5.554;0.33;1.02;-0.15;-0.21;1.67;0.42;526.69;-155.68;128.00;1.08;-19.50;17.73;68.32 
5.584;0.35;1.01;-0.18;0.00;1.46;0.28;524.71;-155.68;131.00;1.08;-19.46;17.71;68.36 
5.614;0.34;1.01;-0.13;0.56;0.42;-0.35;525.70;-155.68;131.00;1.07;-19.46;17.72;68.37 
5.644;0.34;1.03;-0.18;0.14;0.63;-0.63;527.68;-157.59;130.00;1.10;-19.41;17.68;68.43 
5.675;0.34;1.01;-0.14;-0.21;0.21;-0.28;526.69;-154.72;133.00;1.07;-19.35;17.63;68.49 
5.705;0.34;1.00;-0.16;0.07;0.77;-0.56;525.70;-158.54;130.00;1.07;-19.28;17.57;68.54 
5.735;0.34;1.01;-0.18;0.00;0.56;-0.77;524.71;-159.50;136.00;1.08;-19.23;17.53;68.60 
5.765;0.32;1.02;-0.14;0.21;0.90;-0.77;522.73;-154.72;135.00;1.08;-19.18;17.50;68.64 
5.795;0.34;1.02;-0.17;0.00;0.49;-0.28;528.67;-154.72;131.00;1.09;-19.12;17.45;68.69 
5.825;0.34;1.02;-0.18;1.74;0.90;2.09;522.73;-153.77;132.00;1.09;-19.09;17.42;68.72 
5.855;0.32;1.02;-0.17;0.28;-0.07;-0.28;527.68;-158.54;130.00;1.08;-19.08;17.42;68.73 
5.886;0.34;1.00;-0.17;0.70;0.70;0.42;526.69;-157.59;135.00;1.07;-19.05;17.39;68.75 
5.916;0.33;1.01;-0.12;0.14;0.77;-0.63;524.71;-158.54;135.00;1.07;-18.99;17.34;68.80 
5.946;0.33;1.02;-0.18;0.07;0.49;-0.49;522.73;-156.63;129.00;1.09;-18.95;17.31;68.84 
5.977;0.34;1.02;-0.17;-0.21;0.83;-0.42;522.73;-158.54;135.00;1.09;-18.90;17.27;68.90 
6.007;0.34;1.03;-0.14;0.56;0.90;0.77;523.72;-154.72;128.00;1.09;-18.85;17.24;68.94 
6.037;0.32;1.02;-0.14;0.56;0.14;0.49;524.71;-156.63;137.00;1.08;-18.82;17.21;68.97 
6.067;0.32;1.03;-0.18;0.35;0.49;0.35;524.71;-155.68;132.00;1.09;-18.82;17.21;68.96 
6.098;0.32;1.01;-0.14;-0.21;1.60;1.53;522.73;-158.54;132.00;1.07;-18.81;17.21;68.96 
6.128;0.32;1.02;-0.16;0.07;-0.28;0.42;524.71;-157.59;132.00;1.08;-18.85;17.25;68.93 
6.158;0.31;1.01;-0.15;-0.35;0.63;0.21;525.70;-155.68;134.00;1.07;-18.85;17.26;68.93 
6.189;0.32;1.02;-0.17;0.21;1.18;1.25;522.73;-152.81;135.00;1.08;-18.83;17.25;68.95 
6.219;0.32;1.02;-0.18;-0.63;1.18;0.00;520.75;-155.68;134.00;1.08;-18.83;17.27;68.95 
6.249;0.34;1.01;-0.10;-0.35;1.18;0.70;522.73;-155.68;132.00;1.07;-18.82;17.27;68.97 
6.279;0.36;1.02;-0.16;-0.07;0.77;0.35;526.69;-153.77;135.00;1.09;-18.80;17.26;68.99 
6.309;0.32;1.02;-0.14;-0.14;0.42;0.42;524.71;-158.54;134.00;1.08;-18.80;17.27;68.99 
6.339;0.32;1.02;-0.18;0.28;0.42;0.42;523.72;-159.50;136.00;1.08;-18.80;17.28;68.99 
6.369;0.34;1.01;-0.17;0.28;0.42;0.49;522.73;-157.59;135.00;1.08;-18.79;17.27;69.00 
6.400;0.33;1.02;-0.15;-0.35;0.35;0.49;523.72;-156.63;131.00;1.08;-18.79;17.27;69.00 
6.430;0.36;1.02;-0.17;-0.42;0.21;0.28;522.73;-155.68;135.00;1.09;-18.78;17.26;69.01 
6.460;0.33;1.02;-0.17;-0.42;0.77;0.35;522.73;-158.54;136.00;1.09;-18.78;17.27;69.01 
6.490;0.33;1.01;-0.14;-0.28;0.63;0.28;523.72;-160.45;136.00;1.07;-18.78;17.28;69.02 
6.520;0.33;1.03;-0.17;-0.28;0.90;0.14;521.74;-159.50;132.00;1.09;-18.78;17.30;69.02 
6.550;0.34;1.02;-0.17;-0.28;0.83;0.21;523.72;-159.50;136.00;1.09;-18.77;17.30;69.03 
6.579;0.30;1.02;-0.16;-0.07;0.42;0.28;525.70;-155.68;136.00;1.08;-18.77;17.31;69.03 
6.608;0.35;1.00;-0.18;-0.14;-0.35;0.83;520.75;-158.54;136.00;1.07;-18.80;17.35;68.99 
6.638;0.33;1.02;-0.18;-0.35;0.42;0.21;524.71;-157.59;133.00;1.09;-18.81;17.35;68.98 
6.668;0.36;1.02;-0.14;-0.42;0.56;-0.42;523.72;-156.63;138.00;1.09;-18.79;17.34;68.99 
6.699;0.35;1.01;-0.12;-0.28;1.11;-0.21;523.72;-160.45;135.00;1.08;-18.77;17.33;69.00 
6.729;0.33;1.00;-0.15;-0.63;1.11;-0.35;521.74;-156.63;136.00;1.06;-18.75;17.32;69.02 
6.759;0.34;1.03;-0.18;-0.49;1.18;-0.28;523.72;-154.72;134.00;1.10;-18.74;17.32;69.02 
6.789;0.34;1.02;-0.14;-0.70;0.90;-0.63;522.73;-156.63;134.00;1.08;-18.72;17.31;69.03 
6.819;0.33;1.02;-0.16;0.00;0.77;-1.18;523.72;-159.50;137.00;1.08;-18.69;17.29;69.06 
6.849;0.34;1.02;-0.17;0.21;0.42;-0.14;523.72;-155.68;134.00;1.09;-18.66;17.27;69.09 
6.879;0.32;1.01;-0.16;-0.56;1.11;-0.21;522.73;-155.68;135.00;1.07;-18.64;17.26;69.11 
6.910;0.33;1.02;-0.14;-0.21;0.28;0.14;523.72;-157.59;135.00;1.08;-18.62;17.25;69.12 
6.940;0.34;1.02;-0.18;-0.07;-0.14;0.00;523.72;-156.63;136.00;1.09;-18.63;17.25;69.10 
6.970;0.37;0.98;-0.15;0.00;-0.21;-0.90;522.73;-155.68;137.00;1.06;-18.61;17.23;69.12 
7.001;0.36;1.01;-0.19;-0.49;0.70;-1.67;524.71;-156.63;132.00;1.09;-18.57;17.19;69.15 
7.031;0.33;1.01;-0.18;-0.63;0.97;-1.81;519.76;-156.63;132.00;1.08;-18.50;17.14;69.21 
7.061;0.35;1.01;-0.17;-0.49;1.88;-1.95;519.76;-154.72;134.00;1.08;-18.44;17.10;69.26 
7.091;0.32;1.02;-0.20;-0.77;1.81;-1.67;520.75;-156.63;132.00;1.09;-18.38;17.05;69.32 
7.122;0.33;1.02;-0.15;-0.49;1.60;-1.25;523.72;-152.81;133.00;1.08;-18.32;17.00;69.37 
7.152;0.31;1.02;-0.17;-0.56;1.32;-0.14;521.74;-156.63;134.00;1.08;-18.29;16.99;69.40 
7.182;0.31;1.02;-0.16;-0.28;0.83;0.14;525.70;-154.72;135.00;1.08;-18.27;16.98;69.41 
7.213;0.38;1.05;-0.17;-0.77;1.04;0.77;523.72;-156.63;134.00;1.13;-18.26;16.98;69.43 
7.243;0.33;1.02;-0.16;-0.49;1.04;0.56;522.73;-153.77;136.00;1.08;-18.27;17.00;69.43 
7.273;0.32;1.02;-0.18;-0.42;1.04;0.70;523.72;-155.68;131.00;1.08;-18.29;17.03;69.42 
7.303;0.34;1.02;-0.18;-0.28;0.77;0.56;523.72;-155.68;134.00;1.09;-18.31;17.06;69.40 
7.333;0.33;1.02;-0.16;-0.49;1.25;0.70;522.73;-155.68;136.00;1.08;-18.34;17.10;69.38 
7.362;0.34;0.99;-0.14;-0.21;0.77;0.42;524.71;-155.68;137.00;1.06;-18.35;17.12;69.36 
7.391;0.34;1.02;-0.18;-0.63;1.32;0.00;521.74;-156.63;133.00;1.09;-18.36;17.14;69.36 
7.421;0.33;1.02;-0.14;-0.14;0.77;0.14;522.73;-156.63;135.00;1.08;-18.36;17.15;69.36 
7.450;0.35;1.02;-0.18;-0.28;0.83;0.21;523.72;-155.68;130.00;1.09;-18.35;17.15;69.36 
7.480;0.29;1.01;-0.21;-0.42;0.49;0.49;522.73;-154.72;134.00;1.07;-18.35;17.15;69.36 
7.511;0.32;1.02;-0.16;-0.42;-0.35;0.56;523.72;-157.59;134.00;1.08;-18.36;17.16;69.36 
7.541;0.31;1.02;-0.17;-0.35;0.63;-0.07;524.71;-157.59;134.00;1.08;-18.38;17.19;69.34 
7.571;0.34;1.02;-0.18;-0.35;1.39;0.28;525.70;-155.68;134.00;1.09;-18.41;17.23;69.30 
7.601;0.34;1.02;-0.15;0.07;0.42;0.56;524.71;-157.59;136.00;1.09;-18.44;17.27;69.28 
7.631;0.31;1.02;-0.17;-0.14;0.21;0.49;523.72;-155.68;132.00;1.08;-18.46;17.29;69.25 
7.661;0.34;1.02;-0.18;-0.77;2.37;-0.49;522.73;-159.50;136.00;1.09;-18.46;17.30;69.26 
7.691;0.34;1.02;-0.18;-2.30;5.36;-3.83;523.72;-157.59;135.00;1.09;-18.41;17.28;69.31 
7.722;0.32;1.06;-0.21;-4.17;6.40;-9.46;521.74;-156.63;130.00;1.13;-18.20;17.12;69.52 
7.752;0.30;1.04;-0.17;-4.80;6.05;-8.28;521.74;-153.77;131.00;1.10;-17.90;16.87;69.83 
7.782;0.31;1.02;-0.16;-4.10;13.50;-6.96;524.71;-154.72;132.00;1.08;-17.65;16.69;70.08 
7.812;0.30;1.04;-0.14;-2.30;19.34;-3.97;522.73;-150.90;132.00;1.09;-17.45;16.60;70.28 
7.842;0.30;1.04;-0.14;0.56;16.90;0.83;524.71;-155.68;128.00;1.09;-17.37;16.65;70.34 
7.872;0.34;1.01;-0.14;1.60;18.30;0.35;524.71;-150.90;133.00;1.07;-17.42;16.79;70.28 
7.901;0.37;0.98;-0.10;-2.43;18.64;-4.80;521.74;-154.72;132.00;1.05;-17.39;16.87;70.28 
7.931;0.35;0.96;-0.14;-6.82;19.48;-9.88;524.71;-153.77;128.00;1.03;-17.20;16.80;70.50 
7.961;0.39;0.94;-0.06;-10.71;9.88;-15.51;519.76;-156.63;127.00;1.02;-16.89;16.58;70.90 
7.990;0.33;0.98;-0.07;-11.55;0.28;-14.61;526.69;-151.86;124.00;1.04;-16.49;16.22;71.38 
8.021;0.30;0.99;-0.11;-11.69;-3.76;-15.72;523.72;-147.08;125.00;1.04;-16.05;15.78;71.93 
8.051;0.36;1.00;-0.09;-13.70;-1.81;-18.02;528.67;-144.22;117.00;1.07;-15.53;15.27;72.56 
8.081;0.33;0.98;-0.10;-12.66;-3.76;-21.01;529.66;-136.58;119.00;1.04;-15.04;14.77;73.15 
8.111;0.34;1.01;-0.10;-13.15;-7.23;-25.81;530.65;-134.67;116.00;1.07;-14.41;14.14;73.85 
8.141;0.30;0.98;-0.12;-14.61;-10.85;-30.47;531.64;-127.02;110.00;1.03;-13.64;13.34;74.71 
8.171;0.30;1.02;-0.11;-16.70;-15.23;-34.57;534.61;-118.43;106.00;1.07;-12.79;12.46;75.66 
8.201;0.28;1.09;-0.14;-22.54;-13.50;-35.20;535.60;-114.61;105.00;1.13;-11.78;11.42;76.77 
8.232;0.24;1.07;-0.14;-31.10;-9.88;-37.43;538.57;-98.37;96.00;1.11;-10.71;10.35;78.05 
8.262;0.22;1.15;-0.10;-33.88;-4.80;-43.62;542.53;-90.73;89.00;1.18;-9.47;9.14;79.59 
8.292;0.15;1.12;-0.17;-25.81;0.28;-51.06;547.48;-81.18;87.00;1.14;-8.18;7.88;81.07 
8.323;0.14;1.15;-0.17;-23.23;10.09;-58.99;548.47;-63.03;78.00;1.17;-6.49;6.25;82.82 
8.353;0.06;1.05;-0.08;-20.94;13.08;-64.49;549.46;-54.44;76.00;1.05;-4.65;4.48;84.66 
8.383;0.09;1.11;-0.13;-9.74;15.10;-64.28;550.45;-38.20;70.00;1.12;-2.79;2.66;86.36 
8.413;0.06;1.06;-0.14;-5.43;16.90;-60.03;549.46;-27.70;68.00;1.07;-1.00;0.90;87.52 
8.443;0.02;1.03;-0.08;-1.74;33.81;-57.60;544.51;-11.46;71.00;1.03;0.74;-0.79;87.50 
8.473;0.00;1.04;0.01;13.08;28.59;-61.63;545.50;-1.91;78.00;1.04;2.40;-2.41;86.43 
8.503;-0.18;1.05;-0.10;22.82;15.10;-49.53;540.55;7.64;86.00;1.07;4.09;-4.06;84.74 
8.534;-0.22;1.08;-0.07;6.89;23.65;-32.70;532.63;15.28;93.00;1.10;5.60;-5.50;83.15 
8.564;-0.22;1.06;0.00;16.63;16.77;-44.45;533.62;24.83;95.00;1.08;6.84;-6.67;81.84 
8.594;-0.30;1.05;0.00;13.63;5.91;-45.08;527.68;28.65;102.00;1.09;8.08;-7.84;80.57 
8.624;-0.40;0.97;-0.06;-6.19;-3.76;-41.46;525.70;40.11;103.00;1.05;9.39;-9.12;79.31 
8.654;-0.24;1.14;-0.03;-34.85;-0.28;-34.23;521.74;44.89;102.00;1.17;10.36;-10.10;78.70 
8.684;-0.32;1.05;0.04;-48.77;-6.61;-14.47;526.69;53.48;94.00;1.10;10.92;-10.72;78.63 
8.714;-0.29;1.00;0.10;-58.09;-2.92;-11.06;526.69;56.35;79.00;1.05;11.20;-11.06;78.72 
8.745;-0.23;0.98;0.10;-64.90;-0.77;0.42;528.67;58.26;71.00;1.01;11.17;-11.12;78.88 
8.775;-0.27;1.02;0.10;-64.35;-1.81;4.66;538.57;58.26;59.00;1.06;10.87;-10.91;78.98 
8.805;-0.32;0.99;0.16;-77.70;1.74;8.83;540.55;57.30;41.00;1.05;10.43;-10.59;78.81 
8.836;-0.19;0.98;0.22;-85.77;5.01;7.86;546.49;54.44;23.00;1.02;9.86;-10.20;78.14 
8.866;-0.23;1.03;0.22;-88.49;1.53;13.08;552.43;51.57;11.00;1.08;9.19;-9.75;76.99 
8.896;-0.24;0.93;0.26;-91.76;5.70;17.60;554.41;45.84;-5.00;1.00;8.31;-9.12;75.59 
8.926;-0.26;0.90;0.26;-95.10;18.09;26.09;556.39;41.07;-33.00;0.97;7.36;-8.49;73.84 
8.957;-0.24;0.96;0.31;-93.98;15.72;20.73;564.31;33.43;-50.00;1.04;6.15;-7.76;71.82 
8.987;-0.12;0.94;0.36;-87.72;19.90;17.53;563.32;34.38;-67.00;1.01;5.02;-7.14;69.78 
9.017;-0.16;0.85;0.33;-72.14;24.28;13.43;565.30;26.74;-83.00;0.93;4.04;-6.71;67.83 
9.048;-0.11;0.84;0.42;-59.69;28.45;10.99;566.29;23.88;-95.00;0.95;3.07;-6.41;66.35 
9.078;-0.16;0.90;0.47;-42.71;26.71;6.12;566.29;21.01;-107.00;1.03;2.40;-6.32;64.99 
9.108;-0.17;0.81;0.46;-40.42;20.38;1.95;566.29;23.88;-111.00;0.95;1.85;-6.35;64.13 
9.138;-0.18;0.83;0.50;-31.44;11.27;0.07;564.31;21.01;-111.00;0.99;1.43;-6.35;63.34 
9.168;-0.18;0.89;0.53;-29.43;10.78;-4.45;562.33;22.92;-119.00;1.05;1.12;-6.33;62.61 
9.198;-0.18;0.82;0.53;-27.62;10.23;-6.19;561.34;23.88;-125.00;0.99;0.90;-6.43;61.91 
9.228;-0.21;0.82;0.54;-24.77;-1.04;-2.43;559.36;23.88;-129.00;1.00;0.67;-6.42;61.25 
9.259;-0.23;0.79;0.51;-24.49;-5.22;0.90;557.38;24.83;-131.00;0.97;0.33;-6.18;60.76 
9.288;-0.26;0.69;0.51;-28.73;-0.97;-0.77;555.40;24.83;-138.00;0.90;-0.00;-5.97;60.15 
9.318;-0.22;0.74;0.58;-27.69;-1.81;-6.89;555.40;20.06;-143.00;0.97;-0.22;-5.92;59.40 
9.348;-0.26;0.74;0.59;-39.37;-6.40;-12.10;552.43;26.74;-147.00;0.98;-0.24;-5.98;58.53 
9.378;-0.23;0.70;0.63;-41.46;-7.65;-12.59;552.43;30.56;-157.00;0.97;-0.25;-6.08;57.34 
9.408;-0.26;0.69;0.65;-45.01;-8.83;-8.56;539.56;32.47;-165.00;0.98;-0.31;-6.10;56.14 
9.438;-0.27;0.66;0.66;-40.35;-5.77;-5.84;539.56;34.38;-173.00;0.97;-0.57;-5.94;55.00 
9.469;-0.24;0.62;0.66;-47.37;-2.50;1.95;535.60;34.38;-184.00;0.94;-0.93;-5.77;53.73 
9.499;-0.26;0.58;0.70;-44.24;-2.50;4.66;532.63;34.38;-187.00;0.95;-1.46;-5.53;52.37 
9.529;-0.22;0.67;0.66;-43.90;-6.75;6.82;531.64;32.47;-200.00;0.97;-2.02;-5.18;51.21 
9.560;-0.21;0.64;0.66;-51.20;-0.28;10.99;527.68;35.34;-212.00;0.94;-2.69;-4.78;50.00 
9.590;-0.22;0.53;0.68;-46.75;-0.63;9.04;523.72;30.56;-220.00;0.89;-3.42;-4.41;48.66 
9.620;-0.14;0.55;0.71;-43.62;-4.94;7.72;520.75;28.65;-226.00;0.91;-4.07;-4.03;47.49 
9.650;-0.17;0.54;0.72;-47.65;-1.74;4.94;518.77;26.74;-239.00;0.92;-4.69;-3.61;46.32 
9.680;-0.20;0.54;0.77;-47.58;0.63;3.48;512.83;27.70;-244.00;0.96;-5.24;-3.37;45.02 
9.710;-0.19;0.54;0.78;-43.69;-5.98;3.20;508.87;29.61;-252.00;0.97;-5.75;-3.07;43.82 
9.739;-0.18;0.47;0.80;-42.37;-10.37;4.03;506.89;24.83;-258.00;0.95;-6.25;-2.69;42.63 
9.770;-0.15;0.50;0.81;-35.20;-17.88;2.02;499.96;24.83;-265.00;0.96;-6.71;-2.14;41.52 
9.800;-0.14;0.46;0.77;-36.03;-15.30;-1.25;492.04;21.01;-279.00;0.91;-7.10;-1.50;40.55 
9.830;-0.12;0.48;0.77;-32.42;-14.68;-2.85;489.07;20.06;-285.00;0.92;-7.34;-1.05;39.62 
9.860;-0.10;0.47;0.82;-32.14;-13.84;-2.71;487.09;21.01;-286.00;0.95;-7.55;-0.60;38.82 
9.890;-0.08;0.42;0.78;-29.29;-18.43;0.00;483.13;16.24;-291.00;0.89;-7.81;-0.05;38.04 
9.920;-0.13;0.45;0.83;-25.18;-20.80;-0.56;477.19;17.19;-304.00;0.95;-8.04;0.58;37.36 
9.950;-0.09;0.43;0.83;-30.47;-17.39;1.11;473.23;16.24;-305.00;0.94;-8.27;1.13;36.65 
9.981;-0.09;0.42;0.83;-37.63;-15.44;4.87;466.30;10.51;-317.00;0.93;-8.61;1.75;35.78 
10.011;-0.10;0.37;0.86;-39.03;-16.21;4.24;463.33;8.60;-320.00;0.94;-9.00;2.38;34.72 
10.041;-0.10;0.31;0.85;-39.17;-15.72;5.01;453.43;3.82;-330.00;0.91;-9.37;2.98;33.62 
10.072;-0.07;0.27;0.85;-37.84;-14.12;3.76;450.46;1.91;-337.00;0.89;-9.71;3.56;32.49 
10.102;-0.06;0.26;0.87;-28.87;-17.67;4.31;444.52;-1.91;-343.00;0.91;-10.04;4.13;31.41 
10.132;-0.04;0.25;0.90;-36.80;-10.57;0.77;438.58;-3.82;-348.00;0.93;-10.31;4.66;30.59 
10.162;-0.06;0.24;0.85;-35.97;-13.84;0.28;431.65;-5.73;-356.00;0.89;-10.53;5.16;29.51 
10.192;-0.02;0.18;0.91;-35.27;-17.25;-2.57;423.73;-7.64;-362.00;0.93;-10.69;5.68;28.43 
10.222;0.00;0.16;0.90;-31.86;-19.41;-5.91;415.81;-9.55;-366.00;0.91;-10.73;6.21;27.45 
10.252;-0.02;0.14;0.88;-25.25;-21.91;-4.80;411.85;-8.60;-370.00;0.89;-10.69;6.79;26.62 
10.283;-0.02;0.09;0.87;-21.50;-16.28;-5.36;403.93;-12.42;-378.00;0.87;-10.76;7.48;26.14 
10.313;0.02;0.14;0.86;-21.84;-8.63;-5.91;403.93;-12.42;-377.00;0.87;-10.75;7.97;25.75 
10.343;0.00;0.15;0.86;-22.47;-4.17;-3.62;397.00;-16.24;-380.00;0.87;-10.74;8.20;25.15 
10.372;0.02;0.13;0.88;-21.98;-4.17;-3.90;393.04;-12.42;-384.00;0.89;-10.76;8.38;24.55 
10.402;0.02;0.13;0.90;-19.97;-8.49;-4.66;387.10;-16.24;-388.00;0.91;-10.79;8.65;24.01 
10.432;0.03;0.14;0.85;-16.90;-10.50;-5.98;386.11;-16.24;-389.00;0.86;-10.77;8.96;23.51 
10.462;0.05;0.13;0.88;-11.90;-9.53;-6.47;380.17;-16.24;-394.00;0.89;-10.74;9.30;23.13 
10.493;0.02;0.12;0.88;-8.97;-7.17;-6.33;382.15;-14.33;-399.00;0.89;-10.71;9.60;22.87 
10.523;0.04;0.10;0.90;-6.12;-4.80;-4.66;379.18;-19.10;-399.00;0.91;-10.70;9.84;22.71 
10.553;0.05;0.10;0.86;-4.38;-2.09;-2.37;378.19;-20.06;-397.00;0.87;-10.75;9.99;22.62 
10.584;0.06;0.10;0.93;-2.71;-2.16;-1.39;377.20;-20.06;-399.00;0.94;-10.86;10.13;22.54 
10.614;0.02;0.11;0.92;-2.09;-0.90;-0.14;377.20;-20.06;-400.00;0.93;-11.01;10.27;22.49 
10.644;0.04;0.07;0.88;0.70;0.63;-1.11;372.25;-18.15;-402.00;0.88;-11.17;10.39;22.48 
10.673;0.04;0.14;0.90;2.57;1.53;-0.07;374.23;-19.10;-401.00;0.91;-11.32;10.44;22.55 
10.702;0.05;0.14;0.89;4.10;2.99;0.35;374.23;-20.06;-405.00;0.90;-11.49;10.47;22.68 
10.731;0.07;0.16;0.87;5.77;4.10;1.39;376.21;-20.06;-402.00;0.89;-11.70;10.50;22.86 
10.761;0.06;0.13;0.86;4.94;6.12;1.53;376.21;-22.92;-397.00;0.87;-11.94;10.50;23.05 
10.792;0.02;0.12;0.90;3.69;4.52;-0.49;375.22;-18.15;-398.00;0.91;-12.16;10.47;23.18 
10.822;0.02;0.08;0.90;3.76;-0.14;-2.30;378.19;-17.19;-398.00;0.90;-12.31;10.48;23.29 
10.852;0.02;0.12;0.89;3.55;-2.37;-3.76;377.20;-21.01;-401.00;0.90;-12.40;10.57;23.41 
10.883;0.02;0.17;0.84;2.78;1.04;-3.06;380.17;-17.19;-401.00;0.86;-12.48;10.67;23.56 
10.913;0.02;0.10;0.86;1.46;6.19;-2.37;378.19;-17.19;-401.00;0.87;-12.56;10.63;23.63 
10.943;0.00;0.12;0.90;2.02;8.49;-1.32;381.16;-14.33;-402.00;0.91;-12.70;10.59;23.88 
10.972;0.00;0.12;0.93;3.55;7.65;-1.74;382.15;-18.15;-397.00;0.94;-12.84;10.51;24.14 
11.002;0.06;0.16;0.92;6.47;2.50;-5.50;380.17;-18.15;-396.00;0.94;-13.01;10.69;24.70 
11.032;0.01;0.18;0.88;3.48;-0.21;-4.10;381.16;-17.19;-397.00;0.90;-13.06;10.73;24.95 
11.062;0.04;0.20;0.86;3.20;5.91;-5.70;378.19;-15.28;-398.00;0.88;-13.05;10.65;25.13 
11.093;0.01;0.21;0.91;2.71;6.68;-3.13;382.15;-16.24;-398.00;0.93;-13.07;10.47;25.31 
11.123;0.02;0.19;0.89;1.53;5.63;0.14;383.14;-12.42;-396.00;0.91;-13.16;10.32;25.45 
11.153;-0.02;0.17;0.86;0.49;4.80;1.67;383.14;-13.37;-393.00;0.88;-13.36;10.34;25.67 
11.184;0.00;0.16;0.86;0.00;2.30;2.16;381.16;-12.42;-397.00;0.87;-13.62;10.47;25.90 
11.214;0.00;0.14;0.91;0.00;0.56;1.67;385.12;-15.28;-392.00;0.92;-13.86;10.61;26.07 
11.244;0.02;0.16;0.91;-0.07;0.63;0.90;385.12;-16.24;-393.00;0.92;-14.07;10.77;26.24 
11.274;0.02;0.15;0.86;-0.56;0.56;1.46;384.13;-15.28;-392.00;0.87;-14.24;10.82;26.23 
11.305;0.00;0.17;0.93;-0.28;0.42;2.02;386.11;-14.33;-390.00;0.95;-14.43;10.88;26.20 
11.335;0.00;0.15;0.91;-0.70;-0.21;1.95;385.12;-13.37;-392.00;0.92;-14.64;10.95;26.14 
11.365;0.02;0.14;0.88;-0.14;0.07;2.30;386.11;-15.28;-396.00;0.89;-14.84;11.02;26.10 
11.395;0.00;0.12;0.86;0.00;-0.07;1.39;386.11;-14.33;-394.00;0.87;-15.06;11.11;26.03 
11.425;0.01;0.13;0.90;-0.70;0.56;0.90;383.14;-14.33;-394.00;0.91;-15.25;11.17;25.97 
11.455;0.02;0.14;0.89;-0.90;1.18;0.21;387.10;-15.28;-393.00;0.90;-15.40;11.20;25.89 
11.485;0.04;0.15;0.89;-1.25;1.18;0.00;379.18;-13.37;-393.00;0.90;-15.57;11.32;26.02 
11.515;0.02;0.16;0.86;-0.97;0.28;-0.42;384.13;-15.28;-393.00;0.87;-15.69;11.34;25.98 
11.545;0.03;0.14;0.87;-0.77;0.77;-0.07;383.14;-15.28;-394.00;0.88;-15.82;11.35;25.93 
11.575;0.03;0.16;0.89;-0.49;0.56;-0.21;382.15;-14.33;-393.00;0.90;-15.96;11.37;25.89 
11.605;0.02;0.14;0.87;-0.21;0.49;-0.49;386.11;-14.33;-395.00;0.88;-16.09;11.39;25.85 
11.634;0.03;0.15;0.91;1.67;1.11;-1.11;381.16;-17.19;-393.00;0.92;-16.20;11.40;25.86 
11.663;0.00;0.18;0.91;3.41;2.37;-0.28;386.11;-16.24;-398.00;0.93;-16.32;11.39;25.90 
11.694;0.02;0.21;0.88;3.20;3.13;2.85;384.13;-16.24;-391.00;0.90;-16.50;11.38;25.98 
11.724;0.05;0.17;0.88;0.83;7.51;4.31;386.11;-15.28;-389.00;0.90;-16.76;11.32;26.03 
11.754;0.04;0.15;0.88;-1.67;9.11;4.17;387.10;-18.15;-393.00;0.89;-17.04;11.22;26.01 
11.784;0.01;0.16;0.88;-10.09;15.37;6.54;386.11;-14.33;-392.00;0.89;-17.32;11.01;25.79 
11.814;0.00;0.15;0.85;-9.32;15.65;0.97;384.13;-15.28;-391.00;0.86;-17.62;10.80;25.62 
11.844;0.00;0.14;0.79;-6.96;16.35;-0.14;381.16;-10.51;-391.00;0.80;-17.77;10.43;25.37 
11.873;0.00;0.14;0.83;-3.27;22.68;-0.56;382.15;-8.60;-393.00;0.84;-17.92;10.09;25.42 
11.904;-0.02;0.11;0.86;-0.56;26.64;0.35;382.15;-1.91;-392.00;0.87;-18.11;9.64;25.57 
11.934;-0.04;0.14;0.90;1.67;32.97;1.11;381.16;0.96;-389.00;0.91;-18.27;8.83;25.55 
11.964;-0.05;0.14;0.86;1.11;37.36;0.83;382.15;5.73;-387.00;0.87;-18.44;7.94;25.57 
