Time(s) acc_x(g) acc_y(g) acc_z(g) gyr_x(°/s) gyr_y(°/s) gyr_z(°/s) mag_x(G) mag_y(G) mag_z(G) SVM(g) yaw(°) pitch(°) roll(°)
0.000;-0.54;0.18;0.70;1.32;-2.71;-0.14;157.22;42.96;-197.00;0.90;128.45;-27.05;30.89 
0.030;-0.55;0.17;0.78;3.48;-7.10;-6.54;158.21;40.09;-197.00;0.97;128.96;-27.05;30.89 
0.060;-0.52;0.22;0.82;4.87;-16.21;-8.63;157.22;39.14;-200.00;1.00;129.81;-26.91;30.87 
0.090;-0.53;0.24;0.78;7.03;-21.22;-7.93;155.23;38.18;-207.00;0.97;130.84;-26.57;30.93 
0.120;-0.53;0.26;0.71;7.58;-22.54;-6.19;159.21;36.27;-208.00;0.92;131.93;-26.15;31.08 
0.150;-0.51;0.26;0.75;6.75;-22.40;-4.59;154.23;33.41;-214.00;0.94;133.00;-25.68;31.26 
0.180;-0.48;0.22;0.65;5.70;-16.77;-5.91;156.22;34.36;-216.00;0.84;133.95;-25.32;31.40 
0.210;-0.52;0.18;0.66;4.94;-10.37;-10.43;155.23;29.59;-220.00;0.86;134.83;-25.18;31.41 
0.241;-0.52;0.19;0.71;4.24;-7.79;-12.45;153.24;30.55;-222.00;0.90;135.73;-25.22;31.31 
0.271;-0.55;0.24;0.75;5.15;-8.49;-12.17;153.24;29.59;-227.00;0.96;136.63;-25.32;31.20 
0.301;-0.51;0.27;0.73;5.50;-13.57;-7.58;152.24;26.73;-229.00;0.93;137.52;-25.28;31.17 
0.332;-0.50;0.23;0.71;5.29;-13.63;-3.83;146.27;27.68;-229.00;0.90;138.36;-25.06;31.25 
0.362;-0.51;0.20;0.70;3.20;-9.81;-4.87;148.26;25.77;-230.00;0.89;139.08;-24.89;31.28 
0.392;-0.50;0.20;0.70;3.27;-8.00;-6.96;148.26;26.73;-237.00;0.88;139.74;-24.82;31.22 
0.422;-0.51;0.22;0.73;3.48;-7.58;-7.51;146.27;23.86;-234.00;0.92;140.41;-24.81;31.14 
0.451;-0.50;0.20;0.71;3.34;-8.28;-7.10;146.27;21.96;-240.00;0.89;141.12;-24.80;31.05 
0.481;-0.48;0.16;0.72;2.64;-5.29;-7.72;144.28;22.91;-237.00;0.88;141.78;-24.80;30.97 
0.511;-0.49;0.22;0.75;2.30;-0.28;-8.42;141.30;18.14;-240.00;0.92;142.36;-24.87;30.85 
0.542;-0.50;0.24;0.75;0.83;-1.67;-6.05;138.31;21.96;-240.00;0.93;142.92;-25.03;30.73 
0.572;-0.47;0.22;0.74;0.42;-2.99;-3.41;140.30;21.00;-239.00;0.90;143.39;-25.09;30.63 
0.602;-0.46;0.20;0.76;-0.07;-1.25;-1.81;139.31;19.09;-242.00;0.91;143.78;-25.10;30.54 
0.632;-0.46;0.20;0.77;-1.18;-1.04;-0.63;138.31;21.96;-243.00;0.92;144.08;-25.15;30.43 
0.662;-0.46;0.20;0.69;-1.46;0.00;-0.97;137.32;20.05;-241.00;0.85;144.34;-25.17;30.30 
0.691;-0.46;0.24;0.74;-1.95;3.76;0.21;137.32;19.09;-243.00;0.90;144.56;-25.26;30.18 
0.721;-0.46;0.24;0.76;-1.53;3.90;1.81;136.32;21.96;-243.00;0.92;144.70;-25.34;30.09 
0.751;-0.45;0.22;0.77;-1.60;0.70;2.09;141.30;21.96;-240.00;0.92;144.82;-25.35;30.02 
0.781;-0.46;0.18;0.73;-0.63;-2.30;1.46;142.29;21.00;-240.00;0.88;145.01;-25.30;29.95 
0.811;-0.46;0.20;0.72;-0.28;-0.07;0.28;138.31;19.09;-238.00;0.88;145.26;-25.25;29.88 
0.842;-0.45;0.22;0.71;-0.63;4.10;-0.70;137.32;18.14;-241.00;0.87;145.50;-25.34;29.80 
0.872;-0.42;0.14;0.90;1.81;-8.07;-4.87;144.28;21.96;-237.00;1.00;145.79;-25.31;29.97 
0.902;-0.47;0.23;0.77;3.27;-5.29;2.30;136.32;21.00;-244.00;0.93;146.26;-25.17;29.96 
0.931;-0.41;0.13;0.82;62.75;-6.82;-7.93;145.28;20.05;-244.00;0.93;147.03;-25.07;30.54 
0.960;-0.46;0.29;0.74;-4.52;-16.97;0.14;144.28;18.14;-246.00;0.92;148.48;-24.86;31.33 
0.990;-0.47;0.17;0.74;5.22;-13.08;25.46;149.26;16.23;-248.00;0.89;148.01;-24.23;32.18 
1.019;-0.45;0.24;0.65;-1.95;-2.99;3.62;156.22;18.14;-246.00;0.83;148.05;-23.88;32.27 
1.049;-0.44;0.26;0.73;-3.27;1.46;-4.45;154.23;15.27;-248.00;0.89;148.29;-23.94;32.07 
1.079;-0.48;0.26;0.74;-4.94;2.99;-4.87;152.24;17.18;-245.00;0.92;148.54;-24.10;31.82 
1.109;-0.47;0.26;0.74;-6.96;6.68;-4.87;152.24;16.23;-250.00;0.91;148.77;-24.35;31.48 
1.140;-0.49;0.30;0.72;-5.43;7.58;0.00;151.25;19.09;-248.00;0.92;148.94;-24.63;31.23 
1.170;-0.51;0.29;0.67;-2.92;4.52;-1.11;148.26;17.18;-245.00;0.89;148.93;-24.81;31.01 
1.200;-0.46;0.21;0.66;1.74;16.42;1.46;149.26;18.14;-244.00;0.83;149.10;-25.11;31.04 
1.230;-0.51;0.25;0.69;3.41;30.68;-1.74;149.26;21.00;-240.00;0.89;149.15;-25.83;30.99 
1.260;-0.53;0.25;0.78;1.39;17.67;-8.35;150.25;21.96;-234.00;0.98;149.23;-26.59;30.84 
1.290;-0.54;0.29;0.78;5.50;1.32;-9.18;145.28;27.68;-232.00;0.99;149.72;-27.03;30.76 
1.319;-0.57;0.26;0.74;6.19;-11.90;-21.57;143.29;24.82;-233.00;0.97;150.57;-27.16;30.70 
1.348;-0.46;0.26;0.68;4.24;-16.77;-31.10;144.28;24.82;-232.00;0.86;152.03;-27.34;30.38 
1.377;-0.39;0.29;0.51;-1.39;-12.94;-28.38;133.34;21.96;-238.00;0.70;153.29;-27.42;29.97 
1.407;-0.49;0.30;0.51;2.09;-0.35;-45.29;128.36;20.05;-240.00;0.77;154.65;-27.83;29.45 
1.437;-0.54;0.29;0.62;15.51;18.16;-50.30;114.43;21.00;-237.00;0.87;156.62;-29.08;28.89 
1.466;-0.62;0.36;0.62;26.23;1.18;-40.83;109.45;22.91;-232.00;0.95;158.65;-30.23;28.58 
1.496;-0.57;0.34;0.46;34.30;-5.84;-37.50;104.48;23.86;-233.00;0.81;160.81;-30.91;28.66 
1.526;-0.54;0.30;0.38;36.24;5.91;-41.88;100.50;21.96;-235.00;0.73;163.26;-31.74;28.81 
1.555;-0.48;0.34;0.31;45.08;11.41;-43.06;100.50;25.77;-232.00;0.66;165.88;-32.90;29.00 
1.585;-0.32;0.26;0.22;55.44;11.48;-40.83;92.54;24.82;-231.00;0.47;168.65;-34.07;29.42 
1.615;-0.17;0.10;0.20;62.40;15.93;-35.62;93.53;24.82;-224.00;0.28;171.69;-35.19;30.02 
1.644;-0.20;0.05;0.13;68.66;31.23;-46.68;90.55;26.73;-222.00;0.24;175.07;-36.72;30.42 
1.673;-0.34;0.23;0.21;69.36;45.50;-57.53;90.55;28.64;-216.00;0.46;178.93;-38.80;30.52 
1.703;-0.41;0.30;0.34;64.83;42.23;-52.03;84.58;34.36;-208.00;0.61;-177.12;-40.95;30.56 
1.734;-0.40;0.34;0.45;59.20;25.25;-49.04;76.62;34.36;-197.00;0.69;-173.15;-42.82;30.43 
1.764;-0.46;0.51;0.49;55.65;2.85;-33.67;79.60;36.27;-194.00;0.84;-169.66;-44.08;30.36 
1.794;-0.51;0.68;0.44;47.51;-12.66;-8.77;76.62;35.32;-192.00;0.96;-167.27;-44.39;30.71 
1.825;-0.66;0.90;0.74;21.36;-29.15;2.30;79.60;32.46;-197.00;1.34;-166.11;-44.07;31.27 
1.854;-0.77;0.64;1.09;-14.54;-156.66;24.14;78.61;27.68;-205.00;1.48;-167.74;-41.82;31.12 
1.884;-0.47;0.31;0.42;20.87;-202.57;50.23;83.58;14.32;-240.00;0.70;-169.37;-37.07;31.90 
1.914;-0.05;0.18;0.01;-48.90;-128.21;43.69;85.57;1.91;-263.00;0.19;-171.27;-32.43;32.56 
1.944;-0.45;0.45;0.58;-129.53;-54.61;31.79;79.60;-3.82;-275.00;0.86;-174.20;-30.72;30.77 
1.974;-0.10;0.34;0.72;-85.08;-72.77;21.15;65.67;-12.41;-284.00;0.80;-177.44;-28.13;28.63 
2.004;-0.58;0.27;0.53;-79.58;-12.45;13.70;54.73;-10.50;-279.00;0.83;-179.30;-27.14;26.51 
2.035;-0.66;0.06;0.58;-115.34;-61.70;20.94;38.81;-13.36;-272.00;0.88;178.88;-26.78;23.93 
2.065;-0.63;0.19;0.58;-173.01;-90.85;15.37;33.83;-16.23;-274.00;0.88;176.08;-24.54;20.08 
2.095;-0.58;-0.02;1.24;-169.32;9.95;1.39;-12.94;-36.27;-272.00;1.37;173.44;-23.11;15.19 
2.126;-1.90;-1.51;3.07;57.39;31.03;-16.35;-37.81;-22.91;-251.00;3.91;172.16;-26.12;11.48 
2.156;1.22;0.92;5.41;409.46;-277.91;-162.85;-7.96;-56.32;-308.00;5.62;179.29;-17.28;20.95 
2.185;0.54;1.34;1.61;-528.49;-181.22;124.66;14.93;-93.55;-342.00;2.16;-179.35;-13.99;20.44 
2.215;0.40;0.60;0.02;-519.10;-309.70;87.65;-109.45;-132.69;-301.00;0.72;173.21;-7.03;4.97 
2.246;0.14;1.01;-0.38;-146.30;-306.85;55.58;-153.24;-181.37;-304.00;1.09;170.84;4.18;-4.20 
2.276;0.01;0.34;-0.66;-104.00;-102.89;175.51;-166.17;-209.05;-309.00;0.74;168.10;10.41;-8.26 
2.306;0.00;-0.60;-0.26;-84.10;44.03;170.71;-169.16;-197.60;-298.00;0.65;163.19;10.19;-12.44 
2.337;0.50;-1.11;0.20;-98.57;138.50;-7.58;-177.12;-163.23;-271.00;1.23;161.21;7.25;-16.42 
2.367;0.50;-1.34;0.78;-123.62;87.03;-49.04;-206.97;-151.78;-246.00;1.63;163.39;4.17;-20.18 
2.396;0.18;-1.28;1.42;-175.79;-12.31;-36.59;-225.88;-153.69;-221.00;1.92;165.47;3.33;-24.79 
2.426;0.10;-1.08;0.93;-228.66;-213.50;-56.63;-251.75;-170.87;-198.00;1.43;167.95;6.63;-30.86 
2.456;0.35;-1.08;0.16;-236.94;-199.93;13.15;-289.56;-209.05;-161.00;1.15;170.83;12.78;-38.17 
2.486;0.40;-0.97;-0.44;-250.85;-115.69;45.50;-308.46;-215.74;-121.00;1.14;173.53;15.89;-46.01 
2.515;0.35;-1.28;-0.66;-166.61;-55.51;74.64;-319.41;-214.78;-84.00;1.48;176.00;16.44;-53.29 
2.546;-0.17;-1.38;-0.71;-83.48;-33.81;40.70;-320.40;-207.14;-64.00;1.56;176.99;15.48;-58.13 
2.576;0.07;-1.56;-0.59;-22.26;40.77;-2.57;-318.41;-205.24;-51.00;1.67;178.08;15.08;-60.75 
2.606;0.18;-0.89;-0.30;13.91;123.34;-38.68;-322.39;-202.37;-40.00;0.96;178.88;14.38;-61.33 
2.637;0.46;-0.61;0.16;22.05;172.24;-38.75;-325.38;-209.05;-32.00;0.78;-179.42;14.05;-60.36 
2.666;0.38;-0.74;0.54;24.90;57.46;-6.61;-328.36;-209.05;-26.00;0.99;-179.07;13.06;-59.33 
2.696;0.30;-0.72;0.33;-9.04;-62.12;20.87;-324.38;-204.28;-23.00;0.85;-179.05;13.13;-59.25 
2.726;0.22;-1.07;-0.03;-0.97;-68.59;41.67;-323.39;-199.51;-33.00;1.09;-179.84;13.32;-60.14 
2.756;0.14;-1.19;-0.15;-0.83;-10.30;-0.21;-319.41;-199.51;-33.00;1.21;179.72;13.35;-60.93 
2.786;0.31;-0.98;-0.07;13.84;33.95;-4.17;-323.39;-199.51;-37.00;1.03;-179.96;13.40;-61.20 
2.816;0.28;-0.98;0.16;28.94;31.17;6.89;-320.40;-199.51;-38.00;1.03;179.96;13.07;-60.97 
2.847;0.18;-1.10;0.30;33.11;8.56;9.95;-319.41;-194.73;-39.00;1.15;179.36;12.63;-60.46 
2.877;0.18;-1.04;0.29;19.48;-10.37;-3.48;-316.42;-192.83;-48.00;1.09;178.95;12.48;-60.06 
2.907;0.22;-0.96;0.21;20.03;-12.10;0.56;-316.42;-195.69;-49.00;1.01;178.83;12.75;-59.76 
2.937;0.27;-0.96;0.19;22.05;-8.97;-0.07;-313.44;-196.64;-57.00;1.02;178.71;13.02;-59.43 
2.967;0.28;-0.90;0.13;23.17;-11.69;5.01;-316.42;-194.73;-63.00;0.95;178.46;13.23;-59.10 
2.997;0.34;-0.89;0.17;24.07;1.04;9.18;-310.45;-196.64;-68.00;0.97;178.21;13.40;-58.76 
3.027;0.26;-0.94;0.26;19.34;8.28;16.42;-309.46;-191.87;-74.00;1.01;177.71;13.17;-58.49 
3.058;0.22;-0.95;0.26;13.22;-4.45;12.94;-309.46;-189.96;-75.00;1.01;177.15;12.84;-58.40 
3.088;0.26;-0.94;0.21;16.42;-9.46;14.19;-307.47;-187.10;-80.00;1.00;176.72;12.73;-58.38 
3.117;0.22;-0.91;0.17;24.49;-10.99;16.63;-301.50;-186.14;-85.00;0.95;176.19;12.65;-58.25 
3.148;0.21;-0.98;0.17;29.29;-3.55;13.57;-298.51;-185.19;-92.00;1.02;175.46;12.47;-57.96 
3.178;0.15;-0.98;0.26;26.71;4.10;9.53;-295.53;-181.37;-96.00;1.02;174.79;12.26;-57.53 
3.208;0.14;-0.90;0.33;20.31;7.72;-1.39;-295.53;-176.60;-104.00;0.97;174.34;12.07;-57.08 
3.238;0.21;-0.86;0.38;16.00;7.58;-8.90;-291.55;-180.42;-106.00;0.96;174.38;12.22;-56.64 
3.268;0.20;-0.94;0.42;10.57;1.46;-10.23;-293.54;-185.19;-107.00;1.05;174.57;12.46;-56.21 
3.298;0.14;-0.94;0.38;1.88;-10.64;-16.90;-290.55;-181.37;-108.00;1.02;174.96;12.90;-56.00 
3.328;0.17;-0.96;0.32;-3.48;-13.91;-28.03;-295.53;-190.92;-109.00;1.03;175.74;13.70;-55.96 
3.359;0.27;-0.91;0.30;-3.83;-1.25;-27.13;-295.53;-194.73;-110.00;1.00;176.94;14.74;-55.83 
3.389;0.34;-0.90;0.34;-1.67;-1.25;-9.53;-299.51;-197.60;-108.00;1.02;177.87;15.46;-55.74 
3.419;0.30;-0.93;0.32;-1.74;-8.28;4.94;-300.50;-197.60;-107.00;1.03;178.17;15.77;-55.82 
3.449;0.26;-0.94;0.26;-1.95;-8.35;6.89;-301.50;-202.37;-110.00;1.01;178.20;15.86;-56.11 
3.479;0.30;-0.87;0.25;-1.18;-2.64;2.78;-298.51;-198.55;-108.00;0.95;178.32;15.98;-56.38 
3.509;0.31;-0.84;0.27;-1.88;0.49;4.94;-297.52;-197.60;-110.00;0.94;178.48;16.07;-56.59 
3.539;0.29;-0.89;0.29;-1.46;-3.48;9.11;-299.51;-196.64;-109.00;0.98;178.55;16.09;-56.82 
3.570;0.26;-0.90;0.29;-1.67;-2.85;9.32;-295.53;-194.73;-109.00;0.98;178.51;16.03;-57.18 
3.600;0.26;-0.93;0.23;-0.83;2.16;4.52;-297.52;-195.69;-109.00;0.99;178.53;15.97;-57.47 
3.630;0.29;-0.89;0.22;0.83;10.09;4.73;-296.52;-193.78;-108.00;0.96;178.62;15.90;-57.67 
3.661;0.26;-0.89;0.29;2.02;11.20;8.21;-295.53;-192.83;-108.00;0.97;178.64;15.72;-57.84 
3.690;0.22;-0.92;0.31;-0.07;6.68;4.31;-295.53;-190.92;-109.00;1.00;178.54;15.49;-57.99 
3.719;0.26;-0.90;0.27;-2.78;6.19;4.80;-294.53;-191.87;-108.00;0.97;178.64;15.43;-58.15 
3.748;0.24;-0.87;0.30;-4.24;5.29;8.42;-293.54;-189.01;-107.00;0.95;178.71;15.33;-58.41 
3.778;0.25;-0.91;0.30;-4.10;5.57;9.74;-295.53;-187.10;-106.00;0.99;178.71;15.16;-58.77 
3.808;0.21;-0.98;0.32;-6.75;4.80;9.95;-293.54;-186.14;-102.00;1.05;178.69;14.93;-59.15 
3.838;0.18;-0.97;0.29;-8.28;1.18;6.19;-290.55;-180.42;-102.00;1.03;178.73;14.74;-59.57 
3.869;0.15;-0.98;0.26;-6.89;1.04;0.56;-293.54;-180.42;-100.00;1.02;178.89;14.67;-59.98 
3.899;0.20;-0.94;0.26;0.77;-5.01;-4.17;-294.53;-180.42;-100.00;1.00;179.20;14.80;-60.21 
3.929;0.22;-0.92;0.26;3.62;0.21;-4.17;-292.54;-178.51;-99.00;0.98;179.50;15.07;-60.20 
3.960;0.22;-0.90;0.30;-1.18;-0.70;-4.17;-292.54;-182.33;-100.00;0.97;179.80;15.28;-60.18 
3.990;0.24;-0.92;0.29;-2.37;-7.58;-1.81;-292.54;-185.19;-100.00;0.99;-179.93;15.53;-60.23 
4.020;0.26;-0.88;0.26;-3.69;3.55;-0.90;-293.54;-184.23;-96.00;0.95;-179.63;15.75;-60.35 
4.050;0.22;-0.94;0.27;-5.29;5.15;-0.97;-296.52;-180.42;-96.00;1.00;-179.34;15.81;-60.55 
4.081;0.20;-0.91;0.26;-5.57;-2.71;-0.28;-297.52;-185.19;-98.00;0.97;-179.08;15.92;-60.75 
4.111;0.23;-0.92;0.26;-2.23;-0.49;1.60;-297.52;-182.33;-97.00;0.98;-178.85;16.03;-60.95 
4.141;0.22;-0.96;0.23;2.37;3.34;2.16;-297.52;-182.33;-97.00;1.01;-178.75;16.07;-61.05 
4.171;0.21;-0.92;0.27;3.41;0.83;-0.63;-295.53;-182.33;-96.00;0.98;-178.68;16.12;-61.06 
4.200;0.26;-0.92;0.26;2.99;4.52;2.92;-294.53;-179.46;-99.00;0.99;-178.57;16.22;-61.02 
4.229;0.25;-0.93;0.31;1.11;4.80;4.31;-291.55;-181.37;-98.00;1.01;-178.57;16.18;-61.05 
4.258;0.21;-0.91;0.26;-0.28;2.64;4.87;-292.54;-183.28;-100.00;0.97;-178.55;16.12;-61.17 
4.288;0.19;-0.92;0.27;1.74;2.37;3.34;-291.55;-181.37;-102.00;0.98;-178.54;16.07;-61.31 
4.318;0.21;-0.94;0.25;4.03;4.03;3.06;-293.54;-180.42;-97.00;1.00;-178.53;16.05;-61.36 
4.348;0.21;-0.94;0.30;4.80;2.16;2.37;-291.55;-180.42;-97.00;1.01;-178.56;16.01;-61.38 
4.377;0.20;-0.94;0.30;4.17;1.88;1.53;-291.55;-178.51;-101.00;1.01;-178.57;16.03;-61.34 
4.407;0.21;-0.94;0.32;2.50;0.21;-0.07;-292.54;-179.46;-103.00;1.01;-178.55;16.06;-61.33 
4.437;0.20;-0.93;0.29;2.02;-2.78;0.00;-292.54;-180.42;-101.00;0.99;-178.46;16.15;-61.34 
4.467;0.22;-0.95;0.33;2.99;-5.22;-0.28;-292.54;-180.42;-104.00;1.03;-178.41;16.26;-61.32 
4.496;0.21;-0.91;0.32;2.78;-5.63;-3.62;-290.55;-180.42;-103.00;0.99;-178.30;16.46;-61.24 
4.526;0.22;-0.93;0.26;-0.21;-4.94;-3.97;-291.55;-179.46;-103.00;0.99;-178.09;16.70;-61.18 
4.557;0.22;-0.90;0.29;-0.97;-2.78;-0.63;-289.56;-179.46;-105.00;0.97;-177.82;16.95;-61.17 
4.587;0.22;-0.94;0.27;0.90;-0.49;-1.74;-290.55;-180.42;-103.00;1.00;-177.66;17.07;-61.23 
4.617;0.21;-0.95;0.28;1.74;0.07;-2.30;-291.55;-181.37;-106.00;1.01;-177.50;17.19;-61.21 
4.647;0.22;-0.93;0.26;0.77;-1.74;-2.43;-292.54;-181.37;-104.00;0.99;-177.33;17.31;-61.20 
4.678;0.23;-0.91;0.26;0.49;-2.99;-2.02;-292.54;-182.33;-107.00;0.97;-177.14;17.49;-61.18 
4.708;0.22;-0.89;0.28;1.46;0.90;-0.70;-294.53;-182.33;-104.00;0.96;-176.98;17.63;-61.18 
4.738;0.21;-0.91;0.26;1.95;3.06;-0.21;-291.55;-184.23;-106.00;0.97;-176.87;17.71;-61.16 
4.769;0.22;-0.91;0.29;2.09;2.23;0.63;-289.56;-185.19;-103.00;0.98;-176.81;17.76;-61.13 
4.799;0.22;-0.90;0.28;2.30;2.43;0.14;-291.55;-180.42;-109.00;0.97;-176.77;17.78;-61.13 
4.829;0.22;-0.93;0.32;1.11;4.73;-0.77;-289.56;-181.37;-108.00;1.01;-176.68;17.81;-61.14 
4.859;0.26;-0.87;0.34;-3.69;5.50;-2.23;-294.53;-185.19;-107.00;0.97;-176.55;17.83;-61.16 
4.889;0.26;-0.91;0.34;-9.32;0.77;2.57;-293.54;-184.23;-105.00;1.01;-176.30;17.89;-61.28 
4.919;0.22;-0.88;0.27;-8.83;-4.73;5.70;-296.52;-182.33;-105.00;0.95;-176.16;17.84;-61.60 
4.949;0.19;-0.98;0.26;-3.90;1.04;5.98;-293.54;-178.51;-101.00;1.03;-176.11;17.72;-61.96 
4.980;0.18;-0.93;0.30;-2.43;2.50;-1.53;-291.55;-181.37;-101.00;0.99;-176.04;17.66;-62.13 
5.010;0.23;-0.93;0.29;-3.97;0.21;-2.92;-293.54;-180.42;-103.00;1.00;-175.80;17.76;-62.20 
5.040;0.21;-0.92;0.29;-3.97;-2.09;-2.23;-294.53;-181.37;-96.00;0.99;-175.59;17.88;-62.24 
5.070;0.22;-0.92;0.27;-4.03;-3.34;-5.36;-296.52;-179.46;-96.00;0.98;-175.29;18.08;-62.30 
5.100;0.21;-0.94;0.25;-2.09;-0.42;-5.50;-293.54;-183.28;-96.00;1.00;-174.95;18.31;-62.30 
5.130;0.23;-0.92;0.27;-2.57;-2.71;-6.82;-293.54;-183.28;-94.00;0.99;-174.66;18.53;-62.26 
5.160;0.24;-0.92;0.27;-3.27;-2.30;-6.05;-297.52;-185.19;-99.00;0.99;-174.30;18.80;-62.20 
5.190;0.23;-0.91;0.27;-3.83;-3.20;-3.69;-297.52;-190.92;-96.00;0.98;-174.01;19.01;-62.20 
5.219;0.25;-0.90;0.30;-4.59;-4.03;-2.78;-301.50;-186.14;-98.00;0.98;-173.72;19.21;-62.21 
5.248;0.26;-0.94;0.26;-4.03;-2.57;-1.39;-301.50;-189.01;-97.00;1.01;-173.45;19.38;-62.25 
5.278;0.25;-0.94;0.26;-2.02;-1.46;0.77;-300.50;-191.87;-95.00;1.01;-173.28;19.47;-62.33 
5.307;0.22;-0.91;0.24;-0.14;0.35;1.18;-302.49;-189.01;-97.00;0.97;-173.19;19.49;-62.42 
5.336;0.25;-0.93;0.26;1.32;1.88;2.50;-302.49;-188.05;-95.00;1.00;-173.18;19.48;-62.45 
5.366;0.23;-0.90;0.24;0.28;0.56;2.64;-298.51;-186.14;-97.00;0.96;-173.20;19.45;-62.49 
5.395;0.23;-0.93;0.26;0.07;0.70;2.43;-298.51;-188.05;-96.00;0.99;-173.18;19.44;-62.55 
5.425;0.22;-0.91;0.26;0.56;0.70;0.49;-296.52;-187.10;-100.00;0.97;-173.17;19.41;-62.62 
5.455;0.26;-0.94;0.25;0.42;0.70;-1.53;-295.53;-188.05;-97.00;1.01;-173.11;19.46;-62.60 
5.485;0.22;-0.94;0.27;-0.35;-0.07;-0.83;-297.52;-186.14;-97.00;1.00;-173.02;19.52;-62.58 
5.515;0.24;-0.95;0.26;-0.49;-1.11;-1.11;-294.53;-187.10;-95.00;1.01;-172.91;19.61;-62.56 
5.545;0.26;-0.92;0.26;0.70;1.04;-0.07;-299.51;-188.05;-95.00;0.99;-172.81;19.68;-62.55 
5.576;0.24;-0.95;0.26;2.09;0.63;0.83;-300.50;-188.05;-96.00;1.01;-172.77;19.71;-62.53 
5.606;0.19;-0.94;0.26;5.91;1.25;2.78;-297.52;-189.01;-94.00;0.99;-172.84;19.68;-62.54 
5.636;0.21;-0.96;0.26;9.53;0.97;0.70;-294.53;-187.10;-98.00;1.02;-173.03;19.62;-62.46 
5.666;0.25;-0.89;0.29;8.70;0.63;0.77;-295.53;-185.19;-100.00;0.97;-173.21;19.61;-62.29 
5.696;0.26;-0.87;0.30;1.53;-4.73;2.23;-295.53;-185.19;-100.00;0.96;-173.27;19.64;-62.20 
5.726;0.20;-0.94;0.27;1.67;-1.81;3.34;-298.51;-185.19;-102.00;1.00;-173.34;19.62;-62.25 
5.756;0.25;-0.92;0.26;3.41;1.32;-2.09;-292.54;-188.05;-106.00;0.99;-173.35;19.64;-62.25 
5.787;0.25;-0.92;0.30;3.76;1.95;-1.74;-295.53;-187.10;-102.00;1.00;-173.27;19.72;-62.15 
5.817;0.26;-0.93;0.28;-0.35;0.28;-1.11;-295.53;-185.19;-103.00;1.01;-173.20;19.79;-62.06 
5.847;0.24;-0.93;0.26;-0.97;-1.39;1.81;-295.53;-185.19;-104.00;1.00;-173.16;19.82;-62.07 
5.878;0.21;-0.94;0.25;1.25;1.74;-0.42;-295.53;-186.14;-103.00;1.00;-173.13;19.84;-62.10 
5.908;0.23;-0.89;0.30;1.67;2.57;-0.28;-294.53;-188.05;-104.00;0.97;-173.08;19.87;-62.05 
5.938;0.23;-0.93;0.32;0.21;-0.28;-0.49;-295.53;-187.10;-104.00;1.01;-173.05;19.91;-62.01 
5.968;0.24;-0.92;0.27;-0.42;-0.42;-0.14;-296.52;-187.10;-103.00;0.99;-172.97;19.97;-62.01 
5.998;0.22;-0.93;0.29;0.00;1.53;-0.21;-296.52;-188.05;-104.00;1.00;-172.92;19.99;-62.02 
6.028;0.22;-0.91;0.31;-0.77;0.83;-0.42;-292.54;-186.14;-103.00;0.99;-172.87;20.02;-62.02 
6.058;0.25;-0.94;0.28;-1.32;-0.63;-0.21;-295.53;-187.10;-105.00;1.01;-172.79;20.05;-62.04 
6.088;0.24;-0.93;0.26;-0.42;0.70;0.14;-293.54;-188.05;-105.00;1.00;-172.71;20.09;-62.07 
6.118;0.26;-0.93;0.28;0.56;1.67;1.11;-296.52;-185.19;-104.00;1.01;-172.69;20.08;-62.10 
6.148;0.23;-0.91;0.31;0.28;1.04;1.88;-292.54;-188.05;-105.00;0.99;-172.71;20.05;-62.13 
6.178;0.23;-0.94;0.26;0.07;1.04;1.74;-293.54;-186.14;-105.00;1.00;-172.74;20.01;-62.16 
6.208;0.21;-0.93;0.21;-1.18;12.94;1.04;-295.53;-184.23;-104.00;0.98;-172.74;19.97;-62.21 
6.237;0.23;-0.93;0.29;7.44;21.63;-0.90;-291.55;-184.23;-105.00;1.00;-172.84;19.79;-62.16 
6.267;0.23;-0.94;0.37;2.71;6.75;-2.64;-294.53;-184.23;-104.00;1.04;-172.98;19.67;-62.01 
6.297;0.16;-0.87;0.37;0.42;-14.12;10.16;-296.52;-181.37;-101.00;0.96;-172.96;19.70;-61.97 
6.327;0.10;-1.00;0.34;-12.45;-31.65;0.77;-292.54;-184.23;-104.00;1.06;-172.84;19.83;-62.20 
6.357;0.29;-0.91;0.11;-13.70;-12.59;-4.87;-291.55;-185.19;-103.00;0.96;-172.52;19.95;-62.56 
6.388;0.21;-0.91;0.28;-0.07;-3.97;4.17;-294.53;-187.10;-104.00;0.97;-172.27;20.18;-62.60 
6.418;0.24;-0.94;0.24;1.74;8.07;4.17;-291.55;-182.33;-104.00;1.00;-172.37;20.05;-62.72 
6.448;0.22;-0.94;0.26;2.57;10.92;0.77;-294.53;-183.28;-106.00;1.00;-172.55;19.87;-62.75 
6.478;0.23;-0.94;0.27;1.04;9.04;-2.85;-293.54;-181.37;-106.00;1.00;-172.57;19.80;-62.70 
6.508;0.30;-0.88;0.30;1.25;-0.63;1.67;-294.53;-182.33;-104.00;0.98;-172.55;19.80;-62.62 
6.538;0.24;-0.90;0.26;1.46;-16.83;6.89;-294.53;-184.23;-101.00;0.97;-172.63;19.82;-62.63 
6.568;0.10;-1.02;0.18;-0.56;13.70;-5.77;-292.54;-182.33;-104.00;1.04;-172.67;19.74;-62.78 
6.599;0.26;-0.84;0.30;3.76;14.54;-10.57;-294.53;-182.33;-105.00;0.93;-172.51;19.96;-62.43 
6.629;0.28;-0.88;0.34;1.11;0.07;4.73;-291.55;-182.33;-105.00;0.98;-172.52;20.00;-62.21 
6.659;0.20;-0.91;0.28;-3.13;-4.94;5.57;-294.53;-181.37;-104.00;0.97;-172.63;19.89;-62.34 
6.690;0.21;-0.93;0.26;0.42;3.76;0.77;-294.53;-180.42;-106.00;0.99;-172.65;19.82;-62.50 
6.720;0.22;-0.90;0.29;1.25;4.66;-1.74;-292.54;-183.28;-103.00;0.97;-172.66;19.77;-62.49 
6.750;0.22;-0.93;0.29;-1.53;-1.04;-0.21;-290.55;-183.28;-105.00;1.00;-172.67;19.78;-62.44 
6.780;0.20;-0.91;0.30;-1.32;-1.32;-1.04;-295.53;-179.46;-103.00;0.98;-172.62;19.81;-62.48 
6.811;0.23;-0.90;0.30;-0.56;1.25;-1.25;-295.53;-178.51;-101.00;0.98;-172.55;19.86;-62.47 
6.841;0.22;-0.92;0.30;-0.56;1.67;-0.07;-293.54;-184.23;-105.00;0.99;-172.50;19.90;-62.43 
6.871;0.25;-0.92;0.26;-1.74;0.77;-0.35;-295.53;-180.42;-102.00;0.99;-172.47;19.92;-62.42 
6.901;0.23;-0.93;0.26;-0.70;0.77;0.90;-290.55;-183.28;-101.00;0.99;-172.46;19.89;-62.47 
6.930;0.20;-0.90;0.26;-0.63;1.46;0.63;-293.54;-181.37;-101.00;0.96;-172.43;19.87;-62.51 
6.959;0.20;-0.90;0.28;-0.28;1.11;0.21;-295.53;-182.33;-103.00;0.96;-172.46;19.84;-62.53 
6.989;0.22;-0.94;0.28;0.00;-0.83;0.00;-290.55;-180.42;-103.00;1.01;-172.48;19.81;-62.55 
7.018;0.24;-0.94;0.26;-0.28;0.28;-0.90;-295.53;-184.23;-100.00;1.00;-172.47;19.81;-62.57 
7.047;0.22;-0.90;0.28;-0.21;1.53;1.25;-293.54;-185.19;-104.00;0.97;-172.46;19.80;-62.58 
7.077;0.23;-0.92;0.28;-0.49;0.56;1.39;-293.54;-184.23;-105.00;0.99;-172.49;19.77;-62.61 
7.106;0.22;-0.94;0.30;-0.90;0.42;0.14;-293.54;-183.28;-101.00;1.01;-172.47;19.76;-62.64 
7.136;0.23;-0.91;0.26;0.28;1.46;0.56;-294.53;-184.23;-105.00;0.97;-172.48;19.73;-62.67 
7.166;0.23;-0.90;0.30;-0.14;1.04;1.46;-289.56;-180.42;-103.00;0.98;-172.52;19.68;-62.71 
7.196;0.20;-0.94;0.30;-0.42;0.56;1.11;-294.53;-178.51;-103.00;1.01;-172.56;19.65;-62.73 
7.225;0.21;-0.92;0.24;-1.04;0.00;0.00;-294.53;-184.23;-103.00;0.97;-172.57;19.61;-62.78 
7.254;0.22;-0.94;0.29;-1.04;-0.63;-0.56;-290.55;-177.55;-100.00;1.01;-172.54;19.61;-62.81 
7.285;0.23;-0.93;0.30;-1.53;0.21;-0.56;-291.55;-180.42;-102.00;1.00;-172.47;19.64;-62.85 
7.315;0.22;-0.94;0.27;-0.83;-0.14;-0.35;-292.54;-179.46;-101.00;1.00;-172.43;19.64;-62.88 
7.345;0.21;-0.93;0.28;-0.77;0.07;-1.04;-291.55;-183.28;-102.00;0.99;-172.38;19.66;-62.89 
7.374;0.22;-0.90;0.27;-0.07;0.00;-0.83;-292.54;-183.28;-101.00;0.97;-172.32;19.69;-62.89 
7.403;0.22;-0.91;0.29;-0.07;0.35;-0.28;-292.54;-185.19;-103.00;0.98;-172.30;19.71;-62.87 
7.433;0.22;-0.93;0.26;0.21;-0.49;0.07;-296.52;-183.28;-103.00;0.99;-172.28;19.72;-62.87 
7.463;0.22;-0.94;0.29;0.14;0.56;-0.28;-292.54;-181.37;-101.00;1.01;-172.31;19.72;-62.84 
7.494;0.22;-0.93;0.30;-0.63;-0.42;-0.70;-293.54;-180.42;-104.00;1.00;-172.29;19.75;-62.82 
7.524;0.20;-0.90;0.27;-0.56;-0.42;-0.77;-294.53;-182.33;-101.00;0.96;-172.27;19.75;-62.82 
7.554;0.21;-0.95;0.27;0.21;-0.21;-3.06;-292.54;-184.23;-103.00;1.01;-172.22;19.78;-62.83 
7.584;0.22;-0.94;0.30;0.97;0.97;-3.55;-292.54;-183.28;-102.00;1.01;-172.12;19.88;-62.74 
7.613;0.22;-0.92;0.26;0.49;-2.16;-4.87;-296.52;-186.14;-102.00;0.98;-172.03;19.99;-62.65 
7.643;0.22;-0.89;0.26;-0.90;-0.14;-3.97;-295.53;-185.19;-102.00;0.95;-171.88;20.12;-62.56 
7.673;0.17;-0.92;0.26;0.63;-2.09;-3.34;-294.53;-188.05;-102.00;0.97;-171.78;20.21;-62.50 
7.702;0.18;-0.92;0.27;1.11;0.56;-3.97;-294.53;-186.14;-102.00;0.98;-171.69;20.30;-62.42 
7.732;0.29;-0.88;0.27;4.94;-1.67;-1.46;-297.52;-187.10;-102.00;0.97;-171.59;20.45;-62.26 
7.762;0.28;-0.92;0.24;9.39;-0.83;0.97;-294.53;-187.10;-102.00;0.99;-171.69;20.50;-62.12 
7.793;0.22;-0.90;0.30;14.40;1.18;3.41;-293.54;-188.05;-108.00;0.97;-171.99;20.45;-61.93 
7.823;0.17;-1.01;0.31;17.04;0.56;5.63;-287.57;-187.10;-113.00;1.07;-172.53;20.25;-61.75 
7.853;0.18;-1.01;0.29;17.11;1.39;2.78;-290.55;-184.23;-114.00;1.07;-173.11;20.02;-61.56 
7.884;0.20;-0.95;0.31;14.68;0.70;-3.41;-288.56;-188.05;-115.00;1.02;-173.47;19.98;-61.22 
7.914;0.18;-0.98;0.32;22.33;-6.61;-2.16;-288.56;-186.14;-122.00;1.05;-173.78;20.08;-60.79 
7.944;0.24;-1.03;0.42;21.01;-5.36;-9.18;-289.56;-187.10;-127.00;1.14;-174.12;20.21;-60.28 
7.974;0.22;-0.99;0.29;25.46;-4.73;-13.50;-286.57;-188.05;-132.00;1.05;-174.33;20.53;-59.59 
8.004;0.27;-0.90;0.26;29.50;7.37;-15.51;-283.59;-189.01;-137.00;0.97;-174.45;20.92;-58.74 
8.034;0.26;-0.89;0.29;32.42;18.37;-14.12;-283.59;-189.96;-139.00;0.97;-174.69;21.17;-57.78 
8.064;0.29;-0.82;0.36;29.70;16.21;-18.99;-282.59;-191.87;-147.00;0.94;-174.86;21.43;-56.74 
8.094;0.26;-0.86;0.41;30.47;18.09;-13.70;-279.61;-191.87;-153.00;0.99;-174.97;21.67;-55.72 
8.124;0.26;-0.92;0.47;29.84;7.72;-14.26;-275.63;-190.92;-152.00;1.07;-175.23;21.84;-54.69 
8.154;0.27;-1.02;0.46;26.64;-0.14;-13.63;-273.64;-194.73;-158.00;1.15;-175.42;22.18;-53.69 
8.184;0.26;-0.53;0.50;18.23;4.87;-13.43;-273.64;-198.55;-163.00;0.77;-175.52;22.53;-52.74 
8.214;0.28;-0.51;0.56;11.20;-4.52;-11.13;-269.66;-197.60;-164.00;0.81;-175.48;22.83;-52.13 
8.244;0.31;-0.74;0.46;1.53;-3.90;-13.57;-273.64;-201.42;-168.00;0.92;-175.28;23.28;-51.51 
8.274;0.44;-0.95;0.47;-6.61;-0.49;-5.77;-275.63;-206.19;-170.00;1.15;-174.86;23.64;-51.33 
8.305;0.32;-0.63;0.59;-12.80;-2.23;-4.73;-277.62;-205.24;-164.00;0.92;-174.46;23.84;-51.40 
8.335;0.33;-0.67;0.56;-23.03;-14.47;-2.50;-279.61;-211.92;-164.00;0.93;-174.02;24.08;-51.55 
8.365;0.31;-0.66;0.50;-31.65;-27.55;1.46;-277.62;-211.92;-160.00;0.88;-173.43;24.44;-52.01 
8.396;0.32;-0.76;0.39;-38.96;-29.57;2.78;-284.58;-212.87;-157.00;0.91;-172.68;24.83;-52.78 
8.426;0.36;-0.84;0.30;-40.07;-23.51;0.42;-289.56;-216.69;-146.00;0.96;-171.70;25.23;-53.71 
8.455;0.31;-0.99;0.29;-38.96;-11.34;-1.60;-292.54;-222.42;-140.00;1.08;-170.72;25.47;-54.57 
8.485;0.26;-0.94;0.36;-38.68;3.76;-1.46;-295.53;-220.51;-134.00;1.04;-169.86;25.51;-55.34 
8.515;0.27;-0.92;0.35;-40.90;4.10;-9.25;-298.51;-218.60;-123.00;1.02;-168.88;25.54;-56.07 
8.545;0.34;-0.97;0.33;-39.93;6.05;-6.26;-302.49;-224.33;-118.00;1.08;-167.81;25.69;-56.68 
8.575;0.33;-0.90;0.29;-29.70;12.45;-8.77;-308.46;-227.19;-108.00;1.00;-166.85;25.76;-57.27 
8.606;0.35;-0.93;0.35;-36.59;10.37;1.18;-312.44;-225.28;-102.00;1.05;-166.14;25.73;-57.78 
8.636;0.33;-0.97;0.27;-31.30;-3.76;6.47;-307.47;-223.37;-95.00;1.06;-165.46;25.63;-58.49 
8.666;0.26;-0.95;0.15;-24.14;-8.63;4.94;-314.43;-223.37;-87.00;1.00;-165.14;25.38;-59.27 
8.696;0.30;-0.95;0.08;-14.96;1.60;-3.34;-315.43;-221.46;-83.00;1.00;-164.63;25.42;-59.70 
8.726;0.35;-0.83;0.10;-6.26;13.01;-3.90;-317.42;-224.33;-83.00;0.91;-164.29;25.44;-59.89 
8.756;0.43;-0.85;0.22;1.53;16.97;2.92;-318.41;-220.51;-78.00;0.98;-164.17;25.40;-59.90 
8.786;0.38;-0.88;0.26;3.27;2.16;10.50;-313.44;-221.46;-77.00;0.99;-164.38;25.19;-59.99 
8.817;0.33;-0.92;0.21;7.86;-6.40;18.30;-316.42;-216.69;-82.00;1.00;-164.87;24.82;-60.26 
8.847;0.28;-0.89;0.20;13.84;-0.90;19.76;-310.45;-214.78;-84.00;0.95;-165.63;24.29;-60.63 
8.876;0.30;-0.89;0.26;15.23;5.50;17.46;-311.45;-210.96;-86.00;0.97;-166.43;23.74;-60.91 
8.906;0.26;-0.87;0.27;15.23;7.10;17.67;-310.45;-208.10;-90.00;0.95;-167.31;23.14;-61.11 
8.936;0.26;-0.93;0.38;11.13;4.52;17.95;-306.47;-204.28;-93.00;1.04;-168.15;22.57;-61.30 
8.966;0.22;-0.97;0.33;4.66;-0.90;17.67;-301.50;-200.46;-95.00;1.05;-168.96;21.96;-61.61 
8.996;0.22;-0.92;0.28;0.00;0.63;11.41;-303.49;-195.69;-95.00;0.99;-169.50;21.50;-61.93 
9.026;0.20;-0.94;0.29;-3.20;4.24;8.97;-302.49;-195.69;-95.00;1.00;-169.91;21.09;-62.23 
9.056;0.18;-0.93;0.30;-7.79;3.20;4.17;-299.51;-195.69;-94.00;0.99;-170.11;20.80;-62.51 
9.086;0.23;-0.97;0.30;-9.04;2.23;2.71;-302.49;-191.87;-95.00;1.04;-170.11;20.62;-62.79 
9.116;0.21;-0.96;0.26;-8.07;2.09;-2.23;-299.51;-189.96;-88.00;1.02;-170.01;20.52;-63.04 
9.145;0.22;-0.95;0.23;-5.15;2.30;-6.05;-299.51;-193.78;-88.00;1.00;-169.81;20.55;-63.14 
9.174;0.26;-0.93;0.24;-2.37;-0.21;-4.66;-301.50;-193.78;-87.00;1.00;-169.60;20.67;-63.10 
9.204;0.25;-0.94;0.27;-0.49;-2.23;-3.76;-300.50;-197.60;-88.00;1.01;-169.47;20.76;-63.08 
9.233;0.26;-0.92;0.26;0.70;-2.23;-5.91;-303.49;-196.64;-86.00;0.99;-169.36;20.88;-62.99 
9.262;0.28;-0.90;0.24;0.14;-2.50;-4.94;-306.47;-196.64;-88.00;0.97;-169.19;21.05;-62.87 
9.291;0.30;-0.91;0.22;1.39;-3.06;-2.64;-302.49;-196.64;-88.00;0.98;-169.08;21.18;-62.76 
9.320;0.30;-0.91;0.22;3.06;-0.97;1.11;-305.48;-195.69;-89.00;0.98;-169.07;21.24;-62.71 
9.349;0.26;-0.90;0.26;3.62;-0.07;2.09;-302.49;-197.60;-90.00;0.97;-169.19;21.18;-62.71 
9.378;0.26;-0.94;0.24;2.57;0.42;4.38;-304.48;-195.69;-93.00;1.00;-169.35;21.08;-62.73 
9.407;0.28;-0.90;0.26;0.90;0.97;5.98;-303.49;-197.60;-90.00;0.98;-169.55;20.93;-62.81 
9.436;0.26;-0.91;0.27;0.49;3.06;6.75;-299.51;-195.69;-90.00;0.98;-169.77;20.73;-62.94 
9.465;0.27;-0.92;0.27;-0.28;5.84;7.86;-299.51;-195.69;-91.00;1.00;-169.98;20.50;-63.11 
9.495;0.26;-0.91;0.29;-0.97;5.77;8.83;-302.49;-193.78;-92.00;0.99;-170.25;20.20;-63.31 
9.525;0.24;-0.94;0.33;-1.04;3.90;8.97;-298.51;-189.01;-91.00;1.02;-170.52;19.89;-63.54 
9.555;0.21;-0.98;0.26;-0.49;3.06;7.30;-295.53;-188.05;-87.00;1.04;-170.82;19.57;-63.78 
9.586;0.21;-0.94;0.26;0.35;3.34;5.50;-296.52;-188.05;-91.00;1.00;-171.04;19.32;-63.97 
9.616;0.22;-0.93;0.27;0.90;4.94;3.48;-295.53;-186.14;-87.00;0.99;-171.24;19.12;-64.07 
9.646;0.20;-0.97;0.33;1.74;3.48;4.59;-297.52;-184.23;-88.00;1.04;-171.48;18.90;-64.15 
9.677;0.18;-0.94;0.30;-2.99;2.57;-2.57;-298.51;-184.23;-90.00;1.00;-171.59;18.77;-64.22 
9.707;0.22;-0.95;0.31;-4.94;-1.53;-5.91;-298.51;-185.19;-88.00;1.02;-171.44;18.83;-64.22 
9.737;0.22;-0.93;0.27;-3.55;-4.10;-5.15;-297.52;-187.10;-88.00;0.99;-171.23;18.97;-64.22 
9.767;0.25;-0.95;0.22;-1.81;-2.23;-7.23;-298.51;-189.01;-85.00;1.01;-171.02;19.14;-64.17 
9.798;0.26;-0.93;0.26;-0.49;-2.71;-7.93;-299.51;-190.92;-87.00;1.00;-170.77;19.37;-64.04 
9.828;0.26;-0.91;0.30;1.60;-5.01;-3.90;-301.50;-189.96;-85.00;0.99;-170.58;19.58;-63.88 
9.858;0.26;-0.90;0.26;2.23;-3.55;-1.95;-299.51;-190.92;-87.00;0.97;-170.52;19.69;-63.81 
9.889;0.28;-0.91;0.20;2.50;-0.42;0.35;-300.50;-191.87;-90.00;0.97;-170.51;19.76;-63.73 
9.919;0.26;-0.90;0.26;2.37;1.39;3.55;-298.51;-191.87;-89.00;0.97;-170.62;19.71;-63.71 
9.949;0.24;-0.92;0.27;1.11;1.04;3.76;-300.50;-190.92;-87.00;0.99;-170.78;19.57;-63.77 
9.979;0.26;-0.96;0.26;0.07;1.25;2.57;-299.51;-188.05;-88.00;1.03;-170.95;19.42;-63.84 
10.009;0.14;-0.87;0.24;-3.55;4.45;9.74;-297.52;-188.05;-89.00;0.91;-171.04;19.32;-63.92 
10.038;0.22;-0.93;0.34;-2.43;-2.30;-0.63;-302.49;-189.01;-90.00;1.01;-171.10;19.34;-63.80 
10.067;0.24;-0.94;0.29;0.49;-2.57;-1.11;-299.51;-185.19;-90.00;1.01;-171.18;19.27;-63.86 
10.097;0.24;-0.94;0.28;-1.74;-10.02;-4.66;-297.52;-190.92;-89.00;1.01;-171.03;19.47;-63.75 
10.126;0.22;-0.94;0.22;-0.90;-1.11;-0.83;-297.52;-190.92;-91.00;0.99;-170.99;19.51;-63.77 
10.155;0.24;-0.93;0.26;0.35;3.06;-1.74;-298.51;-191.87;-91.00;1.00;-170.96;19.54;-63.74 
