Time(s) acc_x(g) acc_y(g) acc_z(g) gyr_x(°/s) gyr_y(°/s) gyr_z(°/s) mag_x(G) mag_y(G) mag_z(G) SVM(g) yaw(°) pitch(°) roll(°)
0.000;-0.72;-0.02;0.70;-6.05;-13.01;4.73;30.90;28.68;-168.00;1.00;122.55;-29.28;14.94 
0.030;-0.60;-0.05;0.69;-1.46;-20.38;2.50;32.89;28.68;-172.00;0.92;122.74;-28.80;14.86 
0.060;-0.50;-0.04;0.63;-0.83;-14.54;-5.36;32.89;27.73;-175.00;0.81;123.12;-28.27;14.77 
0.091;-0.57;0.02;0.63;-0.70;-0.42;-10.85;25.91;26.77;-176.00;0.85;123.56;-27.95;14.80 
0.121;-0.63;0.05;0.66;0.14;5.50;-10.30;27.91;24.86;-176.00;0.91;123.97;-28.12;14.68 
0.151;-0.66;0.02;0.66;2.71;4.38;-2.64;27.91;26.77;-175.00;0.93;124.18;-28.38;14.65 
0.181;-0.69;0.00;0.69;3.76;2.78;-0.63;27.91;25.82;-174.00;0.98;124.28;-28.36;14.87 
0.211;-0.68;-0.05;0.72;3.34;-0.70;-8.14;25.91;24.86;-175.00;0.99;124.51;-28.43;14.90 
0.241;-0.65;-0.06;0.69;3.55;-3.41;-17.39;21.93;26.77;-173.00;0.95;125.04;-28.51;14.71 
0.271;-0.56;0.02;0.70;2.16;0.77;-18.92;20.93;24.86;-174.00;0.90;125.74;-28.47;14.65 
0.300;-0.57;0.07;0.77;-1.67;3.27;-14.33;16.94;24.86;-171.00;0.96;126.33;-28.64;14.43 
0.330;-0.58;0.00;0.79;-4.94;-0.83;-5.63;14.95;21.99;-173.00;0.98;126.68;-28.71;14.18 
0.360;-0.56;-0.07;0.68;-3.20;-8.77;-0.56;14.95;23.90;-171.00;0.88;126.92;-28.56;13.99 
0.391;-0.54;-0.05;0.55;5.22;-6.68;1.60;12.96;21.04;-174.00;0.77;127.12;-28.34;13.88 
0.421;-0.54;0.30;0.70;2.23;4.52;16.83;12.96;20.08;-177.00;0.93;127.01;-28.32;14.19 
0.450;-0.65;0.27;0.77;-6.40;5.98;27.20;18.94;22.95;-176.00;1.04;126.32;-28.25;14.68 
0.479;-0.70;0.00;0.74;-17.18;2.50;24.70;26.91;27.73;-175.00;1.02;125.43;-28.19;14.85 
0.508;-0.56;-0.10;0.68;-17.04;2.09;19.06;25.91;25.82;-177.00;0.89;124.69;-28.07;14.65 
0.538;-0.58;-0.02;0.65;-13.43;9.95;13.29;28.90;27.73;-172.00;0.87;124.08;-28.12;14.40 
0.568;-0.63;0.06;0.73;-10.57;5.91;13.15;31.89;27.73;-168.00;0.97;123.56;-28.32;14.28 
0.598;-0.59;0.06;0.66;-8.77;2.43;15.44;32.89;30.60;-167.00;0.89;123.05;-28.32;14.31 
0.628;-0.64;0.05;0.70;-7.79;8.42;12.66;36.88;28.68;-166.00;0.95;122.54;-28.39;14.37 
0.658;-0.67;0.02;0.72;-7.72;1.60;11.41;38.87;29.64;-166.00;0.98;122.11;-28.51;14.39 
0.689;-0.66;0.06;0.65;-7.17;-5.01;11.34;40.86;32.51;-167.00;0.93;121.80;-28.39;14.40 
0.719;-0.60;0.02;0.62;-7.17;4.24;11.06;44.85;35.38;-167.00;0.86;121.48;-28.27;14.46 
0.749;-0.65;0.06;0.64;-8.28;9.81;9.32;42.86;34.42;-165.00;0.91;121.07;-28.47;14.48 
0.779;-0.66;0.05;0.64;-9.04;4.24;7.86;42.86;37.29;-164.00;0.92;120.71;-28.65;14.45 
0.809;-0.64;0.00;0.61;-8.14;4.87;5.43;42.86;34.42;-162.00;0.88;120.42;-28.77;14.40 
0.838;-0.65;-0.03;0.65;-6.33;10.02;0.42;45.85;36.33;-163.00;0.92;120.22;-28.81;14.47 
0.868;-0.67;0.00;0.66;-4.03;10.57;-5.43;42.86;38.25;-158.00;0.94;120.15;-29.17;14.36 
0.898;-0.66;-0.02;0.68;-1.67;6.82;-9.95;43.85;38.25;-154.00;0.95;120.31;-29.57;14.18 
0.928;-0.69;0.01;0.66;0.35;4.94;-13.98;40.86;37.29;-154.00;0.95;120.62;-29.65;14.23 
0.958;-0.68;0.03;0.62;1.04;3.76;-16.21;33.89;39.20;-153.00;0.92;121.06;-29.91;14.10 
0.989;-0.67;0.02;0.58;-0.21;2.92;-17.11;31.89;34.42;-151.00;0.89;121.60;-30.15;13.91 
1.019;-0.66;0.00;0.62;-1.32;2.50;-20.45;28.90;31.55;-153.00;0.91;122.17;-30.47;13.63 
1.049;-0.62;-0.02;0.66;-1.32;3.90;-26.02;23.92;34.42;-153.00;0.91;122.85;-30.57;13.43 
1.079;-0.66;-0.03;0.69;-0.49;0.28;-30.96;18.94;33.47;-149.00;0.96;123.72;-30.91;12.92 
1.108;-0.70;-0.03;0.68;1.32;-8.90;-34.30;9.97;32.51;-150.00;0.98;124.87;-31.12;12.35 
1.138;-0.61;0.07;0.60;-2.43;-12.10;-31.17;0.00;31.55;-153.00;0.86;126.08;-31.09;11.83 
1.168;-0.66;0.13;0.52;-8.07;-5.57;-26.02;-3.99;25.82;-150.00;0.85;127.06;-31.10;11.33 
1.199;-0.63;0.10;0.53;-14.96;5.57;-21.15;-11.96;22.95;-150.00;0.83;127.69;-31.39;10.75 
1.229;-0.68;0.02;0.57;-18.78;5.91;-21.01;-17.94;23.90;-146.00;0.89;128.10;-31.88;10.01 
1.259;-0.68;-0.05;0.55;-19.97;4.59;-24.83;-21.93;21.99;-141.00;0.88;128.54;-32.33;9.08 
1.290;-0.66;-0.08;0.57;-20.10;6.54;-32.63;-28.90;20.08;-144.00;0.88;129.18;-32.81;7.99 
1.320;-0.70;-0.07;0.53;-21.77;6.54;-38.61;-39.87;18.17;-140.00;0.88;130.01;-33.34;6.73 
1.350;-0.62;-0.02;0.49;-21.22;11.06;-42.64;-53.82;15.30;-132.00;0.79;130.84;-33.98;5.45 
1.380;-0.66;0.00;0.45;-18.37;17.81;-46.05;-60.80;10.52;-126.00;0.80;131.73;-34.57;4.22 
1.409;-0.62;0.01;0.34;-15.44;15.03;-48.07;-72.76;10.52;-121.00;0.71;132.65;-35.54;2.95 
1.439;-0.54;0.00;0.25;-11.06;6.61;-50.43;-81.73;7.65;-117.00;0.60;133.66;-36.25;1.69 
1.469;-0.35;0.06;0.12;-1.74;2.64;-49.32;-91.70;1.91;-113.00;0.37;134.79;-36.80;0.59 
1.499;-0.25;0.14;0.00;11.83;0.70;-42.43;-104.65;-3.82;-112.00;0.29;135.81;-37.34;0.05 
1.529;-0.21;0.29;-0.11;18.99;20.38;-31.65;-110.63;-7.65;-109.00;0.37;136.54;-38.28;0.21 
1.559;-0.31;0.39;-0.19;12.52;28.17;-10.78;-116.61;-7.65;-108.00;0.53;136.48;-39.54;0.79 
1.589;-0.32;0.37;-0.11;16.00;52.45;6.33;-113.62;-11.47;-99.00;0.50;135.47;-41.28;1.58 
1.619;-0.27;0.13;0.46;39.17;103.17;-3.06;-108.64;-3.82;-83.00;0.55;134.03;-44.00;2.80 
1.649;-0.65;-0.02;0.90;62.40;72.90;-6.05;-107.64;-1.91;-77.00;1.11;133.12;-46.94;3.74 
1.679;-0.82;-0.47;0.90;69.70;-37.29;-18.02;-105.65;0.00;-67.00;1.31;134.20;-47.36;4.61 
1.710;-0.63;-0.35;0.71;67.20;-42.78;-55.65;-108.64;-1.91;-81.00;1.01;137.31;-46.27;4.87 
1.740;-0.78;0.29;1.03;48.83;55.03;-57.18;-115.62;-13.39;-86.00;1.32;139.71;-46.79;4.60 
1.770;-1.34;0.14;1.05;-5.57;-64.35;-25.60;-126.58;-14.34;-83.00;1.71;140.60;-47.55;4.27 
1.801;-0.68;-0.15;0.73;-29.01;-138.71;-12.03;-132.56;-19.12;-95.00;1.01;142.40;-44.03;3.43 
1.831;-0.44;0.11;0.65;-84.73;-107.06;-50.99;-145.52;-36.33;-112.00;0.79;143.66;-40.60;1.22 
1.861;-0.71;0.10;0.51;-119.17;-177.60;-49.39;-164.45;-51.63;-121.00;0.88;144.63;-36.66;-2.02 
1.890;-0.84;-0.02;0.21;-141.36;-177.32;-41.53;-178.41;-67.89;-122.00;0.87;145.47;-31.73;-5.80 
1.920;-0.72;-1.00;1.29;-109.01;-76.03;-25.53;-197.34;-84.14;-124.00;1.78;145.99;-28.02;-9.73 
1.950;-1.13;-3.56;4.62;83.97;260.73;-48.42;-212.30;-85.10;-112.00;5.94;145.80;-28.84;-12.06 
1.980;-3.95;-1.68;0.99;-183.03;-205.01;-88.28;-215.29;-78.41;-56.00;4.41;143.33;-36.07;-13.47 
2.011;0.70;0.66;1.18;-308.24;-408.42;-355.97;-270.10;-142.47;-53.00;1.52;152.02;-23.44;-24.02 
2.041;-0.18;1.19;-0.34;-209.39;-418.71;-188.17;-317.94;-205.57;-45.00;1.25;159.47;-7.63;-33.62 
2.071;-0.06;0.34;-0.70;-220.45;-135.37;-104.77;-332.89;-249.56;-33.00;0.78;164.02;1.94;-40.15 
2.101;1.34;-0.77;-0.12;-221.22;-58.37;-165.15;-349.84;-291.63;14.00;1.55;169.95;7.38;-46.11 
2.131;0.90;-1.17;0.03;-235.97;-18.50;-164.45;-352.83;-327.96;63.00;1.48;177.71;12.45;-51.93 
2.161;0.77;-1.39;0.18;-234.50;-60.38;-188.94;-349.84;-361.43;107.00;1.60;-173.68;17.75;-55.96 
2.191;0.76;-1.12;0.05;-216.83;-163.76;-139.62;-336.88;-392.98;158.00;1.35;-164.82;23.87;-58.06 
2.222;1.17;-1.76;-0.74;-115.76;-333.70;44.80;-313.96;-387.25;212.00;2.24;-158.66;27.86;-59.61 
2.252;1.87;-0.72;-1.39;44.17;-222.47;80.14;-313.96;-343.26;219.00;2.44;-156.46;27.62;-61.95 
2.282;0.39;-0.75;-1.02;52.52;179.20;87.79;-313.96;-320.31;210.00;1.32;-159.50;24.94;-64.53 
2.313;0.22;-0.53;0.11;31.30;175.44;12.03;-314.95;-323.18;210.00;0.58;-162.52;22.96;-65.86 
2.342;-0.46;0.30;-0.16;9.53;-44.73;54.89;-317.94;-328.92;199.00;0.57;-165.93;20.61;-67.25 
2.372;0.34;-0.38;-0.67;3.48;-122.57;29.36;-319.94;-310.75;195.00;0.84;-166.93;19.39;-68.89 
2.402;1.02;-0.83;-1.02;14.40;-18.71;10.43;-319.94;-303.10;192.00;1.66;-166.18;19.43;-69.49 
2.432;0.63;-1.20;-0.80;26.30;97.67;-24.21;-322.93;-302.15;190.00;1.57;-166.06;19.58;-69.26 
2.462;0.54;-1.14;-0.22;40.07;99.20;-16.97;-327.91;-321.27;182.00;1.28;-166.35;19.94;-68.33 
2.492;0.74;-1.57;0.14;15.86;-1.67;8.70;-330.90;-323.18;179.00;1.74;-167.05;19.75;-67.98 
2.523;0.54;-1.25;-0.27;11.41;-25.67;9.25;-331.90;-321.27;175.00;1.39;-167.37;19.46;-68.38 
2.553;0.51;-0.95;-0.19;8.56;21.15;9.95;-335.89;-320.31;176.00;1.09;-167.64;19.17;-68.69 
2.583;0.24;-0.70;-0.21;23.03;11.13;14.75;-333.89;-317.45;173.00;0.77;-168.16;18.74;-68.98 
2.613;0.28;-0.77;-0.18;37.29;18.16;9.25;-336.88;-314.58;166.00;0.84;-169.09;18.17;-69.25 
2.643;0.36;-0.81;-0.16;43.34;18.92;-0.21;-336.88;-317.45;158.00;0.90;-170.01;17.93;-68.96 
2.672;0.39;-1.07;-0.14;57.32;39.65;0.42;-342.86;-321.27;149.00;1.15;-170.99;17.76;-68.37 
2.702;0.34;-1.13;0.00;54.68;41.53;-4.80;-344.86;-318.40;141.00;1.18;-172.13;17.47;-67.63 
2.731;0.38;-1.08;0.14;51.41;31.44;-4.52;-351.83;-325.10;128.00;1.15;-173.25;17.27;-66.63 
2.761;0.38;-1.00;0.18;41.60;13.57;-7.10;-347.85;-327.96;119.00;1.08;-174.05;17.20;-65.77 
2.791;0.42;-0.92;0.12;33.39;10.85;-5.98;-349.84;-328.92;111.00;1.02;-174.61;17.27;-65.00 
2.822;0.40;-0.82;0.17;26.23;18.23;-9.39;-353.83;-331.79;111.00;0.93;-174.95;17.37;-64.34 
2.852;0.30;-0.86;0.18;16.63;23.93;-0.28;-353.83;-330.83;100.00;0.93;-175.07;17.49;-63.76 
2.882;0.22;-0.88;0.13;32.77;-12.31;-9.74;-355.82;-332.74;100.00;0.92;-175.22;17.32;-63.74 
2.912;0.53;-0.90;0.30;15.37;9.60;-25.46;-354.82;-339.44;93.00;1.09;-175.08;17.69;-62.94 
2.942;0.45;-0.89;0.18;9.67;-6.75;-1.67;-357.81;-341.35;87.00;1.01;-174.82;18.18;-62.43 
2.972;0.46;-0.89;0.18;4.38;3.90;-4.24;-358.81;-342.31;85.00;1.02;-174.72;18.39;-62.32 
3.002;0.41;-0.82;0.26;-3.62;16.07;-11.20;-355.82;-343.26;84.00;0.95;-174.44;18.53;-62.29 
3.033;0.38;-0.90;0.22;-5.77;-5.98;-4.94;-355.82;-347.09;86.00;1.00;-174.02;18.73;-62.34 
3.063;0.49;-0.90;0.10;-4.94;-11.48;-6.33;-354.82;-346.13;87.00;1.03;-173.58;19.05;-62.52 
3.093;0.54;-0.87;0.12;-6.33;-0.77;-1.39;-357.81;-348.04;88.00;1.03;-173.13;19.34;-62.68 
3.124;0.47;-0.89;0.18;-8.00;2.23;3.06;-357.81;-348.04;93.00;1.02;-172.81;19.41;-62.98 
3.154;0.45;-0.86;0.22;-9.39;-2.23;5.57;-355.82;-348.04;94.00;1.00;-172.61;19.37;-63.35 
3.184;0.46;-0.89;0.14;-9.04;-8.35;7.44;-355.82;-346.13;96.00;1.01;-172.42;19.30;-63.83 
3.214;0.51;-0.90;0.10;-7.93;-8.35;10.23;-355.82;-344.22;96.00;1.04;-172.29;19.22;-64.30 
3.244;0.46;-0.93;0.06;-6.75;-0.83;11.41;-354.82;-341.35;96.00;1.04;-172.24;19.04;-64.82 
3.274;0.42;-0.92;0.12;-5.36;1.18;11.20;-354.82;-339.44;96.00;1.02;-172.27;18.77;-65.33 
3.304;0.39;-0.94;0.11;-4.52;-1.60;10.37;-355.82;-337.53;101.00;1.02;-172.35;18.49;-65.82 
3.334;0.41;-0.94;0.13;-4.31;-3.90;8.70;-354.82;-331.79;102.00;1.03;-172.40;18.24;-66.28 
3.364;0.39;-0.95;0.10;-3.41;-4.03;7.23;-355.82;-336.57;102.00;1.03;-172.41;18.06;-66.69 
3.394;0.38;-0.95;0.10;-3.06;-2.30;4.66;-353.83;-333.70;104.00;1.03;-172.36;17.94;-67.02 
3.424;0.39;-0.95;0.08;-1.95;-1.53;2.43;-351.83;-331.79;102.00;1.03;-172.28;17.86;-67.30 
3.454;0.41;-0.94;0.10;-1.04;-1.95;1.04;-353.83;-328.92;102.00;1.03;-172.14;17.84;-67.51 
3.484;0.42;-0.95;0.08;0.00;0.21;1.18;-355.82;-330.83;105.00;1.04;-172.01;17.86;-67.65 
3.514;0.39;-0.94;0.10;0.70;1.04;0.21;-352.83;-327.01;102.00;1.02;-171.88;17.87;-67.76 
3.545;0.40;-0.92;0.11;0.77;0.70;-0.28;-355.82;-327.96;103.00;1.01;-171.74;17.93;-67.81 
3.575;0.41;-0.94;0.13;1.04;2.02;-1.60;-354.82;-329.88;104.00;1.03;-171.58;18.01;-67.84 
3.605;0.41;-0.93;0.07;0.42;0.77;-0.97;-353.83;-328.92;99.00;1.02;-171.42;18.08;-67.88 
3.636;0.43;-0.94;0.07;0.49;0.49;-1.18;-353.83;-333.70;104.00;1.04;-171.23;18.17;-67.90 
3.666;0.42;-0.91;0.11;0.42;1.18;-0.83;-353.83;-332.74;100.00;1.01;-171.05;18.27;-67.92 
3.696;0.40;-0.90;0.12;0.28;-0.07;-0.21;-352.83;-330.83;102.00;0.99;-170.90;18.32;-67.97 
3.726;0.43;-0.91;0.10;-0.14;-0.14;0.42;-354.82;-333.70;103.00;1.01;-170.74;18.38;-68.02 
3.756;0.43;-0.93;0.10;-0.49;-0.35;0.83;-351.83;-333.70;102.00;1.03;-170.58;18.44;-68.09 
3.786;0.40;-0.93;0.07;-0.28;-0.28;0.63;-353.83;-331.79;105.00;1.01;-170.45;18.48;-68.14 
3.816;0.42;-0.93;0.10;-0.42;0.14;0.56;-353.83;-330.83;105.00;1.03;-170.32;18.52;-68.20 
3.847;0.40;-0.94;0.11;-0.28;0.35;0.42;-355.82;-332.74;101.00;1.03;-170.18;18.54;-68.29 
3.877;0.42;-0.92;0.11;-0.07;0.35;0.70;-355.82;-328.92;106.00;1.02;-170.04;18.57;-68.37 
3.907;0.41;-0.92;0.11;-0.28;0.35;0.28;-353.83;-330.83;103.00;1.01;-169.89;18.60;-68.43 
3.937;0.39;-0.93;0.12;-0.35;-0.21;0.21;-353.83;-331.79;103.00;1.02;-169.73;18.65;-68.48 
3.967;0.42;-0.92;0.12;0.07;0.00;0.00;-353.83;-328.92;103.00;1.02;-169.57;18.71;-68.53 
3.996;0.41;-0.94;0.10;0.28;0.07;-0.14;-352.83;-328.92;105.00;1.03;-169.42;18.77;-68.55 
4.026;0.42;-0.94;0.10;0.28;0.90;-0.49;-352.83;-330.83;104.00;1.03;-169.26;18.84;-68.56 
4.057;0.42;-0.93;0.11;0.28;0.07;0.00;-353.83;-330.83;102.00;1.03;-169.11;18.89;-68.58 
4.087;0.39;-0.90;0.11;0.70;0.21;-0.14;-354.82;-328.92;104.00;0.99;-168.97;18.95;-68.60 
4.117;0.42;-0.95;0.10;0.35;0.14;0.00;-351.83;-329.88;103.00;1.04;-168.84;19.01;-68.60 
4.148;0.42;-0.92;0.10;0.00;0.49;-0.07;-356.82;-329.88;103.00;1.02;-168.67;19.09;-68.60 
4.178;0.42;-0.94;0.10;-0.35;0.90;0.14;-354.82;-329.88;103.00;1.03;-168.53;19.15;-68.60 
4.208;0.42;-0.93;0.10;-0.28;-0.56;0.00;-353.83;-328.92;102.00;1.03;-168.37;19.21;-68.62 
4.238;0.42;-0.91;0.09;-0.21;0.07;0.07;-350.84;-329.88;99.00;1.01;-168.21;19.27;-68.63 
4.268;0.42;-0.94;0.11;-0.21;0.70;0.00;-352.83;-332.74;99.00;1.04;-168.07;19.34;-68.62 
4.298;0.42;-0.93;0.12;0.14;0.00;0.07;-352.83;-328.92;103.00;1.03;-167.94;19.40;-68.61 
4.328;0.40;-0.96;0.04;0.42;0.77;-0.07;-351.83;-327.01;104.00;1.04;-167.78;19.45;-68.63 
4.359;0.42;-0.95;0.14;0.07;1.25;-0.14;-353.83;-329.88;103.00;1.05;-167.64;19.52;-68.61 
4.389;0.40;-0.94;0.11;0.35;-0.70;-0.21;-355.82;-332.74;101.00;1.03;-167.50;19.59;-68.60 
4.419;0.42;-0.94;0.09;0.42;0.83;0.00;-353.83;-330.83;99.00;1.03;-167.36;19.66;-68.59 
4.449;0.40;-0.90;0.10;0.63;0.49;0.14;-353.83;-328.92;99.00;0.99;-167.23;19.70;-68.59 
4.479;0.42;-0.91;0.10;0.42;-0.07;0.28;-358.81;-327.96;103.00;1.01;-167.09;19.77;-68.58 
4.509;0.42;-0.93;0.12;0.21;0.83;-0.07;-353.83;-329.88;102.00;1.03;-166.97;19.82;-68.57 
4.539;0.40;-0.94;0.13;0.00;0.21;0.49;-352.83;-327.01;100.00;1.03;-166.85;19.87;-68.56 
4.570;0.42;-0.91;0.09;0.00;-0.21;0.21;-351.83;-329.88;101.00;1.01;-166.72;19.92;-68.55 
4.600;0.42;-0.94;0.12;-0.14;0.14;0.14;-352.83;-334.66;101.00;1.04;-166.59;19.97;-68.55 
4.630;0.40;-0.91;0.12;0.35;0.83;-0.07;-353.83;-327.96;103.00;1.00;-166.47;20.03;-68.53 
4.661;0.39;-0.90;0.10;0.07;0.42;0.00;-353.83;-329.88;102.00;0.99;-166.34;20.10;-68.50 
4.691;0.40;-0.93;0.09;0.21;-0.70;-0.28;-352.83;-336.57;102.00;1.02;-166.19;20.16;-68.49 
4.721;0.42;-0.93;0.10;0.00;0.42;-0.42;-354.82;-328.92;101.00;1.03;-166.04;20.24;-68.45 
4.751;0.43;-0.93;0.10;-0.07;0.07;-0.35;-354.82;-328.92;104.00;1.03;-165.89;20.32;-68.41 
4.782;0.42;-0.93;0.12;-0.28;0.00;0.42;-354.82;-328.92;103.00;1.03;-165.75;20.38;-68.40 
4.812;0.42;-0.97;0.07;-0.56;0.07;-0.14;-355.82;-328.92;101.00;1.06;-165.63;20.43;-68.37 
4.842;0.39;-0.94;0.10;-0.21;-0.63;0.00;-351.83;-329.88;104.00;1.02;-165.49;20.51;-68.34 
4.873;0.41;-0.92;0.09;0.07;0.35;0.14;-352.83;-328.92;102.00;1.01;-165.34;20.58;-68.31 
4.903;0.41;-0.91;0.10;0.28;0.07;0.14;-354.82;-328.92;104.00;1.00;-165.24;20.62;-68.29 
4.933;0.41;-0.92;0.11;0.28;0.35;-0.07;-355.82;-327.96;98.00;1.01;-165.15;20.65;-68.28 
4.963;0.42;-0.94;0.10;0.42;0.35;-0.42;-353.83;-331.79;104.00;1.03;-165.03;20.70;-68.27 
4.993;0.40;-0.93;0.10;-0.07;1.25;-0.90;-352.83;-327.96;102.00;1.02;-164.91;20.76;-68.23 
5.023;0.38;-0.90;0.10;-0.28;0.97;-0.97;-350.84;-333.70;100.00;0.98;-164.77;20.84;-68.18 
5.053;0.40;-0.94;0.12;-0.63;-0.35;-1.39;-356.82;-330.83;101.00;1.03;-164.66;20.92;-68.12 
5.084;0.43;-0.92;0.10;-0.28;-0.83;-0.83;-355.82;-330.83;101.00;1.02;-164.48;21.03;-68.05 
5.114;0.42;-0.93;0.10;-0.14;1.25;0.07;-353.83;-329.88;102.00;1.03;-164.32;21.12;-67.99 
5.144;0.43;-0.95;0.12;-0.21;0.42;0.00;-355.82;-328.92;102.00;1.05;-164.20;21.18;-67.96 
5.174;0.42;-0.92;0.14;-0.07;-0.42;0.35;-356.82;-330.83;102.00;1.02;-164.08;21.22;-67.94 
5.204;0.43;-0.93;0.07;0.28;0.07;-0.49;-354.82;-330.83;101.00;1.03;-163.97;21.28;-67.90 
5.234;0.39;-0.93;0.06;0.35;0.70;-0.70;-357.81;-331.79;101.00;1.01;-163.85;21.35;-67.86 
5.264;0.42;-0.92;0.10;0.77;0.70;-1.04;-352.83;-329.88;102.00;1.02;-163.76;21.41;-67.82 
5.295;0.41;-0.96;0.09;0.90;-0.28;-0.97;-355.82;-333.70;101.00;1.05;-163.65;21.47;-67.76 
5.325;0.42;-0.90;0.10;0.56;-0.42;-0.63;-354.82;-331.79;101.00;1.00;-163.53;21.55;-67.71 
5.355;0.43;-0.94;0.10;0.63;1.74;-0.42;-354.82;-330.83;102.00;1.04;-163.42;21.63;-67.64 
5.386;0.42;-0.92;0.11;0.14;1.11;-0.35;-356.82;-330.83;101.00;1.02;-163.34;21.69;-67.59 
5.416;0.42;-0.94;0.13;-0.56;-0.35;0.14;-355.82;-330.83;102.00;1.04;-163.23;21.75;-67.55 
5.446;0.46;-0.94;0.10;-0.70;0.00;0.56;-356.82;-333.70;104.00;1.05;-163.12;21.80;-67.52 
5.476;0.42;-0.91;0.11;-0.63;-0.14;0.83;-351.83;-329.88;101.00;1.01;-163.00;21.84;-67.50 
5.506;0.42;-0.93;0.13;-0.35;-0.14;0.83;-353.83;-332.74;103.00;1.03;-162.92;21.86;-67.50 
5.536;0.42;-0.94;0.14;0.00;-0.07;0.56;-357.81;-331.79;99.00;1.04;-162.85;21.87;-67.51 
5.566;0.42;-0.94;0.14;-0.35;0.35;0.28;-355.82;-329.88;101.00;1.04;-162.75;21.91;-67.49 
5.597;0.41;-0.94;0.06;-0.14;0.42;0.00;-355.82;-328.92;101.00;1.03;-162.66;21.93;-67.49 
5.626;0.42;-0.94;0.10;-0.07;0.63;0.00;-356.82;-329.88;100.00;1.03;-162.55;21.98;-67.46 
5.655;0.41;-0.89;0.10;0.07;0.28;-0.28;-357.81;-331.79;100.00;0.98;-162.47;22.01;-67.45 
5.685;0.39;-0.93;0.09;0.14;1.04;-0.63;-356.82;-333.70;100.00;1.01;-162.38;22.07;-67.40 
5.714;0.42;-0.92;0.14;-0.07;0.49;-0.14;-353.83;-329.88;102.00;1.02;-162.32;22.12;-67.35 
5.743;0.42;-0.90;0.13;-0.28;0.00;0.07;-353.83;-331.79;102.00;1.00;-162.23;22.18;-67.30 
5.772;0.44;-0.94;0.12;-0.14;0.49;0.21;-357.81;-331.79;99.00;1.04;-162.14;22.23;-67.26 
5.801;0.42;-0.92;0.08;-0.28;0.35;0.21;-356.82;-328.92;101.00;1.01;-162.04;22.29;-67.22 
5.830;0.42;-0.92;0.14;-0.35;-0.28;0.56;-354.82;-334.66;98.00;1.02;-161.97;22.32;-67.20 
5.859;0.42;-0.95;0.13;-0.28;0.14;0.49;-353.83;-330.83;100.00;1.05;-161.89;22.35;-67.18 
5.888;0.42;-0.91;0.06;-0.35;0.97;0.56;-353.83;-328.92;101.00;1.00;-161.83;22.39;-67.15 
5.918;0.40;-0.92;0.10;-0.14;1.25;0.14;-352.83;-327.96;104.00;1.01;-161.77;22.42;-67.12 
5.948;0.41;-0.94;0.13;-0.14;0.83;0.07;-356.82;-332.74;104.00;1.03;-161.71;22.46;-67.09 
5.979;0.42;-0.91;0.08;-0.07;0.07;0.07;-355.82;-332.74;103.00;1.01;-161.63;22.49;-67.08 
6.008;0.42;-0.92;0.09;0.35;0.90;0.70;-351.83;-330.83;102.00;1.02;-161.58;22.53;-67.03 
6.037;0.41;-0.91;0.13;-0.14;0.28;0.49;-355.82;-328.92;103.00;1.01;-161.54;22.56;-67.01 
6.067;0.41;-0.93;0.10;-0.70;-0.56;0.42;-352.83;-329.88;101.00;1.02;-161.48;22.59;-66.99 
6.096;0.43;-0.94;0.13;-0.70;-0.14;-0.21;-354.82;-330.83;102.00;1.04;-161.37;22.64;-66.96 
6.126;0.42;-0.94;0.06;-0.56;-0.28;0.21;-356.82;-328.92;103.00;1.03;-161.26;22.69;-66.92 
6.156;0.42;-0.93;0.12;0.00;0.21;0.49;-353.83;-330.83;105.00;1.03;-161.20;22.73;-66.88 
6.185;0.41;-0.92;0.10;0.00;0.56;0.00;-354.82;-330.83;104.00;1.01;-161.15;22.76;-66.86 
6.214;0.39;-0.91;0.10;-0.07;0.28;-0.14;-353.83;-327.96;102.00;1.00;-161.12;22.80;-66.82 
6.243;0.42;-0.93;0.11;0.00;0.42;-0.21;-353.83;-328.92;103.00;1.03;-161.07;22.84;-66.79 
6.272;0.40;-0.92;0.11;0.00;0.14;-0.42;-353.83;-330.83;101.00;1.01;-161.00;22.88;-66.75 
6.301;0.43;-0.95;0.12;0.21;0.49;-0.56;-354.82;-328.92;103.00;1.05;-160.91;22.94;-66.69 
6.330;0.38;-0.90;0.14;0.07;0.83;-0.21;-352.83;-329.88;103.00;0.99;-160.85;23.00;-66.64 
6.359;0.41;-0.93;0.09;0.14;0.07;0.07;-356.82;-327.96;105.00;1.02;-160.82;23.02;-66.62 
6.388;0.43;-0.92;0.06;-0.42;-0.21;0.42;-357.81;-330.83;100.00;1.02;-160.77;23.07;-66.57 
6.417;0.42;-0.92;0.10;-0.42;0.42;0.56;-353.83;-331.79;102.00;1.02;-160.71;23.11;-66.54 
6.447;0.39;-0.94;0.09;-0.14;0.21;0.35;-356.82;-327.96;101.00;1.02;-160.68;23.14;-66.52 
6.477;0.42;-0.91;0.08;-0.35;0.14;-0.35;-351.83;-330.83;100.00;1.01;-160.63;23.15;-66.51 
6.507;0.42;-0.93;0.09;-0.42;0.49;-0.35;-352.83;-329.88;103.00;1.02;-160.56;23.18;-66.49 
6.538;0.42;-0.94;0.09;-0.63;0.97;0.00;-353.83;-330.83;102.00;1.03;-160.48;23.23;-66.44 
6.568;0.43;-0.91;0.13;-0.21;0.90;-0.21;-356.82;-330.83;104.00;1.01;-160.40;23.28;-66.40 
6.598;0.42;-0.95;0.12;-0.56;0.83;-0.21;-353.83;-330.83;105.00;1.05;-160.33;23.33;-66.35 
6.628;0.42;-0.92;0.12;0.00;0.42;-0.35;-352.83;-328.92;106.00;1.02;-160.27;23.38;-66.31 
6.657;0.41;-0.93;0.10;0.00;0.14;0.28;-352.83;-328.92;103.00;1.02;-160.22;23.42;-66.27 
6.686;0.40;-0.92;0.11;0.14;-0.07;-0.35;-352.83;-328.92;100.00;1.01;-160.13;23.48;-66.22 
6.715;0.42;-0.94;0.10;0.35;0.35;0.07;-352.83;-327.96;100.00;1.03;-160.07;23.52;-66.18 
6.745;0.41;-0.93;0.11;-0.14;0.14;0.14;-352.83;-330.83;102.00;1.02;-160.02;23.56;-66.14 
6.775;0.40;-0.92;0.07;-0.63;0.56;0.42;-353.83;-330.83;104.00;1.01;-159.95;23.59;-66.13 
6.805;0.40;-0.91;0.13;-0.63;0.00;-0.28;-355.82;-331.79;100.00;1.00;-159.92;23.60;-66.11 
6.836;0.42;-0.94;0.10;-0.77;-0.21;-0.28;-354.82;-329.88;102.00;1.03;-159.83;23.66;-66.07 
6.866;0.43;-0.92;0.11;-0.35;1.46;-0.42;-353.83;-330.83;103.00;1.02;-159.73;23.71;-66.02 
6.896;0.42;-0.93;0.10;-0.35;0.56;-0.42;-352.83;-330.83;103.00;1.03;-159.68;23.76;-65.98 
6.926;0.41;-0.92;0.10;-0.28;-0.42;-0.42;-351.83;-329.88;103.00;1.01;-159.58;23.82;-65.92 
6.955;0.42;-0.94;0.10;-0.21;0.42;-0.49;-352.83;-332.74;101.00;1.03;-159.52;23.87;-65.87 
6.984;0.46;-0.90;0.16;0.28;0.56;0.07;-355.82;-330.83;105.00;1.02;-159.47;23.91;-65.84 
7.013;0.40;-0.94;0.11;0.21;0.49;0.07;-352.83;-331.79;104.00;1.03;-159.43;23.94;-65.81 
7.042;0.42;-0.93;0.10;-0.14;0.35;0.42;-353.83;-329.88;104.00;1.03;-159.39;23.97;-65.78 
7.072;0.42;-0.93;0.14;-0.35;0.07;0.21;-353.83;-331.79;102.00;1.03;-159.35;23.99;-65.76 
7.102;0.42;-0.95;0.10;-0.56;-0.49;0.42;-353.83;-330.83;103.00;1.04;-159.31;24.01;-65.75 
7.133;0.43;-0.93;0.13;-0.56;0.83;0.56;-355.82;-330.83;100.00;1.03;-159.28;24.03;-65.73 
7.163;0.42;-0.94;0.13;-0.97;0.97;0.90;-352.83;-333.70;103.00;1.04;-159.26;24.04;-65.72 
7.193;0.42;-0.94;0.12;-0.90;-0.35;0.90;-354.82;-329.88;103.00;1.04;-159.25;24.04;-65.73 
7.223;0.42;-0.93;0.12;-0.90;-0.42;0.63;-352.83;-330.83;102.00;1.03;-159.24;24.04;-65.73 
7.253;0.41;-0.95;0.09;-0.56;0.00;0.97;-354.82;-329.88;106.00;1.04;-159.19;24.05;-65.72 
7.282;0.41;-0.94;0.10;-0.28;0.00;0.83;-355.82;-329.88;105.00;1.03;-159.17;24.05;-65.73 
7.312;0.42;-0.94;0.10;0.07;-0.07;0.97;-355.82;-330.83;104.00;1.03;-159.15;24.06;-65.73 
7.342;0.42;-0.94;0.10;0.35;0.63;0.56;-356.82;-330.83;104.00;1.03;-159.12;24.07;-65.72 
7.371;0.41;-0.95;0.12;0.35;0.90;0.56;-353.83;-329.88;106.00;1.04;-159.11;24.07;-65.71 
7.400;0.42;-0.87;0.12;0.35;0.42;0.14;-357.81;-330.83;104.00;0.97;-159.09;24.09;-65.70 
7.430;0.40;-0.94;0.09;-0.28;-0.28;-0.35;-352.83;-327.96;102.00;1.03;-159.07;24.11;-65.68 
7.460;0.41;-0.94;0.08;0.07;0.42;-0.14;-350.84;-331.79;103.00;1.03;-159.05;24.16;-65.63 
7.490;0.42;-0.94;0.10;0.42;0.63;-0.07;-351.83;-330.83;105.00;1.03;-159.04;24.19;-65.59 
7.520;0.42;-0.92;0.10;-0.35;-0.14;0.00;-350.84;-329.88;103.00;1.02;-159.01;24.23;-65.55 
7.550;0.40;-0.91;0.10;-0.77;0.07;-0.42;-358.81;-330.83;105.00;1.00;-159.00;24.24;-65.54 
7.580;0.40;-0.91;0.12;-0.83;-1.53;-0.21;-354.82;-329.88;101.00;1.00;-158.95;24.27;-65.51 
7.610;0.45;-0.94;0.07;-0.35;-0.70;0.14;-355.82;-326.05;101.00;1.04;-158.88;24.30;-65.49 
7.641;0.42;-0.94;0.08;-0.49;0.49;0.70;-355.82;-328.92;106.00;1.03;-158.84;24.34;-65.45 
7.671;0.41;-0.94;0.10;-0.14;0.00;0.49;-354.82;-328.92;106.00;1.03;-158.83;24.36;-65.44 
7.701;0.42;-0.94;0.07;0.14;-0.42;0.90;-355.82;-329.88;103.00;1.03;-158.82;24.35;-65.44 
7.732;0.40;-0.92;0.09;0.14;0.35;0.49;-351.83;-330.83;104.00;1.01;-158.82;24.35;-65.45 
7.762;0.41;-0.93;0.10;-0.21;0.42;0.14;-353.83;-332.74;103.00;1.02;-158.80;24.36;-65.43 
7.792;0.40;-0.91;0.09;-0.63;-0.14;0.28;-355.82;-329.88;104.00;1.00;-158.77;24.40;-65.40 
7.822;0.42;-0.94;0.11;-0.83;-0.07;0.97;-355.82;-327.96;104.00;1.04;-158.77;24.41;-65.39 
7.852;0.40;-0.93;0.10;-1.11;0.35;1.18;-356.82;-327.01;105.00;1.02;-158.74;24.41;-65.39 
7.882;0.42;-0.90;0.10;-1.04;-0.49;1.25;-352.83;-331.79;104.00;1.00;-158.73;24.37;-65.44 
7.912;0.42;-0.93;0.10;-1.25;-0.83;1.53;-354.82;-327.01;101.00;1.03;-158.71;24.36;-65.45 
7.943;0.42;-0.94;0.08;-1.46;0.07;1.81;-349.84;-327.96;106.00;1.03;-158.68;24.34;-65.48 
7.973;0.40;-0.94;0.09;-1.11;0.00;1.67;-355.82;-327.01;104.00;1.03;-158.69;24.30;-65.52 
8.003;0.42;-0.93;0.09;-1.32;-0.56;1.53;-353.83;-328.92;103.00;1.02;-158.67;24.28;-65.55 
8.033;0.42;-0.94;0.09;-0.77;-0.21;0.97;-354.82;-326.05;105.00;1.03;-158.68;24.25;-65.58 
8.063;0.40;-0.94;0.08;-0.83;0.00;1.04;-353.83;-330.83;105.00;1.02;-158.66;24.24;-65.59 
8.093;0.40;-0.96;0.06;-0.56;-0.14;0.83;-355.82;-324.14;107.00;1.04;-158.65;24.23;-65.60 
8.123;0.39;-0.94;0.08;-0.42;0.14;0.28;-352.83;-328.92;105.00;1.02;-158.63;24.23;-65.61 
8.154;0.41;-0.92;0.09;0.14;0.21;0.00;-351.83;-326.05;104.00;1.01;-158.62;24.24;-65.59 
8.184;0.41;-0.93;0.10;0.21;0.00;0.21;-354.82;-327.01;107.00;1.02;-158.62;24.26;-65.57 
8.214;0.40;-0.94;0.10;0.63;0.35;0.07;-352.83;-327.01;107.00;1.03;-158.63;24.29;-65.55 
8.245;0.37;-0.94;0.07;0.35;-0.35;-0.28;-354.82;-326.05;105.00;1.01;-158.63;24.31;-65.52 
8.275;0.42;-0.94;0.10;-0.07;-0.14;0.07;-356.82;-325.10;106.00;1.03;-158.64;24.34;-65.49 
8.305;0.41;-0.94;0.08;-0.21;0.83;-0.63;-355.82;-327.01;105.00;1.03;-158.62;24.36;-65.47 
8.335;0.40;-0.92;0.10;-0.35;-0.56;0.00;-353.83;-325.10;106.00;1.01;-158.61;24.39;-65.44 
8.366;0.40;-0.87;0.06;0.00;0.63;0.00;-352.83;-327.96;106.00;0.96;-158.55;24.41;-65.42 
8.395;0.41;-0.91;0.10;-0.14;0.56;0.35;-353.83;-325.10;105.00;1.00;-158.54;24.43;-65.40 
8.425;0.40;-0.92;0.08;-0.35;0.21;0.35;-349.84;-325.10;107.00;1.01;-158.54;24.45;-65.38 
8.456;0.41;-0.93;0.10;-0.56;0.49;0.42;-352.83;-325.10;107.00;1.02;-158.54;24.45;-65.38 
8.486;0.43;-0.96;0.08;-0.42;0.42;0.00;-352.83;-326.05;103.00;1.05;-158.50;24.48;-65.35 
8.516;0.42;-0.94;0.07;-0.35;0.42;0.14;-352.83;-329.88;107.00;1.03;-158.49;24.49;-65.34 
8.546;0.41;-0.94;0.07;-0.28;0.90;-0.07;-354.82;-325.10;104.00;1.03;-158.49;24.51;-65.32 
8.576;0.41;-0.93;0.08;-0.07;0.49;0.28;-352.83;-327.01;110.00;1.02;-158.48;24.53;-65.30 
8.606;0.42;-0.94;0.10;-0.56;0.07;0.83;-353.83;-326.05;106.00;1.03;-158.47;24.54;-65.28 
8.636;0.41;-0.91;0.10;-0.28;0.35;1.18;-353.83;-325.10;106.00;1.00;-158.49;24.53;-65.30 
8.667;0.42;-0.94;0.09;-0.49;0.49;1.25;-352.83;-327.01;109.00;1.03;-158.51;24.51;-65.32 
8.697;0.42;-0.94;0.11;-0.49;0.42;0.63;-351.83;-324.14;107.00;1.04;-158.55;24.48;-65.35 
8.727;0.38;-0.94;0.09;-0.49;-0.14;0.14;-354.82;-327.01;110.00;1.02;-158.54;24.47;-65.35 
8.756;0.39;-0.94;0.08;-0.63;-0.77;0.14;-352.83;-324.14;106.00;1.02;-158.55;24.48;-65.35 
8.785;0.40;-0.94;0.09;-0.63;-0.07;0.35;-352.83;-324.14;107.00;1.03;-158.51;24.49;-65.34 
8.815;0.41;-0.94;0.07;-0.21;0.56;0.07;-351.83;-326.05;107.00;1.03;-158.52;24.51;-65.32 
8.845;0.40;-0.92;0.10;-0.28;0.63;-0.14;-353.83;-323.18;108.00;1.01;-158.49;24.53;-65.30 
8.875;0.38;-0.93;0.10;-0.14;0.07;-0.28;-353.83;-327.01;107.00;1.01;-158.48;24.56;-65.27 
8.905;0.39;-0.94;0.10;-0.49;0.14;0.00;-350.84;-327.01;109.00;1.02;-158.45;24.57;-65.26 
8.934;0.39;-0.95;0.10;-0.63;0.21;-0.14;-355.82;-326.05;108.00;1.03;-158.43;24.60;-65.22 
8.964;0.40;-0.93;0.11;-0.63;0.07;-0.14;-353.83;-326.05;106.00;1.02;-158.41;24.63;-65.20 
8.993;0.41;-0.93;0.08;0.00;-0.14;0.00;-352.83;-323.18;105.00;1.02;-158.43;24.65;-65.18 
9.022;0.40;-0.94;0.08;-0.14;0.14;0.35;-353.83;-325.10;106.00;1.02;-158.40;24.66;-65.17 
9.052;0.39;-0.94;0.10;-0.07;0.49;0.56;-353.83;-325.10;107.00;1.02;-158.39;24.66;-65.17 
