Time(s) acc_x(g) acc_y(g) acc_z(g) gyr_x(°/s) gyr_y(°/s) gyr_z(°/s) mag_x(G) mag_y(G) mag_z(G) SVM(g) yaw(°) pitch(°) roll(°)
0.000;-0.22;0.10;0.92;-0.56;16.21;0.28;88.11;123.20;-341.00;0.95;38.78;-15.01;9.39 
0.030;-0.28;0.09;0.90;-0.63;-3.48;5.08;84.15;126.07;-341.00;0.95;38.64;-15.12;9.49 
0.060;-0.26;0.07;0.85;-1.32;2.09;1.95;88.11;124.16;-342.00;0.89;38.49;-15.07;9.55 
0.090;-0.26;0.07;0.88;-1.04;1.95;2.64;85.14;127.02;-342.00;0.92;38.40;-15.15;9.60 
0.120;-0.24;0.06;0.86;-1.46;0.14;2.57;85.14;124.16;-340.00;0.89;38.26;-15.13;9.65 
0.150;-0.26;0.06;0.86;-1.81;3.83;1.46;94.05;125.11;-340.00;0.90;38.15;-15.17;9.67 
0.180;-0.26;0.06;0.88;-1.81;3.06;0.42;90.09;124.16;-336.00;0.92;38.08;-15.28;9.69 
0.210;-0.25;0.03;0.86;-2.02;2.09;-1.32;91.08;125.11;-343.00;0.90;38.04;-15.34;9.68 
0.240;-0.29;0.01;0.86;-1.67;2.99;-3.76;88.11;127.02;-337.00;0.91;38.09;-15.42;9.61 
0.270;-0.26;0.05;0.87;-1.53;2.30;-6.26;88.11;126.07;-340.00;0.91;38.20;-15.51;9.55 
0.301;-0.26;0.02;0.90;-1.39;1.25;-8.21;88.11;126.07;-337.00;0.94;38.37;-15.58;9.48 
0.331;-0.26;0.04;0.86;-1.25;0.97;-9.81;82.17;127.98;-336.00;0.90;38.60;-15.62;9.40 
0.361;-0.23;0.10;0.83;-1.32;1.74;-9.60;79.20;126.07;-334.00;0.87;38.86;-15.72;9.30 
0.392;-0.28;0.08;0.86;-1.74;1.95;-8.49;79.20;128.94;-333.00;0.91;39.10;-15.81;9.23 
0.422;-0.26;0.08;0.87;-2.23;2.50;-7.03;77.22;127.98;-332.00;0.91;39.29;-15.91;9.19 
0.452;-0.25;0.08;0.87;-2.30;1.53;-4.59;73.26;128.94;-334.00;0.91;39.42;-15.98;9.14 
0.482;-0.26;0.08;0.85;-2.64;0.49;-1.88;75.24;127.98;-335.00;0.89;39.47;-16.01;9.10 
0.511;-0.26;0.08;0.83;-2.78;1.11;-0.42;76.23;127.98;-331.00;0.87;39.45;-16.03;9.08 
0.541;-0.26;0.08;0.87;-3.41;1.88;1.32;72.27;127.02;-337.00;0.91;39.39;-16.05;9.06 
0.571;-0.25;0.08;0.88;-3.69;2.71;2.23;76.23;127.02;-334.00;0.92;39.29;-16.09;9.01 
0.602;-0.26;0.04;0.86;-3.62;2.23;2.30;69.30;127.98;-333.00;0.90;39.17;-16.14;8.97 
0.632;-0.29;0.07;0.86;-3.83;2.09;2.43;73.26;128.94;-332.00;0.91;39.04;-16.19;8.90 
0.661;-0.26;0.05;0.86;-4.03;1.67;2.02;73.26;129.89;-334.00;0.90;38.93;-16.22;8.83 
0.692;-0.26;0.04;0.84;-4.10;1.60;2.30;73.26;128.94;-332.00;0.88;38.82;-16.25;8.76 
0.722;-0.26;0.05;0.85;-4.10;2.23;0.97;72.27;128.94;-333.00;0.89;38.73;-16.28;8.68 
0.752;-0.27;0.04;0.90;-4.31;2.09;0.70;70.29;130.85;-333.00;0.94;38.65;-16.33;8.61 
0.781;-0.27;0.06;0.87;-4.31;1.67;0.35;72.27;128.94;-337.00;0.91;38.59;-16.36;8.51 
0.811;-0.26;0.06;0.85;-4.17;1.32;-0.42;70.29;127.02;-333.00;0.89;38.53;-16.40;8.43 
0.841;-0.26;0.04;0.89;-4.66;1.04;-0.42;71.28;127.98;-330.00;0.93;38.49;-16.43;8.34 
0.871;-0.26;0.05;0.82;-4.73;1.25;-0.83;71.28;129.89;-327.00;0.86;38.46;-16.46;8.22 
0.902;-0.27;0.05;0.86;-4.80;1.32;-1.04;67.32;127.02;-329.00;0.90;38.43;-16.51;8.10 
0.931;-0.28;0.04;0.86;-4.94;1.46;-1.39;69.30;126.07;-331.00;0.91;38.41;-16.57;8.00 
0.961;-0.26;0.04;0.83;-4.94;2.57;-1.18;70.29;130.85;-329.00;0.87;38.40;-16.63;7.89 
0.991;-0.31;0.03;0.78;-5.57;3.83;-0.70;65.34;130.85;-327.00;0.84;38.39;-16.73;7.75 
1.021;-0.29;0.03;0.75;-5.84;7.44;0.70;62.37;130.85;-329.00;0.80;38.35;-16.91;7.64 
1.051;-0.33;0.06;0.78;-5.50;13.63;0.83;63.36;130.85;-326.00;0.85;38.32;-17.27;7.53 
1.081;-0.37;0.07;0.76;-7.03;16.07;2.02;67.32;134.67;-323.00;0.85;38.28;-17.76;7.43 
1.111;-0.34;0.03;0.69;-10.02;15.23;1.81;58.41;140.40;-322.00;0.77;38.22;-18.37;7.24 
1.140;-0.34;-0.06;0.64;-13.57;15.03;-2.16;59.40;137.53;-317.00;0.73;38.22;-18.95;6.88 
1.170;-0.33;-0.04;0.57;-14.26;8.70;-11.27;53.46;144.22;-315.00;0.66;38.39;-19.48;6.37 
1.201;-0.24;0.00;0.47;-12.10;0.90;-15.93;50.49;141.35;-317.00;0.53;38.71;-19.71;5.91 
1.231;-0.14;0.01;0.49;-11.97;0.97;-10.57;45.54;141.35;-311.00;0.51;39.02;-19.79;5.43 
1.260;-0.08;0.15;0.50;-8.35;0.63;-3.97;37.62;140.40;-310.00;0.53;39.15;-19.69;5.14 
1.290;-0.18;0.15;0.56;-11.97;12.45;9.95;41.58;139.44;-311.00;0.61;38.96;-19.74;5.20 
1.320;-0.23;0.14;0.56;-10.99;27.83;8.28;36.63;143.26;-307.00;0.62;38.60;-20.34;5.21 
1.350;-0.18;0.06;0.76;-4.03;24.21;8.90;42.57;148.04;-305.00;0.78;38.36;-21.11;5.31 
1.380;-0.30;-0.14;0.86;-13.29;-7.65;2.50;43.56;153.77;-298.00;0.92;38.12;-21.30;5.17 
1.411;-0.39;0.00;0.77;-24.70;-27.69;-16.21;36.63;148.04;-300.00;0.86;38.04;-20.72;4.45 
1.441;-0.28;0.20;0.66;-14.75;-30.54;-25.32;30.69;142.31;-301.00;0.74;38.41;-19.91;3.73 
1.471;-0.19;0.01;0.61;-5.36;-20.94;-16.97;26.73;140.40;-301.00;0.64;38.84;-19.21;3.39 
1.502;-0.32;-0.04;0.63;-2.92;-17.81;-26.37;16.83;131.80;-309.00;0.71;39.37;-18.72;3.07 
1.531;-0.47;0.11;0.86;-10.09;5.29;-56.90;13.86;131.80;-309.00;0.99;40.50;-18.60;2.63 
1.560;-0.25;0.15;0.97;-11.62;-14.75;-62.26;4.95;128.94;-308.00;1.01;42.21;-18.69;1.93 
1.589;-0.34;0.24;0.86;-9.39;-35.27;-57.88;-9.90;122.25;-304.00;0.96;43.71;-18.08;1.29 
1.618;-0.29;0.26;0.77;-14.47;-41.46;-53.15;-20.79;112.70;-311.00;0.86;45.16;-16.95;0.71 
1.647;-0.24;0.22;0.67;-34.78;-40.97;-40.07;-33.66;102.19;-313.00;0.74;46.21;-15.78;-0.08 
1.677;-0.22;0.08;0.71;-59.97;-32.35;-18.23;-42.57;94.55;-315.00;0.75;46.71;-14.69;-1.34 
1.707;-0.57;-0.24;0.91;-106.64;-17.25;-0.70;-56.43;90.73;-308.00;1.10;46.57;-14.00;-3.77 
1.736;-0.73;-0.62;1.19;-110.19;-7.72;-30.33;-72.27;90.73;-298.00;1.53;46.06;-13.67;-7.39 
1.765;-0.21;-0.82;1.63;-65.04;-34.37;-73.25;-96.03;85.00;-297.00;1.84;46.90;-12.96;-10.49 
1.796;-0.61;-0.23;1.34;-36.80;-119.93;-51.69;-122.76;64.95;-297.00;1.49;48.07;-10.38;-12.62 
1.826;-0.51;0.00;0.70;-39.72;-130.50;-51.06;-131.67;41.07;-301.00;0.87;48.32;-6.42;-13.83 
1.855;0.11;-0.26;0.58;-75.62;-108.73;-62.68;-151.47;19.10;-311.00;0.65;49.11;-2.47;-15.49 
1.884;0.25;-0.77;0.90;-109.15;-75.34;-75.13;-170.28;0.00;-306.00;1.21;50.09;0.89;-18.32 
1.914;0.48;-1.82;1.98;-119.93;-99.69;-108.10;-195.03;-19.10;-295.00;2.73;51.83;3.94;-22.02 
1.944;1.19;-2.62;2.42;-214.82;-191.37;-99.20;-235.62;-69.72;-279.00;3.76;53.52;10.72;-25.95 
1.974;0.99;-0.24;0.53;-262.19;-192.42;-76.59;-269.28;-107.92;-238.00;1.15;54.61;18.38;-31.93 
2.004;0.15;0.31;0.14;-197.50;-45.57;-55.58;-303.94;-128.94;-194.00;0.37;54.04;22.96;-37.40 
2.034;0.30;0.15;0.46;-167.37;-19.97;-32.90;-312.85;-136.58;-173.00;0.57;54.82;24.98;-40.24 
2.064;0.57;-0.24;0.54;-157.22;-140.45;-35.41;-334.63;-157.59;-109.00;0.82;54.24;27.43;-42.98 
2.095;0.81;-0.34;0.02;-153.74;-194.43;-13.43;-338.59;-164.27;-93.00;0.88;51.86;31.82;-45.53 
2.125;1.00;-0.57;-0.52;-145.88;-178.02;-0.90;-343.54;-174.78;-47.00;1.26;48.32;35.31;-48.00 
2.155;0.83;-1.37;-0.69;-164.73;-150.47;28.66;-348.49;-175.73;-12.00;1.74;44.78;37.43;-49.95 
2.185;0.58;-1.46;-0.54;-154.78;-90.92;19.20;-343.54;-169.05;39.00;1.66;40.54;37.20;-52.20 
2.215;0.93;-1.17;-0.21;-62.68;-55.03;-7.17;-343.54;-167.14;53.00;1.51;37.96;37.22;-52.76 
2.245;1.00;-0.90;-0.39;31.58;-143.37;37.15;-335.62;-163.32;74.00;1.40;36.38;36.82;-53.16 
2.275;0.35;-0.77;-0.75;47.44;-141.77;83.62;-336.61;-150.90;68.00;1.13;33.81;34.92;-54.88 
2.306;0.14;-0.78;-0.82;20.03;-26.09;35.41;-332.65;-125.11;56.00;1.14;30.83;32.18;-57.38 
2.336;0.31;-0.46;-0.53;7.93;39.10;0.77;-332.65;-125.11;54.00;0.77;30.38;31.73;-57.84 
2.366;0.27;-0.33;-0.25;16.97;4.31;18.37;-334.63;-125.11;54.00;0.49;30.30;31.62;-58.00 
2.397;0.14;-0.54;-0.38;29.15;-46.40;18.50;-333.64;-122.25;51.00;0.67;29.52;30.83;-58.74 
2.427;0.30;-0.86;-0.64;41.81;-44.94;2.50;-333.64;-116.52;37.00;1.11;28.90;30.11;-59.39 
2.457;0.47;-1.10;-0.88;37.29;-19.34;-4.66;-337.60;-114.61;26.00;1.49;28.81;29.86;-59.66 
2.487;0.40;-1.10;-0.86;26.99;32.77;-12.45;-336.61;-118.43;23.00;1.45;29.17;30.10;-59.49 
2.516;0.54;-1.18;-0.50;33.81;37.91;18.30;-339.58;-121.29;17.00;1.39;29.30;30.04;-59.72 
2.545;0.68;-1.01;-0.36;45.15;-0.70;35.62;-335.62;-112.70;8.00;1.27;28.78;29.26;-60.63 
2.574;0.51;-0.82;-0.39;45.98;-6.89;42.16;-333.64;-105.06;-2.00;1.04;27.90;28.16;-61.80 
2.603;0.34;-0.77;-0.41;52.66;0.56;31.30;-333.64;-102.19;-9.00;0.94;26.98;27.01;-62.98 
2.632;0.41;-0.84;-0.45;64.90;23.86;26.57;-330.67;-93.60;-22.00;1.04;26.41;26.15;-63.84 
2.662;0.50;-0.93;-0.37;73.32;59.62;31.93;-328.69;-87.87;-35.00;1.12;26.04;25.32;-64.51 
2.693;0.22;-0.92;-0.32;71.44;121.74;27.62;-321.76;-73.54;-56.00;1.00;25.89;24.15;-65.02 
2.723;0.57;-0.99;0.47;66.92;114.16;9.74;-316.81;-68.77;-65.00;1.24;25.93;22.60;-65.22 
2.752;0.77;-1.26;0.65;25.74;62.33;78.54;-312.85;-56.35;-75.00;1.61;25.45;21.08;-65.62 
2.781;-0.09;-1.28;0.56;17.04;2.85;19.76;-305.92;-42.98;-82.00;1.40;24.19;19.19;-66.49 
2.810;0.10;-0.87;0.27;2.57;-20.94;-7.44;-307.90;-43.93;-82.00;0.92;24.13;19.08;-66.35 
2.839;0.26;-0.88;0.21;6.54;-6.05;15.93;-306.91;-40.11;-86.00;0.94;23.84;18.89;-66.44 
2.869;0.12;-1.01;0.27;1.04;1.88;-2.64;-304.93;-40.11;-88.00;1.05;23.63;18.64;-66.53 
2.899;0.13;-1.06;0.30;-14.54;13.70;-16.97;-308.89;-36.29;-89.00;1.11;23.64;18.60;-66.59 
2.929;0.30;-1.06;0.22;-25.18;13.43;-27.13;-310.87;-44.89;-88.00;1.12;23.97;18.94;-66.56 
2.958;0.41;-0.97;0.21;-22.40;2.02;-28.52;-310.87;-44.89;-78.00;1.07;24.59;19.64;-66.28 
2.987;0.40;-0.91;0.20;-17.25;-9.88;-25.18;-316.81;-53.48;-74.00;1.01;25.21;20.49;-65.90 
3.016;0.42;-0.92;0.05;-10.30;-10.43;-21.29;-318.79;-59.21;-71.00;1.01;25.66;21.18;-65.58 
3.045;0.44;-0.91;0.00;-9.11;-9.74;-13.70;-317.80;-63.03;-70.00;1.01;26.02;21.77;-65.29 
3.076;0.45;-0.94;0.04;-10.64;-4.31;-8.28;-322.75;-65.90;-69.00;1.04;26.22;22.18;-65.14 
3.106;0.43;-0.94;0.02;-13.70;-4.24;-3.06;-322.75;-69.72;-68.00;1.03;26.23;22.39;-65.18 
3.136;0.42;-0.94;-0.02;-13.50;-4.31;-0.83;-323.74;-69.72;-61.00;1.03;26.14;22.52;-65.29 
3.166;0.41;-0.94;-0.05;-9.81;-2.16;0.63;-325.72;-68.77;-60.00;1.03;25.97;22.55;-65.47 
3.196;0.36;-0.97;-0.06;-4.24;-1.39;1.81;-322.75;-67.81;-58.00;1.04;25.77;22.50;-65.67 
3.226;0.35;-1.02;-0.06;0.21;1.88;1.32;-323.74;-68.77;-57.00;1.08;25.58;22.41;-65.86 
3.256;0.34;-0.98;0.00;4.10;6.12;-1.60;-320.77;-71.63;-60.00;1.04;25.56;22.36;-65.88 
3.287;0.38;-0.96;0.00;5.91;7.44;-3.62;-323.74;-67.81;-58.00;1.03;25.68;22.37;-65.77 
3.316;0.38;-0.94;0.09;3.83;2.57;-2.37;-323.74;-67.81;-62.00;1.02;25.78;22.39;-65.69 
3.346;0.38;-0.93;0.08;0.21;-5.22;-1.88;-322.75;-71.63;-62.00;1.01;25.80;22.43;-65.65 
3.377;0.37;-0.94;-0.02;-0.70;-6.61;-1.11;-322.75;-71.63;-61.00;1.01;25.73;22.46;-65.68 
3.407;0.41;-0.97;0.00;-0.07;-1.67;-1.04;-327.70;-69.72;-64.00;1.05;25.71;22.49;-65.68 
3.437;0.39;-0.97;0.00;1.18;3.20;-0.49;-326.71;-71.63;-60.00;1.05;25.73;22.49;-65.65 
3.466;0.38;-0.94;0.02;1.11;5.29;0.07;-324.73;-71.63;-61.00;1.01;25.74;22.45;-65.65 
3.496;0.38;-0.95;0.06;0.35;4.17;0.14;-322.75;-67.81;-62.00;1.02;25.73;22.40;-65.67 
3.526;0.38;-0.96;0.06;-0.42;1.39;0.21;-323.74;-70.68;-64.00;1.03;25.66;22.34;-65.74 
3.555;0.38;-0.94;0.05;-1.67;-0.83;0.00;-324.73;-69.72;-64.00;1.02;25.58;22.30;-65.81 
3.586;0.39;-0.97;0.02;-2.30;-0.35;-0.56;-325.72;-69.72;-62.00;1.05;25.49;22.26;-65.90 
3.616;0.38;-0.98;0.01;-1.74;0.63;-0.77;-325.72;-71.63;-64.00;1.05;25.42;22.25;-65.96 
3.645;0.40;-0.96;0.03;-1.32;0.28;-0.56;-324.73;-70.68;-65.00;1.04;25.36;22.22;-66.02 
3.676;0.38;-0.94;0.05;-0.97;0.49;-0.49;-324.73;-70.68;-60.00;1.02;25.33;22.20;-66.04 
3.706;0.39;-0.97;0.01;-0.90;-0.70;-0.28;-323.74;-68.77;-64.00;1.05;25.27;22.18;-66.10 
3.736;0.39;-0.96;0.00;-0.35;-1.18;0.14;-322.75;-70.68;-60.00;1.04;25.19;22.16;-66.16 
3.765;0.39;-0.94;0.03;-0.07;-0.42;0.07;-322.75;-68.77;-60.00;1.02;25.15;22.13;-66.19 
3.795;0.39;-0.98;0.01;0.14;1.04;0.28;-323.74;-71.63;-63.00;1.05;25.09;22.09;-66.24 
3.824;0.37;-0.95;0.01;0.00;1.32;-0.21;-321.76;-70.68;-59.00;1.02;25.03;22.05;-66.30 
3.854;0.35;-0.98;0.05;-0.42;1.39;-0.35;-323.74;-72.59;-59.00;1.04;24.99;22.03;-66.34 
3.885;0.37;-0.95;0.00;-0.42;1.04;-0.83;-323.74;-70.68;-60.00;1.02;24.93;22.01;-66.39 
3.915;0.35;-0.96;0.01;-0.77;-0.14;-0.63;-328.69;-68.77;-62.00;1.02;24.93;21.99;-66.39 
3.945;0.38;-0.95;0.00;-1.04;-0.42;-0.77;-325.72;-69.72;-64.00;1.02;24.90;21.97;-66.41 
3.976;0.38;-0.95;0.03;-1.04;0.21;-0.07;-327.70;-70.68;-61.00;1.02;24.87;21.95;-66.43 
4.005;0.39;-0.96;0.00;-0.83;0.28;-0.07;-326.71;-69.72;-61.00;1.04;24.82;21.93;-66.48 
4.035;0.39;-0.96;0.02;-0.42;0.56;0.21;-322.75;-70.68;-60.00;1.04;24.79;21.89;-66.50 
4.064;0.40;-0.96;0.00;-0.63;0.49;0.07;-324.73;-73.54;-61.00;1.04;24.72;21.85;-66.56 
4.094;0.39;-0.97;0.00;-0.70;0.42;0.07;-325.72;-69.72;-62.00;1.05;24.68;21.81;-66.59 
4.124;0.39;-0.96;0.01;-0.28;0.42;0.28;-321.76;-70.68;-62.00;1.04;24.64;21.77;-66.63 
4.154;0.38;-0.95;0.01;-0.28;0.83;-0.07;-323.74;-70.68;-60.00;1.02;24.57;21.73;-66.68 
4.185;0.41;-0.94;0.02;-0.14;1.60;-0.42;-322.75;-70.68;-61.00;1.03;24.54;21.70;-66.72 
4.215;0.38;-0.94;0.02;-0.28;1.25;0.00;-323.74;-72.59;-58.00;1.01;24.49;21.68;-66.76 
4.245;0.39;-0.95;0.00;-0.28;0.97;0.28;-325.72;-71.63;-60.00;1.03;24.43;21.63;-66.81 
4.276;0.37;-0.96;0.00;-0.49;0.90;-0.14;-321.76;-71.63;-61.00;1.03;24.38;21.60;-66.86 
4.306;0.38;-0.96;0.02;-0.49;0.70;0.07;-325.72;-71.63;-63.00;1.03;24.31;21.56;-66.93 
4.336;0.38;-0.96;0.02;-0.49;0.56;0.07;-324.73;-68.77;-57.00;1.03;24.26;21.53;-66.97 
4.365;0.41;-0.95;0.02;-0.28;1.04;0.14;-321.76;-70.68;-63.00;1.03;24.20;21.49;-67.03 
4.395;0.40;-0.96;0.03;-0.63;1.32;0.07;-323.74;-68.77;-63.00;1.04;24.18;21.46;-67.04 
4.425;0.38;-0.96;0.00;-0.63;0.63;-0.14;-322.75;-70.68;-59.00;1.03;24.13;21.44;-67.09 
4.455;0.40;-0.98;0.02;-0.49;0.35;0.14;-323.74;-70.68;-63.00;1.06;24.09;21.42;-67.12 
4.486;0.38;-0.94;0.00;-0.90;0.42;0.07;-324.73;-72.59;-60.00;1.01;24.04;21.39;-67.17 
4.516;0.40;-0.95;0.00;-0.35;0.83;-0.14;-323.74;-70.68;-59.00;1.03;23.98;21.37;-67.22 
4.546;0.37;-0.94;0.00;-0.14;1.46;0.07;-320.77;-69.72;-64.00;1.01;23.96;21.36;-67.24 
4.576;0.38;-0.95;0.02;-0.56;-0.28;-0.14;-324.73;-72.59;-60.00;1.02;23.94;21.33;-67.26 
4.606;0.39;-0.97;0.03;-0.77;-1.25;0.42;-325.72;-69.72;-59.00;1.05;23.89;21.29;-67.29 
4.636;0.39;-0.96;0.01;-0.56;-0.77;-0.07;-323.74;-68.77;-65.00;1.04;23.85;21.27;-67.32 
4.666;0.38;-0.94;0.02;0.00;0.83;-0.63;-321.76;-70.68;-61.00;1.01;23.82;21.27;-67.34 
4.697;0.38;-0.96;0.02;0.42;1.25;-0.35;-325.72;-71.63;-60.00;1.03;23.82;21.25;-67.34 
4.727;0.39;-0.95;0.00;0.00;0.77;-0.14;-321.76;-68.77;-60.00;1.03;23.81;21.23;-67.34 
4.757;0.38;-0.96;0.02;-0.28;0.35;-0.56;-326.71;-71.63;-57.00;1.03;23.79;21.23;-67.36 
4.788;0.38;-0.96;-0.02;-0.28;0.77;-0.42;-325.72;-69.72;-62.00;1.03;23.77;21.21;-67.37 
4.817;0.39;-0.95;0.02;-0.77;1.60;-0.42;-325.72;-70.68;-60.00;1.03;23.76;21.19;-67.38 
4.847;0.38;-0.95;0.00;-0.70;1.88;-0.21;-322.75;-69.72;-60.00;1.02;23.73;21.18;-67.40 
4.877;0.42;-0.98;0.02;-0.70;1.60;0.14;-323.74;-69.72;-62.00;1.07;23.69;21.15;-67.45 
4.906;0.38;-0.98;0.01;-0.77;1.11;0.14;-323.74;-70.68;-62.00;1.05;23.65;21.12;-67.49 
4.936;0.39;-0.95;0.00;-0.83;0.63;0.35;-323.74;-71.63;-60.00;1.03;23.61;21.10;-67.52 
4.966;0.38;-0.94;0.00;-0.56;0.56;0.77;-323.74;-68.77;-65.00;1.01;23.57;21.05;-67.55 
4.997;0.38;-0.98;0.02;-0.70;0.56;0.42;-325.72;-71.63;-59.00;1.05;23.53;21.03;-67.59 
5.027;0.39;-0.95;0.00;-0.49;0.70;0.56;-321.76;-71.63;-60.00;1.03;23.45;20.98;-67.67 
5.057;0.38;-0.95;0.00;-0.49;0.35;0.49;-325.72;-72.59;-61.00;1.02;23.40;20.95;-67.70 
5.087;0.39;-0.97;0.00;-0.49;0.21;-0.07;-323.74;-70.68;-61.00;1.05;23.35;20.93;-67.75 
5.117;0.38;-0.97;0.02;-0.35;0.42;0.00;-323.74;-72.59;-59.00;1.04;23.30;20.89;-67.79 
5.147;0.38;-0.97;0.03;-0.35;0.63;-0.35;-324.73;-68.77;-62.00;1.04;23.27;20.88;-67.82 
5.177;0.39;-0.95;0.00;-0.28;0.70;-0.35;-328.69;-67.81;-57.00;1.03;23.25;20.85;-67.83 
5.207;0.39;-0.94;0.02;-0.49;0.56;-0.42;-323.74;-73.54;-59.00;1.02;23.22;20.85;-67.85 
5.237;0.38;-0.96;0.01;-0.35;0.56;-0.49;-323.74;-71.63;-59.00;1.03;23.20;20.83;-67.87 
5.267;0.40;-0.96;0.01;-0.35;0.97;-0.77;-323.74;-71.63;-61.00;1.04;23.19;20.81;-67.87 
5.298;0.35;-0.94;0.01;-0.63;0.42;-0.07;-326.71;-72.59;-60.00;1.00;23.17;20.80;-67.89 
5.328;0.40;-0.97;0.02;-1.11;-0.56;0.07;-326.71;-66.86;-59.00;1.05;23.16;20.78;-67.89 
5.358;0.39;-0.98;0.00;-0.97;-0.42;0.21;-323.74;-71.63;-59.00;1.05;23.13;20.76;-67.91 
5.388;0.40;-0.98;0.02;-0.21;0.70;0.14;-322.75;-71.63;-58.00;1.06;23.11;20.74;-67.92 
5.418;0.40;-0.97;0.00;-0.14;0.90;-0.07;-323.74;-67.81;-62.00;1.05;23.09;20.71;-67.93 
5.448;0.40;-0.96;0.00;-0.28;0.90;-0.28;-327.70;-71.63;-62.00;1.04;23.06;20.69;-67.97 
5.478;0.39;-0.98;0.00;-0.35;1.18;-0.14;-324.73;-70.68;-63.00;1.05;23.04;20.69;-67.98 
5.509;0.39;-0.98;0.00;-0.56;0.90;-0.21;-324.73;-72.59;-61.00;1.05;23.00;20.67;-68.02 
5.539;0.38;-0.95;0.00;-0.77;1.18;-0.21;-327.70;-69.72;-59.00;1.02;22.96;20.66;-68.05 
5.568;0.37;-0.94;0.02;-0.49;0.90;0.14;-324.73;-72.59;-60.00;1.01;22.95;20.63;-68.06 
5.598;0.40;-0.95;0.00;-0.35;1.32;0.07;-328.69;-70.68;-58.00;1.03;22.90;20.61;-68.11 
5.627;0.36;-0.94;0.00;-0.28;1.04;0.21;-325.72;-70.68;-58.00;1.01;22.88;20.57;-68.12 
5.657;0.38;-0.95;0.02;-0.42;0.56;0.28;-323.74;-69.72;-59.00;1.02;22.86;20.55;-68.13 
5.686;0.39;-0.98;0.01;-0.49;0.21;0.35;-326.71;-67.81;-59.00;1.05;22.83;20.54;-68.16 
5.716;0.40;-0.98;0.01;-0.49;0.35;0.21;-324.73;-68.77;-57.00;1.06;22.81;20.54;-68.18 
5.746;0.39;-0.98;0.00;-0.35;0.83;0.21;-325.72;-69.72;-58.00;1.05;22.78;20.53;-68.20 
5.775;0.39;-0.97;0.00;-0.21;1.39;0.00;-322.75;-69.72;-60.00;1.05;22.75;20.52;-68.23 
5.806;0.38;-0.96;0.04;-0.28;0.49;0.21;-325.72;-71.63;-60.00;1.03;22.73;20.51;-68.24 
5.835;0.38;-0.95;0.00;-0.21;0.56;-0.14;-324.73;-74.50;-58.00;1.02;22.71;20.48;-68.25 
5.865;0.39;-0.97;0.01;-0.70;0.83;-0.14;-325.72;-67.81;-61.00;1.05;22.70;20.48;-68.26 
5.896;0.38;-0.97;0.01;-0.56;1.04;-0.07;-324.73;-69.72;-59.00;1.04;22.66;20.46;-68.29 
5.926;0.38;-0.96;0.02;-0.70;0.83;-0.28;-326.71;-71.63;-60.00;1.03;22.64;20.46;-68.31 
5.956;0.40;-0.97;0.01;-0.35;0.70;-0.21;-324.73;-68.77;-59.00;1.05;22.63;20.43;-68.32 
5.986;0.38;-0.96;0.00;-0.42;0.28;0.14;-325.72;-69.72;-57.00;1.03;22.61;20.43;-68.33 
6.016;0.40;-0.95;0.02;-0.28;0.42;-0.28;-324.73;-71.63;-60.00;1.03;22.59;20.43;-68.35 
6.046;0.38;-0.96;0.02;-0.28;0.28;0.00;-324.73;-69.72;-58.00;1.03;22.56;20.42;-68.38 
6.076;0.39;-0.96;0.00;-0.35;0.49;-0.21;-324.73;-72.59;-62.00;1.04;22.54;20.39;-68.38 
6.107;0.38;-0.96;0.00;-0.28;1.25;-0.07;-326.71;-67.81;-62.00;1.03;22.54;20.39;-68.38 
6.137;0.38;-0.96;0.02;-0.63;0.21;-0.07;-325.72;-70.68;-58.00;1.03;22.52;20.40;-68.40 
6.167;0.38;-0.97;0.01;-0.63;-0.14;0.07;-324.73;-70.68;-59.00;1.04;22.50;20.38;-68.41 
6.197;0.38;-0.98;0.00;-0.49;0.14;0.35;-323.74;-68.77;-55.00;1.05;22.47;20.35;-68.43 
6.226;0.38;-0.93;0.00;-0.35;0.97;0.14;-324.73;-65.90;-59.00;1.00;22.46;20.33;-68.44 
6.256;0.38;-0.96;0.00;-0.28;1.11;-0.07;-322.75;-71.63;-58.00;1.03;22.46;20.32;-68.44 
6.286;0.40;-0.98;0.01;-0.21;1.04;-0.21;-323.74;-68.77;-56.00;1.06;22.45;20.30;-68.45 
6.315;0.40;-0.94;0.00;-0.42;0.97;-0.07;-325.72;-67.81;-58.00;1.02;22.43;20.31;-68.45 
6.345;0.38;-0.96;0.02;-0.42;0.49;0.07;-322.75;-68.77;-57.00;1.03;22.42;20.31;-68.47 
6.375;0.38;-0.94;0.00;-0.35;0.77;-0.14;-324.73;-67.81;-55.00;1.01;22.41;20.32;-68.47 
6.406;0.39;-0.96;0.00;-0.42;1.25;-0.21;-326.71;-70.68;-59.00;1.04;22.39;20.29;-68.48 
6.435;0.41;-0.95;0.04;-0.28;1.32;0.14;-324.73;-67.81;-58.00;1.04;22.37;20.25;-68.49 
6.465;0.39;-0.98;0.00;-0.63;0.49;0.14;-326.71;-69.72;-60.00;1.05;22.36;20.25;-68.50 
6.495;0.38;-0.94;0.05;-0.49;0.14;0.21;-324.73;-70.68;-60.00;1.02;22.33;20.21;-68.52 
6.525;0.38;-0.94;0.00;-0.28;0.63;0.35;-324.73;-68.77;-58.00;1.01;22.32;20.19;-68.53 
6.555;0.42;-0.96;0.00;-0.21;0.90;0.00;-323.74;-70.68;-58.00;1.05;22.30;20.16;-68.54 
6.585;0.38;-0.96;0.00;-0.21;0.63;-0.14;-326.71;-68.77;-57.00;1.03;22.29;20.14;-68.54 
6.616;0.38;-0.95;0.01;-0.21;1.04;-0.07;-325.72;-69.72;-60.00;1.02;22.28;20.14;-68.55 
6.646;0.38;-0.94;0.02;-0.49;0.56;-0.07;-325.72;-70.68;-59.00;1.01;22.25;20.13;-68.57 
6.676;0.38;-0.93;0.01;-0.35;0.77;0.28;-324.73;-71.63;-59.00;1.00;22.23;20.12;-68.59 
6.706;0.37;-0.96;0.00;-0.35;0.70;-0.14;-321.76;-71.63;-57.00;1.03;22.21;20.12;-68.60 
6.736;0.38;-0.96;0.02;-0.28;0.97;-0.14;-323.74;-68.77;-59.00;1.03;22.20;20.12;-68.61 
6.766;0.38;-0.96;0.02;-0.49;0.83;-0.56;-320.77;-69.72;-57.00;1.03;22.20;20.13;-68.61 
6.796;0.39;-0.95;0.00;-0.35;0.21;0.00;-325.72;-72.59;-57.00;1.03;22.20;20.14;-68.61 
6.826;0.39;-0.96;0.00;-0.56;0.35;0.14;-322.75;-69.72;-55.00;1.04;22.19;20.12;-68.61 
6.855;0.39;-0.97;0.01;-0.35;0.56;-0.14;-325.72;-69.72;-59.00;1.05;22.18;20.11;-68.61 
6.885;0.39;-0.98;0.00;0.00;0.70;-0.07;-323.74;-68.77;-57.00;1.05;22.17;20.09;-68.62 
6.916;0.38;-0.96;0.00;0.07;1.46;-0.49;-326.71;-69.72;-56.00;1.03;22.16;20.07;-68.62 
6.946;0.37;-0.97;0.03;-0.35;0.77;0.21;-324.73;-69.72;-60.00;1.04;22.14;20.07;-68.64 
6.976;0.38;-0.96;0.00;-0.56;-0.28;0.35;-326.71;-69.72;-61.00;1.03;22.13;20.07;-68.64 
7.007;0.38;-0.94;0.00;-0.63;0.28;0.07;-321.76;-73.54;-57.00;1.01;22.11;20.05;-68.66 
7.037;0.38;-0.97;0.00;-0.07;0.70;-0.07;-325.72;-69.72;-60.00;1.04;22.11;20.06;-68.65 
7.067;0.40;-0.95;0.02;-0.07;1.18;-0.42;-323.74;-72.59;-58.00;1.03;22.10;20.04;-68.65 
7.097;0.36;-0.95;0.00;-0.07;0.97;-0.28;-322.75;-69.72;-58.00;1.02;22.09;20.02;-68.66 
7.128;0.40;-0.94;0.01;-0.28;0.63;-0.35;-324.73;-69.72;-60.00;1.02;22.08;20.01;-68.67 
7.158;0.44;-0.96;0.03;-0.49;0.70;-0.14;-324.73;-71.63;-57.00;1.06;22.09;20.04;-68.65 
7.187;0.39;-0.98;-0.03;-0.35;1.25;-0.35;-322.75;-71.63;-59.00;1.06;22.09;20.03;-68.65 
7.218;0.38;-0.95;0.01;-0.21;1.67;-0.14;-319.78;-69.72;-62.00;1.02;22.10;20.05;-68.63 
7.248;0.41;-0.94;0.02;-0.49;1.25;0.28;-325.72;-71.63;-57.00;1.03;22.10;20.04;-68.63 
7.278;0.36;-0.94;0.00;-0.49;0.97;0.07;-323.74;-70.68;-61.00;1.01;22.08;20.05;-68.65 
7.308;0.41;-0.94;0.01;-0.42;0.28;0.28;-324.73;-73.54;-58.00;1.03;22.06;20.03;-68.66 
7.337;0.38;-0.97;0.03;-0.49;0.21;0.07;-326.71;-68.77;-59.00;1.04;22.05;20.04;-68.67 
7.367;0.39;-0.97;0.03;-0.14;1.18;0.14;-322.75;-74.50;-61.00;1.05;22.04;20.01;-68.68 
7.397;0.40;-0.96;0.01;-0.42;0.97;0.00;-325.72;-70.68;-59.00;1.04;22.03;19.99;-68.67 
7.428;0.36;-0.94;0.00;-0.42;0.77;0.00;-323.74;-71.63;-60.00;1.01;22.02;19.97;-68.68 
7.458;0.40;-0.97;0.00;-0.35;0.77;-0.14;-325.72;-69.72;-61.00;1.05;22.00;19.94;-68.69 
7.488;0.36;-0.94;0.01;-0.21;0.56;-0.07;-322.75;-70.68;-58.00;1.01;21.99;19.92;-68.69 
7.517;0.38;-0.98;0.01;-0.28;1.04;-0.35;-321.76;-68.77;-61.00;1.05;21.96;19.90;-68.72 
7.547;0.39;-0.95;0.03;-0.21;1.18;-0.42;-322.75;-68.77;-61.00;1.03;21.95;19.88;-68.72 
7.577;0.39;-0.95;0.00;-0.35;0.97;-0.07;-324.73;-68.77;-57.00;1.03;21.94;19.89;-68.73 
7.607;0.38;-0.95;0.02;-0.21;0.63;0.14;-326.71;-70.68;-56.00;1.02;21.93;19.89;-68.74 
7.637;0.38;-0.95;0.02;-0.21;0.83;-0.07;-322.75;-69.72;-59.00;1.02;21.92;19.89;-68.73 
7.667;0.38;-0.97;0.00;-0.28;0.49;0.07;-320.77;-70.68;-59.00;1.04;21.90;19.86;-68.75 
7.697;0.38;-0.96;0.02;-0.49;0.21;0.14;-322.75;-66.86;-61.00;1.03;21.87;19.85;-68.77 
7.728;0.40;-0.96;0.01;-0.49;0.63;0.00;-323.74;-68.77;-58.00;1.04;21.86;19.86;-68.78 
7.758;0.40;-0.95;0.00;-0.35;0.97;-0.56;-324.73;-72.59;-58.00;1.03;21.86;19.86;-68.78 
7.788;0.38;-0.96;0.00;-0.83;0.07;0.35;-322.75;-70.68;-57.00;1.03;21.83;19.83;-68.80 
7.818;0.37;-0.95;0.04;-1.04;-0.56;0.00;-324.73;-65.90;-57.00;1.02;21.81;19.80;-68.82 
7.848;0.40;-0.97;0.00;-0.90;0.00;-0.14;-325.72;-67.81;-57.00;1.05;21.78;19.80;-68.85 
7.877;0.38;-0.97;-0.02;-0.07;0.70;-0.49;-326.71;-70.68;-58.00;1.04;21.76;19.78;-68.85 
7.907;0.38;-0.97;0.00;-0.07;0.70;-0.07;-323.74;-71.63;-61.00;1.04;21.76;19.77;-68.84 
7.938;0.38;-0.95;0.00;0.07;0.70;-0.14;-326.71;-68.77;-58.00;1.02;21.78;19.80;-68.82 
7.968;0.38;-0.98;0.01;-0.28;0.49;-0.21;-323.74;-70.68;-59.00;1.05;21.78;19.80;-68.81 
7.998;0.39;-0.98;0.01;-0.42;0.83;-0.07;-321.76;-70.68;-56.00;1.05;21.78;19.79;-68.80 
8.029;0.38;-0.98;0.01;-0.21;0.70;-0.14;-322.75;-71.63;-58.00;1.05;21.77;19.78;-68.80 
8.058;0.40;-0.98;0.00;0.21;0.07;-0.63;-326.71;-69.72;-60.00;1.06;21.78;19.81;-68.79 
8.088;0.38;-1.00;0.00;0.42;-0.63;-0.49;-324.73;-71.63;-58.00;1.07;21.78;19.81;-68.78 
8.118;0.38;-0.98;0.01;1.53;-2.16;-2.23;-322.75;-71.63;-58.00;1.05;21.79;19.83;-68.76 
8.148;0.38;-0.99;0.00;2.30;-7.65;-3.06;-324.73;-73.54;-60.00;1.06;21.92;19.99;-68.61 
8.178;0.38;-0.99;-0.01;2.92;-8.21;-3.69;-323.74;-72.59;-61.00;1.06;21.98;20.08;-68.51 
8.208;0.34;-1.00;-0.03;4.03;-1.39;-8.21;-324.73;-72.59;-63.00;1.06;22.13;20.27;-68.34 
8.239;0.37;-1.02;0.00;3.20;6.68;-13.63;-322.75;-79.27;-64.00;1.09;22.47;20.59;-68.02 
8.269;0.38;-0.98;0.00;2.37;6.68;-16.14;-326.71;-79.27;-65.00;1.05;22.91;20.99;-67.60 
8.299;0.35;-0.94;0.02;3.20;3.90;-17.95;-324.73;-80.23;-62.00;1.00;23.40;21.44;-67.15 
8.329;0.45;-0.96;0.00;2.99;5.08;-18.78;-326.71;-86.91;-66.00;1.06;23.98;21.96;-66.59 
8.359;0.47;-0.90;0.00;2.99;5.43;-16.14;-325.72;-88.82;-66.00;1.02;24.60;22.53;-66.00 
8.389;0.43;-0.89;0.06;1.81;3.06;-15.58;-328.69;-90.73;-63.00;0.99;25.14;23.01;-65.48 
8.419;0.46;-0.87;0.02;-1.32;-1.46;-13.36;-328.69;-97.42;-65.00;0.98;25.64;23.51;-65.00 
8.450;0.48;-0.88;0.00;-1.39;-3.20;-8.42;-327.70;-97.42;-65.00;1.00;26.01;23.93;-64.65 
8.480;0.47;-0.94;0.01;0.07;0.90;-6.47;-327.70;-96.46;-64.00;1.05;26.23;24.15;-64.43 
8.510;0.47;-0.91;0.03;0.70;2.09;-5.43;-330.67;-96.46;-65.00;1.02;26.42;24.36;-64.25 
8.541;0.46;-0.90;0.02;0.35;4.45;-3.69;-330.67;-99.33;-65.00;1.01;26.56;24.50;-64.12 
8.571;0.47;-0.90;0.07;-0.14;2.37;-4.03;-331.66;-103.15;-68.00;1.02;26.75;24.67;-63.94 
8.600;0.50;-0.86;0.03;0.21;-1.81;-2.85;-328.69;-103.15;-65.00;1.00;26.90;24.84;-63.79 
8.630;0.48;-0.89;0.06;-1.04;-2.37;1.04;-329.68;-103.15;-66.00;1.01;26.99;24.95;-63.70 
8.660;0.46;-0.89;0.06;-4.38;-4.10;2.71;-328.69;-102.19;-67.00;1.00;26.92;24.94;-63.76 
8.690;0.50;-0.90;0.09;-5.84;-4.73;3.20;-329.68;-100.28;-60.00;1.03;26.82;24.93;-63.85 
8.720;0.51;-0.89;0.05;-5.98;-7.37;6.05;-330.67;-99.33;-64.00;1.03;26.68;24.87;-63.98 
8.751;0.48;-0.87;0.02;-6.40;-9.60;9.81;-330.67;-100.28;-65.00;0.99;26.43;24.74;-64.21 
8.781;0.46;-0.92;0.00;-6.96;-8.14;12.03;-329.68;-97.42;-60.00;1.03;26.04;24.45;-64.57 
8.811;0.46;-0.90;0.00;-7.79;-4.52;11.69;-329.68;-96.46;-58.00;1.01;25.63;24.14;-64.97 
8.841;0.46;-0.90;-0.02;-6.82;-5.50;12.45;-327.70;-95.51;-62.00;1.01;25.23;23.84;-65.35 
8.871;0.42;-0.95;-0.04;-3.06;-8.00;14.96;-327.70;-93.60;-58.00;1.04;24.76;23.43;-65.79 
8.901;0.40;-0.98;-0.03;-0.70;-4.80;12.59;-324.73;-90.73;-59.00;1.06;24.27;23.01;-66.25 
8.931;0.42;-0.97;0.00;0.35;-5.22;11.90;-325.72;-87.87;-58.00;1.06;23.89;22.68;-66.61 
8.962;0.45;-0.94;-0.06;0.83;-5.22;12.94;-325.72;-85.96;-59.00;1.04;23.52;22.35;-66.94 
8.992;0.41;-0.96;-0.07;0.35;-1.95;12.80;-324.73;-85.00;-59.00;1.05;23.12;21.98;-67.32 
9.022;0.40;-0.97;-0.05;0.07;4.80;9.60;-323.74;-81.18;-58.00;1.05;22.77;21.65;-67.65 
9.053;0.39;-1.00;0.00;0.00;5.98;8.28;-325.72;-78.32;-60.00;1.07;22.50;21.35;-67.91 
9.083;0.37;-0.98;0.00;0.83;3.62;7.03;-325.72;-80.23;-59.00;1.05;22.27;21.10;-68.15 
9.112;0.38;-0.98;0.02;0.35;0.07;5.57;-324.73;-76.41;-58.00;1.05;22.07;20.90;-68.33 
9.142;0.32;-1.01;0.00;-0.35;-2.85;4.03;-324.73;-74.50;-59.00;1.06;21.94;20.77;-68.44 
9.171;0.40;-0.97;0.00;-1.46;-0.56;2.30;-321.76;-73.54;-60.00;1.05;21.85;20.68;-68.52 
9.201;0.39;-0.94;0.02;-1.88;-0.07;2.30;-324.73;-73.54;-58.00;1.02;21.78;20.62;-68.58 
9.231;0.35;-0.97;0.02;-2.71;-2.43;1.81;-322.75;-75.45;-59.00;1.03;21.72;20.58;-68.64 
9.262;0.38;-0.99;0.01;-2.43;-6.96;2.50;-323.74;-72.59;-60.00;1.06;21.65;20.54;-68.69 
9.291;0.38;-0.94;-0.05;-3.48;-5.57;2.02;-320.77;-72.59;-59.00;1.02;21.56;20.52;-68.77 
9.321;0.41;-0.93;-0.04;-3.06;-6.54;2.09;-325.72;-74.50;-64.00;1.02;21.51;20.53;-68.81 
9.352;0.38;-0.95;-0.10;-1.67;-3.20;3.41;-321.76;-70.68;-58.00;1.03;21.43;20.49;-68.88 
9.382;0.38;-0.95;-0.06;-0.77;-0.35;3.27;-324.73;-73.54;-57.00;1.02;21.33;20.42;-68.98 
9.412;0.35;-0.99;-0.05;0.77;-0.21;1.18;-321.76;-70.68;-61.00;1.05;21.27;20.37;-69.03 
9.441;0.37;-0.99;-0.05;0.70;-0.49;1.11;-323.74;-73.54;-61.00;1.06;21.25;20.36;-69.04 
9.470;0.36;-0.97;-0.03;0.90;-0.70;-0.49;-323.74;-70.68;-58.00;1.04;21.24;20.35;-69.05 
9.500;0.38;-0.99;0.00;0.97;-1.74;-1.39;-321.76;-69.72;-62.00;1.06;21.28;20.39;-68.99 
9.530;0.39;-0.99;-0.04;1.88;-1.60;-2.64;-321.76;-70.68;-61.00;1.06;21.34;20.46;-68.92 
9.561;0.37;-0.98;0.00;2.02;-0.07;-2.09;-328.69;-71.63;-61.00;1.05;21.44;20.55;-68.81 
9.591;0.40;-0.96;0.00;1.32;0.83;-2.43;-320.77;-72.59;-61.00;1.04;21.54;20.64;-68.69 
9.620;0.37;-0.92;0.02;-0.07;0.97;-1.46;-322.75;-74.50;-61.00;0.99;21.64;20.74;-68.59 
9.651;0.39;-0.95;0.00;-0.35;1.18;-1.53;-324.73;-74.50;-60.00;1.03;21.70;20.79;-68.53 
9.681;0.40;-0.97;0.00;-0.49;1.88;-1.67;-321.76;-75.45;-62.00;1.05;21.77;20.87;-68.45 
9.711;0.39;-0.98;-0.06;-0.28;1.53;-1.32;-323.74;-74.50;-60.00;1.06;21.83;20.91;-68.39 
9.740;0.39;-0.96;0.00;-0.28;2.37;-1.39;-324.73;-73.54;-63.00;1.04;21.89;20.96;-68.32 
9.770;0.39;-0.97;-0.02;-1.39;2.57;-1.60;-321.76;-75.45;-62.00;1.05;21.96;21.02;-68.25 
9.799;0.39;-0.95;-0.04;-1.81;1.04;-1.18;-325.72;-74.50;-62.00;1.03;22.01;21.08;-68.21 
9.829;0.40;-0.94;-0.03;-0.90;2.16;-1.39;-325.72;-75.45;-58.00;1.02;22.07;21.14;-68.15 
9.860;0.40;-0.95;-0.03;-0.21;4.10;-0.28;-324.73;-72.59;-65.00;1.03;22.11;21.17;-68.10 
9.890;0.39;-0.98;0.00;0.42;2.37;-0.56;-322.75;-76.41;-57.00;1.05;22.13;21.18;-68.09 
9.920;0.45;-0.93;0.01;0.70;0.63;0.00;-321.76;-76.41;-62.00;1.03;22.17;21.21;-68.04 
9.951;0.40;-0.95;0.00;0.63;0.70;0.07;-324.73;-78.32;-60.00;1.03;22.19;21.22;-68.00 
9.980;0.41;-0.97;-0.06;0.63;1.04;0.21;-323.74;-76.41;-60.00;1.05;22.21;21.24;-67.98 
10.010;0.39;-0.96;-0.03;0.77;2.43;0.35;-323.74;-75.45;-64.00;1.04;22.23;21.27;-67.95 
10.040;0.40;-0.95;0.01;0.70;3.27;0.42;-325.72;-74.50;-64.00;1.03;22.24;21.26;-67.93 
10.069;0.38;-0.93;0.02;-0.35;1.88;1.11;-321.76;-72.59;-61.00;1.00;22.25;21.25;-67.92 
10.099;0.40;-0.94;0.00;-1.67;1.46;2.16;-322.75;-72.59;-66.00;1.02;22.21;21.20;-67.95 
10.129;0.39;-0.96;-0.02;-2.23;0.28;1.95;-323.74;-74.50;-63.00;1.04;22.15;21.14;-68.00 
10.159;0.38;-0.97;0.00;-1.95;-0.42;2.30;-322.75;-73.54;-60.00;1.04;22.09;21.09;-68.05 
10.189;0.38;-0.99;-0.06;-0.42;2.02;1.74;-323.74;-70.68;-61.00;1.06;22.02;21.03;-68.12 
10.219;0.39;-0.98;0.00;0.00;1.11;1.32;-323.74;-71.63;-58.00;1.05;21.98;20.99;-68.15 
10.250;0.38;-0.95;0.00;-0.77;-0.90;1.18;-323.74;-71.63;-61.00;1.02;21.94;20.95;-68.17 
10.280;0.38;-0.95;0.00;-1.25;-2.92;1.32;-323.74;-71.63;-61.00;1.02;21.93;20.96;-68.19 
10.310;0.38;-0.98;-0.04;-1.53;-3.13;1.67;-321.76;-70.68;-58.00;1.05;21.90;20.95;-68.21 
10.340;0.38;-1.01;-0.04;-0.83;0.35;0.63;-320.77;-74.50;-61.00;1.08;21.87;20.94;-68.23 
10.371;0.39;-0.95;0.00;-1.18;1.95;0.56;-323.74;-71.63;-58.00;1.03;21.86;20.94;-68.23 
10.401;0.38;-0.98;0.02;-1.88;-0.83;0.90;-323.74;-70.68;-58.00;1.05;21.89;20.97;-68.21 
10.431;0.38;-0.94;-0.03;-3.13;-4.10;0.42;-321.76;-67.81;-61.00;1.01;21.87;20.97;-68.22 
10.461;0.39;-0.99;-0.03;-3.27;-1.11;-1.18;-322.75;-70.68;-59.00;1.06;21.88;21.02;-68.21 
10.491;0.37;-0.98;-0.02;-2.09;-0.42;-1.39;-325.72;-71.63;-61.00;1.05;21.90;21.06;-68.20 
10.521;0.37;-1.00;-0.06;0.07;-2.85;-3.41;-324.73;-71.63;-60.00;1.07;21.95;21.13;-68.15 
10.551;0.39;-0.98;-0.06;0.83;-0.97;-3.69;-324.73;-74.50;-60.00;1.06;22.06;21.26;-68.04 
10.581;0.39;-0.96;-0.03;1.60;1.95;-3.97;-321.76;-72.59;-59.00;1.04;22.20;21.40;-67.90 
10.610;0.41;-0.94;-0.03;2.16;0.70;-3.55;-324.73;-74.50;-59.00;1.03;22.33;21.52;-67.75 
10.640;0.42;-0.96;-0.03;2.23;1.67;-2.85;-321.76;-77.36;-62.00;1.05;22.47;21.66;-67.61 
10.671;0.39;-0.94;0.00;1.46;2.99;-1.60;-321.76;-79.27;-60.00;1.02;22.57;21.74;-67.49 
10.701;0.42;-0.95;0.00;1.25;3.90;0.35;-320.77;-77.36;-61.00;1.04;22.64;21.80;-67.42 
10.731;0.40;-0.94;0.00;0.90;3.90;1.67;-326.71;-74.50;-60.00;1.02;22.64;21.79;-67.41 
10.761;0.38;-0.91;0.01;0.00;2.23;1.18;-326.71;-75.45;-62.00;0.99;22.62;21.76;-67.42 
10.791;0.41;-0.98;-0.02;-0.70;0.35;1.11;-327.70;-74.50;-62.00;1.06;22.58;21.73;-67.46 
10.821;0.40;-0.99;-0.03;-0.49;-1.46;1.88;-323.74;-75.45;-60.00;1.07;22.55;21.72;-67.49 
10.851;0.37;-0.97;-0.05;0.63;-1.88;2.37;-320.77;-74.50;-63.00;1.04;22.49;21.67;-67.55 
10.880;0.39;-1.00;-0.03;1.95;0.97;1.53;-323.74;-74.50;-60.00;1.07;22.40;21.60;-67.63 
10.910;0.39;-0.96;0.00;2.43;3.27;0.90;-322.75;-77.36;-57.00;1.04;22.38;21.58;-67.63 
10.940;0.38;-0.96;0.01;2.02;3.62;0.49;-324.73;-73.54;-63.00;1.03;22.37;21.56;-67.63 
10.970;0.37;-0.98;0.02;1.18;2.57;-0.56;-319.78;-75.45;-63.00;1.05;22.39;21.56;-67.60 
11.000;0.38;-0.95;0.00;-0.21;2.50;-0.63;-320.77;-73.54;-62.00;1.02;22.42;21.59;-67.56 
11.030;0.42;-0.94;-0.05;-0.56;2.78;0.35;-320.77;-72.59;-60.00;1.03;22.44;21.60;-67.53 
11.061;0.39;-0.94;-0.05;-0.70;4.52;1.88;-318.79;-72.59;-61.00;1.02;22.45;21.60;-67.52 
11.091;0.42;-0.92;0.00;-0.49;7.93;2.78;-317.80;-72.59;-58.00;1.01;22.41;21.54;-67.57 
11.120;0.41;-0.95;-0.06;0.56;9.88;4.03;-320.77;-71.63;-59.00;1.04;22.35;21.46;-67.64 
11.150;0.38;-0.97;-0.06;3.83;10.30;5.22;-321.76;-68.77;-58.00;1.04;22.25;21.33;-67.74 
11.181;0.37;-0.98;-0.06;5.91;14.61;7.10;-325.72;-67.81;-60.00;1.05;22.12;21.14;-67.86 
11.211;0.37;-1.00;-0.03;7.79;18.85;8.35;-320.77;-66.86;-64.00;1.07;21.91;20.85;-68.05 
11.241;0.35;-0.99;0.00;6.19;25.53;5.57;-315.82;-65.90;-61.00;1.05;21.71;20.54;-68.22 
11.271;0.31;-0.98;0.02;3.41;33.11;-0.90;-319.78;-64.95;-62.00;1.03;21.70;20.35;-68.23 
11.301;0.34;-0.98;0.06;2.57;34.78;-5.63;-317.80;-61.12;-59.00;1.04;21.83;20.27;-68.15 
11.331;0.36;-0.95;0.11;4.17;26.43;-2.02;-318.79;-59.21;-60.00;1.02;22.03;20.26;-67.99 
11.361;0.37;-0.98;0.13;3.97;11.55;1.25;-316.81;-62.08;-61.00;1.06;22.09;20.17;-67.93 
11.391;0.32;-0.99;0.11;3.20;3.27;0.63;-318.79;-57.30;-64.00;1.05;22.04;20.06;-67.94 
11.421;0.35;-0.98;0.10;-0.63;2.43;-3.62;-318.79;-57.30;-66.00;1.05;22.06;20.07;-67.91 
11.450;0.38;-0.94;0.10;-2.85;1.60;-4.45;-320.77;-62.08;-64.00;1.02;22.21;20.21;-67.78 
11.481;0.38;-0.92;0.07;-4.17;-6.05;0.21;-319.78;-63.03;-57.00;1.00;22.28;20.32;-67.74 
11.511;0.40;-0.96;0.02;-4.03;-10.02;3.06;-320.77;-63.99;-60.00;1.04;22.20;20.34;-67.83 
11.541;0.38;-0.92;0.00;-3.97;-7.23;4.10;-321.76;-60.17;-57.00;1.00;22.06;20.29;-67.95 
11.571;0.37;-0.97;0.00;-3.83;-3.20;3.76;-320.77;-63.03;-59.00;1.04;21.92;20.21;-68.08 
11.601;0.36;-0.95;0.00;-3.13;-2.85;5.70;-319.78;-58.26;-64.00;1.02;21.75;20.10;-68.25 
11.631;0.35;-0.97;0.04;-2.99;-3.83;5.70;-319.78;-56.35;-62.00;1.03;21.53;19.94;-68.47 
11.661;0.32;-0.99;0.01;-3.06;-4.10;2.85;-317.80;-57.30;-58.00;1.04;21.36;19.82;-68.64 
11.691;0.33;-0.98;-0.03;-2.30;-5.15;0.63;-322.75;-56.35;-60.00;1.03;21.27;19.78;-68.71 
11.721;0.34;-1.01;0.03;-1.74;-4.45;-0.14;-317.80;-56.35;-59.00;1.07;21.25;19.79;-68.73 
11.751;0.34;-0.99;-0.03;-0.70;-1.46;-1.32;-321.76;-59.21;-60.00;1.05;21.22;19.82;-68.76 
11.782;0.34;-0.99;0.02;0.14;3.83;-2.92;-317.80;-60.17;-59.00;1.05;21.28;19.88;-68.69 
11.812;0.39;-1.00;0.02;-0.14;3.97;-3.48;-318.79;-62.08;-59.00;1.07;21.40;19.97;-68.57 
11.842;0.38;-0.98;0.00;0.21;1.67;-3.13;-316.81;-56.35;-58.00;1.05;21.51;20.07;-68.46 
11.872;0.38;-0.96;0.02;0.21;1.25;-2.30;-320.77;-61.12;-58.00;1.03;21.58;20.15;-68.39 
11.902;0.38;-0.98;0.00;0.21;2.57;-2.37;-319.78;-57.30;-55.00;1.05;21.67;20.23;-68.30 
11.931;0.37;-0.95;0.00;-0.07;2.64;-1.81;-318.79;-62.08;-58.00;1.02;21.74;20.30;-68.24 
11.961;0.36;-0.96;0.02;0.14;2.02;-0.90;-318.79;-60.17;-57.00;1.03;21.78;20.34;-68.20 
11.992;0.36;-0.96;0.04;0.07;0.90;-0.63;-320.77;-64.95;-57.00;1.03;21.81;20.37;-68.15 
12.022;0.37;-0.96;0.04;-0.42;0.21;-0.49;-315.82;-62.08;-61.00;1.03;21.81;20.39;-68.16 
12.052;0.36;-0.99;0.00;-0.77;0.00;0.07;-321.76;-60.17;-59.00;1.05;21.82;20.40;-68.14 
12.083;0.38;-0.96;0.00;-1.18;-0.56;0.28;-321.76;-60.17;-60.00;1.03;21.80;20.40;-68.16 
12.113;0.36;-0.97;0.01;-0.97;-0.28;0.77;-316.81;-63.99;-60.00;1.03;21.78;20.39;-68.18 
12.143;0.36;-0.97;0.05;-1.11;-0.14;0.77;-320.77;-61.12;-56.00;1.04;21.75;20.38;-68.20 
12.173;0.36;-0.98;0.00;-0.97;-0.21;0.49;-320.77;-55.39;-58.00;1.04;21.71;20.36;-68.24 
12.203;0.35;-0.96;0.00;-0.63;0.21;0.42;-317.80;-62.08;-56.00;1.02;21.69;20.35;-68.25 
12.233;0.37;-0.95;0.00;-0.35;1.25;0.28;-321.76;-60.17;-59.00;1.02;21.66;20.34;-68.28 
12.263;0.34;-0.98;0.00;0.07;1.67;-0.35;-319.78;-61.12;-59.00;1.04;21.64;20.33;-68.31 
12.293;0.38;-0.97;0.02;-0.07;1.60;-0.42;-321.76;-58.26;-58.00;1.04;21.65;20.33;-68.28 
12.323;0.36;-0.98;0.01;0.14;0.70;0.14;-317.80;-62.08;-56.00;1.04;21.64;20.33;-68.29 
12.353;0.36;-0.98;0.03;-0.21;0.28;-0.49;-319.78;-58.26;-60.00;1.04;21.64;20.34;-68.29 
12.383;0.38;-0.96;0.02;-0.28;0.90;-0.28;-318.79;-63.03;-60.00;1.03;21.65;20.35;-68.27 
12.413;0.36;-0.98;0.00;-0.28;0.77;-0.42;-319.78;-58.26;-59.00;1.04;21.67;20.36;-68.23 
12.443;0.37;-0.98;0.03;-0.77;0.28;-0.63;-317.80;-60.17;-58.00;1.05;21.66;20.38;-68.24 
12.472;0.36;-0.98;0.00;-0.56;0.21;0.07;-317.80;-60.17;-58.00;1.04;21.67;20.38;-68.23 
12.503;0.35;-0.95;0.03;-0.63;1.04;-0.07;-317.80;-61.12;-58.00;1.01;21.66;20.39;-68.23 
12.532;0.35;-0.97;0.02;-0.56;0.56;-0.42;-319.78;-58.26;-60.00;1.03;21.66;20.39;-68.22 
12.562;0.36;-0.95;0.01;-0.49;0.56;0.00;-319.78;-63.03;-57.00;1.02;21.64;20.39;-68.24 
12.593;0.38;-0.95;0.00;-0.63;0.42;0.07;-318.79;-58.26;-60.00;1.02;21.64;20.39;-68.24 
12.623;0.37;-0.98;0.00;-0.28;0.00;-0.14;-320.77;-58.26;-59.00;1.05;21.64;20.40;-68.23 
12.653;0.36;-0.96;0.02;-0.28;0.83;-0.77;-322.75;-60.17;-55.00;1.03;21.63;20.40;-68.22 
12.683;0.35;-0.97;0.02;-0.21;1.32;0.00;-320.77;-61.12;-62.00;1.03;21.64;20.42;-68.22 
12.713;0.34;-0.97;0.02;-0.49;-0.14;-0.14;-318.79;-59.21;-57.00;1.03;21.64;20.43;-68.22 
12.743;0.36;-0.97;0.00;-0.28;-0.21;0.00;-319.78;-59.21;-60.00;1.03;21.62;20.43;-68.24 
12.772;0.38;-0.98;0.01;-0.63;0.83;-0.28;-316.81;-58.26;-59.00;1.05;21.62;20.45;-68.24 
12.803;0.34;-0.98;0.04;0.14;1.95;-1.32;-319.78;-63.99;-56.00;1.04;21.64;20.46;-68.21 
12.833;0.35;-0.99;0.02;-0.28;2.09;-2.57;-317.80;-61.12;-56.00;1.05;21.67;20.49;-68.18 
12.863;0.34;-0.96;0.03;-0.42;0.83;-4.73;-319.78;-63.03;-57.00;1.02;21.74;20.56;-68.11 
12.894;0.36;-0.98;0.04;-1.25;-1.11;-5.43;-319.78;-63.99;-60.00;1.04;21.84;20.68;-68.02 
12.924;0.36;-1.00;0.02;-3.20;-3.34;-5.36;-318.79;-59.21;-57.00;1.06;21.99;20.86;-67.88 
12.954;0.34;-0.98;0.04;-5.57;-2.30;-7.30;-320.77;-66.86;-56.00;1.04;22.13;21.03;-67.77 
12.984;0.38;-0.95;0.05;-5.50;-3.90;-10.02;-325.72;-66.86;-56.00;1.02;22.34;21.29;-67.59 
13.013;0.38;-0.97;0.01;-3.76;-10.23;-7.03;-321.76;-67.81;-57.00;1.04;22.58;21.59;-67.37 
