Time(s) acc_x(g) acc_y(g) acc_z(g) gyr_x(°/s) gyr_y(°/s) gyr_z(°/s) mag_x(G) mag_y(G) mag_z(G) SVM(g) yaw(°) pitch(°) roll(°)
0.000;-0.12;0.14;0.89;-0.21;0.14;0.42;43.52;-107.17;-346.00;0.91;-135.36;-1.20;1.59 
0.029;-0.10;0.13;0.89;-0.56;0.07;0.63;41.55;-110.01;-345.00;0.90;-135.52;-1.21;1.56 
0.059;-0.09;0.14;0.86;-0.42;0.14;0.07;39.57;-107.17;-346.00;0.88;-135.65;-1.21;1.53 
0.089;-0.07;0.14;0.87;-0.35;0.28;0.07;41.55;-107.17;-345.00;0.88;-135.80;-1.21;1.53 
0.119;-0.07;0.12;0.87;-0.07;0.00;0.00;43.52;-106.22;-346.00;0.88;-135.94;-1.21;1.52 
0.149;-0.10;0.16;0.90;-0.35;0.28;-0.14;39.57;-106.22;-346.00;0.92;-136.07;-1.23;1.52 
0.179;-0.10;0.14;0.88;-0.35;0.00;0.07;40.56;-109.06;-345.00;0.90;-136.21;-1.25;1.53 
0.209;-0.10;0.14;0.89;-0.21;0.21;0.07;39.57;-107.17;-344.00;0.91;-136.35;-1.27;1.51 
0.239;-0.09;0.15;0.88;-0.14;0.07;0.28;41.55;-107.17;-344.00;0.90;-136.49;-1.27;1.50 
0.269;-0.09;0.12;0.89;0.07;0.00;-0.07;41.55;-108.11;-345.00;0.90;-136.63;-1.27;1.47 
0.299;-0.09;0.15;0.85;-0.28;-0.07;0.00;38.58;-109.06;-343.00;0.87;-136.77;-1.28;1.48 
0.329;-0.08;0.13;0.90;-0.21;0.00;0.14;41.55;-106.22;-350.00;0.91;-136.91;-1.29;1.48 
0.359;-0.08;0.13;0.86;-0.07;0.07;0.21;36.60;-109.06;-345.00;0.87;-137.06;-1.29;1.48 
0.389;-0.10;0.14;0.90;-0.21;0.07;-0.14;40.56;-111.91;-347.00;0.92;-137.19;-1.32;1.48 
0.418;-0.08;0.14;0.88;-0.21;-0.07;0.14;38.58;-106.22;-346.00;0.89;-137.33;-1.34;1.47 
0.448;-0.10;0.14;0.90;0.00;-0.28;0.07;39.57;-108.11;-344.00;0.92;-137.47;-1.30;1.48 
0.478;-0.10;0.13;0.90;-0.42;-0.07;0.00;42.53;-108.11;-345.00;0.91;-137.61;-1.29;1.46 
0.509;-0.10;0.14;0.88;-0.21;0.07;0.07;38.58;-108.11;-345.00;0.90;-137.75;-1.31;1.47 
0.538;-0.11;0.14;0.90;0.07;-0.35;-0.21;41.55;-110.96;-345.00;0.92;-137.88;-1.33;1.49 
0.568;-0.10;0.14;0.90;-0.14;-0.28;-0.14;41.55;-106.22;-348.00;0.92;-138.01;-1.33;1.50 
0.598;-0.07;0.14;0.91;-0.14;-0.21;0.00;41.55;-107.17;-346.00;0.92;-138.14;-1.33;1.50 
0.628;-0.09;0.15;0.90;-0.21;0.21;0.42;41.55;-110.01;-343.00;0.92;-138.28;-1.34;1.51 
0.657;-0.08;0.14;0.88;-0.14;-0.07;0.21;42.53;-108.11;-347.00;0.89;-138.43;-1.37;1.52 
0.687;-0.08;0.13;0.89;-0.14;-0.63;0.00;39.57;-108.11;-347.00;0.90;-138.56;-1.37;1.52 
0.717;-0.09;0.14;0.90;-0.21;0.21;0.21;41.55;-110.96;-346.00;0.92;-138.71;-1.39;1.55 
0.747;-0.09;0.13;0.89;-0.28;0.21;0.00;41.55;-108.11;-346.00;0.90;-138.84;-1.39;1.53 
0.777;-0.08;0.11;0.93;0.00;-0.70;-0.07;38.58;-106.22;-348.00;0.94;-138.98;-1.40;1.52 
0.807;-0.11;0.13;0.87;0.00;-0.14;0.14;37.59;-110.96;-344.00;0.89;-139.13;-1.40;1.53 
0.837;-0.10;0.14;0.86;-0.14;-0.42;0.56;38.58;-113.81;-348.00;0.88;-139.29;-1.37;1.53 
0.867;-0.07;0.13;0.89;-0.42;-0.21;0.21;42.53;-110.96;-347.00;0.90;-139.44;-1.36;1.52 
0.897;-0.08;0.14;0.90;0.07;0.00;0.21;41.55;-109.06;-348.00;0.91;-139.58;-1.36;1.53 
0.927;-0.09;0.13;0.91;-0.21;0.00;0.00;42.53;-111.91;-349.00;0.92;-139.72;-1.38;1.52 
0.956;-0.09;0.14;0.91;-0.35;-0.70;0.21;39.57;-110.96;-347.00;0.93;-139.86;-1.38;1.52 
0.986;-0.07;0.14;0.92;-0.49;-1.53;-0.77;43.52;-112.86;-345.00;0.93;-140.00;-1.35;1.52 
1.017;-0.08;0.14;0.87;-0.28;-1.11;-0.70;44.51;-111.91;-345.00;0.88;-140.12;-1.32;1.51 
1.047;-0.08;0.14;0.86;-0.28;-0.28;-0.21;43.52;-110.96;-347.00;0.87;-140.26;-1.32;1.51 
1.077;-0.12;0.13;0.90;-0.56;-0.21;-0.70;41.55;-110.96;-346.00;0.92;-140.38;-1.34;1.54 
1.108;-0.06;0.17;0.86;0.07;0.42;-0.07;39.57;-112.86;-347.00;0.88;-140.51;-1.39;1.54 
1.137;-0.07;0.13;0.89;-0.14;0.77;0.70;39.57;-110.96;-346.00;0.90;-140.66;-1.44;1.55 
1.167;-0.07;0.14;0.88;-0.42;-0.70;0.28;40.56;-110.96;-345.00;0.89;-140.81;-1.45;1.55 
1.197;-0.09;0.13;0.83;-0.42;0.70;1.25;38.58;-113.81;-346.00;0.84;-140.98;-1.45;1.56 
1.227;-0.08;0.14;0.82;0.07;2.02;1.60;42.53;-111.91;-346.00;0.84;-141.16;-1.48;1.56 
1.257;-0.09;0.13;0.89;0.35;0.97;2.16;43.52;-109.06;-348.00;0.90;-141.36;-1.55;1.59 
1.287;-0.10;0.19;0.88;0.97;1.25;4.59;41.55;-109.06;-347.00;0.91;-141.60;-1.60;1.64 
1.317;-0.14;0.21;0.87;0.83;3.27;6.33;42.53;-110.01;-352.00;0.91;-141.89;-1.68;1.73 
1.347;-0.13;0.20;0.87;0.00;1.81;7.72;42.53;-110.01;-351.00;0.90;-142.25;-1.81;1.82 
1.377;-0.11;0.17;0.88;-0.35;2.02;7.44;45.50;-110.96;-344.00;0.90;-142.61;-1.91;1.87 
1.408;-0.15;0.20;0.90;-0.49;2.71;7.03;45.50;-107.17;-346.00;0.93;-142.97;-2.02;1.93 
1.438;-0.13;0.22;0.88;-2.43;-0.77;7.79;45.50;-108.11;-347.00;0.92;-143.34;-2.11;1.99 
1.468;-0.10;0.20;0.86;-5.22;-4.59;6.82;50.45;-109.06;-349.00;0.89;-143.70;-2.06;1.98 
1.498;-0.09;0.21;0.87;-7.79;-1.25;3.90;47.48;-109.06;-344.00;0.90;-144.01;-1.93;1.87 
1.529;-0.12;0.22;0.92;-10.57;2.16;3.20;43.52;-109.06;-343.00;0.95;-144.26;-1.97;1.71 
1.559;-0.19;0.26;0.97;-13.77;-3.13;5.08;42.53;-110.01;-342.00;1.02;-144.49;-2.04;1.48 
1.589;-0.18;0.20;0.91;-18.37;-12.94;9.46;39.57;-111.91;-348.00;0.95;-144.83;-1.93;1.14 
1.620;-0.12;0.16;0.80;-20.45;-21.22;7.10;37.59;-112.86;-346.00;0.82;-145.22;-1.47;0.63 
1.650;-0.07;0.21;0.76;-26.71;-19.13;0.90;31.65;-116.65;-344.00;0.79;-145.48;-0.94;0.03 
1.680;-0.06;0.23;0.75;-29.15;-9.81;-3.06;27.70;-121.39;-343.00;0.79;-145.58;-0.46;-0.66 
1.710;-0.15;0.30;0.77;-30.26;-0.35;-9.39;19.78;-120.44;-347.00;0.84;-145.54;-0.36;-1.33 
1.740;-0.18;0.27;0.77;-31.10;-1.25;-13.36;8.90;-121.39;-343.00;0.84;-145.33;-0.48;-2.05 
1.770;-0.14;0.34;0.86;-33.18;-5.36;-7.86;7.91;-122.34;-340.00;0.94;-145.15;-0.48;-2.80 
1.800;-0.18;0.38;0.77;-30.96;-13.22;-1.67;-3.96;-125.19;-338.00;0.88;-145.16;-0.33;-3.38 
1.831;-0.12;0.26;0.66;-27.69;-12.10;5.29;-10.88;-127.08;-337.00;0.72;-145.38;-0.08;-4.02 
1.861;-0.13;0.38;0.62;-31.51;2.43;16.28;-11.87;-129.93;-336.00;0.74;-145.84;-0.10;-4.58 
1.891;-0.08;0.39;0.66;-31.37;5.63;24.49;-18.79;-126.13;-334.00;0.77;-146.65;-0.41;-5.13 
1.921;-0.10;0.29;0.60;-31.37;-11.41;38.75;-19.78;-125.19;-327.00;0.67;-147.74;-0.54;-5.71 
1.951;-0.05;0.17;0.30;-34.37;-15.58;53.70;-20.77;-125.19;-328.00;0.35;-149.37;-0.27;-6.33 
1.981;0.00;0.14;0.30;-37.50;20.80;51.27;-17.81;-122.34;-324.00;0.33;-151.18;-0.47;-6.89 
2.011;0.01;-0.05;0.59;-38.68;41.11;23.37;-21.76;-113.81;-315.00;0.59;-152.49;-1.58;-7.94 
2.042;-0.21;-0.02;0.74;-20.38;5.63;26.57;-25.72;-105.27;-309.00;0.77;-153.42;-2.79;-8.81 
2.072;0.01;0.10;0.40;-17.46;-21.22;31.30;-23.74;-103.37;-303.00;0.41;-154.57;-2.65;-9.39 
2.102;-0.06;-0.03;0.31;-20.45;-10.16;17.11;-28.69;-106.22;-307.00;0.32;-155.47;-2.33;-9.90 
2.132;-0.10;-0.23;0.41;-34.92;-9.74;-10.78;-28.69;-104.32;-300.00;0.48;-155.93;-2.27;-10.90 
2.161;-0.03;-0.17;0.18;-30.68;-41.32;-22.12;-37.59;-107.17;-301.00;0.25;-155.61;-1.57;-12.28 
2.190;0.18;0.09;-0.09;-45.15;-31.30;-17.18;-42.53;-111.91;-302.00;0.22;-155.29;0.22;-13.65 
2.220;0.09;0.42;-0.09;-73.88;-28.17;3.83;-59.35;-120.44;-297.00;0.44;-155.18;1.40;-14.91 
2.250;-0.12;-0.06;0.05;-104.90;18.64;44.03;-71.22;-118.55;-293.00;0.14;-156.31;1.61;-17.45 
2.280;-0.74;-0.87;0.72;-115.41;62.12;28.45;-81.11;-110.01;-278.00;1.35;-158.14;-0.49;-21.30 
2.310;-1.28;-1.38;1.77;-115.48;53.50;-36.52;-98.92;-101.48;-264.00;2.58;-159.33;-2.25;-25.00 
2.340;-0.55;-1.27;3.07;-147.20;-144.77;-184.14;-150.35;-109.06;-246.00;3.37;-156.97;-1.66;-28.76 
2.370;0.06;0.19;0.52;-200.49;-322.85;-162.92;-198.82;-173.55;-249.00;0.56;-151.92;9.58;-33.31 
2.400;1.34;-2.91;1.77;-221.84;58.30;-191.79;-240.37;-219.07;-237.00;3.66;-148.87;16.21;-38.56 
2.431;-1.14;-1.55;3.66;-228.87;-203.69;-157.43;-281.92;-240.89;-196.00;4.13;-143.30;18.05;-42.49 
2.461;0.57;1.07;-0.16;-257.67;-452.73;-28.94;-321.48;-336.67;-149.00;1.22;-140.22;30.55;-44.31 
2.490;0.98;-2.55;-0.70;-138.57;-252.80;-10.92;-336.32;-362.28;-114.00;2.82;-140.16;36.46;-47.13 
2.520;-0.51;-1.73;-0.45;-180.17;-308.59;-106.99;-341.27;-386.94;-79.00;1.86;-139.62;39.72;-48.52 
2.550;2.30;-0.06;-1.48;-63.30;-234.02;-61.01;-343.24;-421.08;-41.00;2.74;-135.94;44.21;-45.79 
2.580;0.50;-0.77;-1.39;-33.67;-33.53;46.96;-342.25;-430.56;-19.00;1.67;-135.98;43.59;-46.10 
2.610;0.72;-0.86;-0.82;-29.77;44.80;-6.75;-342.25;-422.98;-12.00;1.39;-136.45;42.99;-46.51 
2.641;0.57;-0.40;-0.30;-35.06;28.38;-48.28;-339.29;-424.87;-7.00;0.76;-135.72;43.86;-45.61 
2.671;0.35;-0.24;-0.21;-24.28;-5.29;-16.70;-338.30;-431.51;0.00;0.47;-134.47;45.14;-44.24 
2.701;0.51;-0.47;-0.34;-13.50;-25.74;-29.22;-338.30;-436.25;5.00;0.77;-133.80;45.70;-43.50 
2.731;0.75;-0.42;-0.47;-5.70;-28.17;-25.74;-334.34;-446.69;8.00;0.98;-132.99;46.26;-42.64 
2.761;0.72;-0.62;-0.53;-2.92;-17.04;-27.69;-332.36;-449.53;10.00;1.09;-132.23;46.80;-41.87 
2.791;0.67;-0.78;-0.54;8.07;-5.91;-41.25;-332.36;-452.38;9.00;1.16;-131.42;47.46;-41.08 
2.821;0.99;-0.67;-0.51;11.69;6.68;-44.80;-330.38;-462.81;11.00;1.30;-130.33;48.50;-40.05 
2.852;1.14;-0.32;-0.50;19.06;20.66;-2.37;-330.38;-471.34;6.00;1.29;-129.53;49.42;-39.31 
2.882;0.91;-0.59;-0.38;9.95;42.57;-0.21;-324.45;-467.55;3.00;1.15;-129.47;49.69;-39.30 
2.912;1.22;-0.42;-0.25;13.77;76.59;14.12;-326.43;-467.55;-5.00;1.31;-129.70;49.81;-39.50 
2.943;0.86;-0.55;0.00;15.51;61.63;16.77;-330.38;-464.70;-15.00;1.02;-130.27;49.63;-40.07 
2.973;0.66;-0.38;-0.03;24.77;27.76;16.49;-330.38;-460.91;-15.00;0.76;-130.88;49.18;-40.71 
3.003;0.68;-0.49;-0.17;22.89;10.85;23.51;-330.38;-455.22;-24.00;0.86;-131.47;48.63;-41.33 
3.033;0.75;-0.43;-0.22;17.88;24.00;26.64;-332.36;-450.48;-34.00;0.89;-132.23;47.89;-42.09 
3.063;1.07;-0.64;-0.22;30.19;45.15;34.64;-334.34;-443.84;-41.00;1.27;-133.08;47.06;-42.94 
3.092;1.21;-0.69;-0.06;37.63;65.32;53.29;-335.33;-431.51;-47.00;1.39;-134.25;45.86;-44.07 
3.122;0.78;-0.40;0.05;34.23;54.33;71.44;-337.31;-420.13;-56.00;0.88;-135.86;44.13;-45.60 
3.153;0.68;-0.59;0.10;43.90;46.75;77.08;-341.27;-404.96;-67.00;0.91;-138.06;41.74;-47.66 
3.183;0.49;-0.95;0.20;41.53;53.29;53.84;-339.29;-387.89;-76.00;1.09;-140.32;39.22;-49.65 
3.213;0.46;-0.78;0.33;14.47;60.59;39.37;-341.27;-369.87;-87.00;0.96;-141.94;37.23;-51.00 
3.243;0.57;-0.86;0.42;-2.43;40.90;38.05;-340.28;-365.12;-88.00;1.11;-143.11;35.64;-52.10 
3.273;0.38;-1.03;0.38;7.93;6.47;50.71;-341.27;-351.85;-87.00;1.16;-144.71;33.85;-53.57 
3.303;0.30;-1.11;0.30;6.82;3.62;21.84;-343.24;-349.00;-90.00;1.19;-146.20;32.34;-54.89 
3.333;0.42;-1.04;0.30;5.70;-1.25;0.07;-338.30;-341.42;-91.00;1.16;-146.83;31.69;-55.43 
3.364;0.78;-0.70;0.26;1.67;-10.71;-0.21;-340.28;-342.36;-94.00;1.08;-146.84;31.71;-55.38 
3.394;0.65;-0.72;0.18;-8.90;-4.03;12.59;-340.28;-339.52;-94.00;0.99;-146.97;31.68;-55.53 
3.424;0.50;-0.89;0.11;-11.34;2.02;4.80;-340.28;-336.67;-91.00;1.03;-147.37;31.32;-56.01 
3.455;0.56;-0.82;0.14;-8.35;0.14;0.70;-341.27;-337.62;-90.00;1.00;-147.56;31.15;-56.32 
3.485;0.59;-0.83;0.19;-6.47;-4.31;0.00;-340.28;-338.57;-85.00;1.04;-147.64;31.11;-56.47 
3.515;0.58;-0.81;0.15;-5.84;-7.65;-1.04;-341.27;-339.52;-87.00;1.01;-147.72;31.09;-56.60 
3.545;0.58;-0.81;0.07;-4.94;-7.86;-1.11;-339.29;-338.57;-86.00;1.00;-147.75;31.15;-56.68 
3.575;0.54;-0.82;0.06;-2.37;-3.41;-2.92;-342.25;-339.52;-85.00;0.98;-147.77;31.20;-56.75 
3.605;0.62;-0.81;0.06;-0.07;1.32;-4.59;-343.24;-337.62;-86.00;1.02;-147.72;31.27;-56.72 
3.635;0.62;-0.79;0.13;0.35;2.43;-2.50;-341.27;-340.47;-85.00;1.01;-147.62;31.38;-56.64 
3.666;0.58;-0.79;0.16;-0.56;1.04;-0.63;-345.22;-342.36;-84.00;0.99;-147.60;31.39;-56.63 
3.696;0.57;-0.82;0.12;0.07;-2.02;-0.07;-344.23;-339.52;-83.00;1.01;-147.63;31.38;-56.67 
3.726;0.59;-0.82;0.12;0.21;-2.85;-1.25;-342.25;-343.31;-82.00;1.02;-147.65;31.38;-56.70 
3.756;0.62;-0.82;0.14;0.35;-1.32;-1.53;-342.25;-339.52;-84.00;1.04;-147.65;31.41;-56.70 
3.786;0.61;-0.81;0.11;0.49;0.07;-0.35;-344.23;-344.26;-87.00;1.02;-147.66;31.41;-56.71 
3.816;0.63;-0.81;0.16;0.21;0.07;-0.35;-343.24;-344.26;-83.00;1.04;-147.69;31.39;-56.74 
3.846;0.58;-0.82;0.15;-0.07;-1.60;-1.46;-340.28;-342.36;-84.00;1.02;-147.69;31.39;-56.74 
3.877;0.59;-0.81;0.14;-0.42;-2.43;-1.46;-342.25;-346.16;-85.00;1.01;-147.67;31.43;-56.73 
3.907;0.60;-0.80;0.14;-0.14;-2.57;-0.77;-346.21;-341.42;-83.00;1.01;-147.69;31.44;-56.75 
3.937;0.62;-0.81;0.14;-0.35;-2.92;-0.90;-341.27;-342.36;-84.00;1.03;-147.69;31.47;-56.75 
3.968;0.61;-0.77;0.10;0.21;-1.04;-0.49;-340.28;-342.36;-83.00;0.99;-147.69;31.49;-56.76 
3.998;0.61;-0.82;0.09;0.42;1.04;-0.07;-344.23;-343.31;-84.00;1.03;-147.72;31.47;-56.80 
4.028;0.61;-0.80;0.14;0.42;0.97;0.14;-341.27;-347.11;-86.00;1.02;-147.74;31.45;-56.82 
4.058;0.58;-0.82;0.14;0.00;0.07;-0.28;-339.29;-342.36;-87.00;1.01;-147.77;31.43;-56.84 
4.089;0.58;-0.81;0.11;0.14;-0.28;-0.97;-345.22;-346.16;-84.00;1.00;-147.79;31.42;-56.87 
4.119;0.62;-0.80;0.13;0.07;0.00;-1.11;-341.27;-345.21;-82.00;1.02;-147.78;31.43;-56.86 
4.149;0.62;-0.78;0.16;0.14;0.28;-0.56;-343.24;-344.26;-86.00;1.01;-147.78;31.44;-56.86 
4.180;0.59;-0.81;0.13;-0.35;0.07;-1.04;-340.28;-345.21;-84.00;1.01;-147.77;31.45;-56.85 
4.210;0.61;-0.82;0.13;-0.28;-0.70;-1.25;-344.23;-346.16;-87.00;1.03;-147.78;31.45;-56.87 
4.240;0.62;-0.82;0.16;0.21;-1.46;-1.32;-342.25;-348.05;-82.00;1.04;-147.76;31.48;-56.85 
4.270;0.62;-0.80;0.12;0.07;-0.77;-1.04;-344.23;-343.31;-83.00;1.02;-147.74;31.51;-56.83 
4.300;0.60;-0.80;0.13;0.00;-0.21;-0.28;-342.25;-347.11;-84.00;1.01;-147.73;31.53;-56.83 
4.330;0.58;-0.79;0.17;-0.14;-0.35;-0.42;-345.22;-344.26;-86.00;0.99;-147.74;31.53;-56.84 
4.360;0.62;-0.80;0.17;-0.28;-0.49;-0.63;-341.27;-347.11;-85.00;1.03;-147.77;31.51;-56.87 
4.391;0.55;-0.80;0.16;0.07;-0.77;-0.83;-341.27;-344.26;-84.00;0.98;-147.77;31.52;-56.88 
4.421;0.59;-0.80;0.13;0.28;-0.63;-0.70;-342.25;-346.16;-86.00;1.00;-147.77;31.53;-56.88 
4.451;0.62;-0.79;0.14;0.35;-0.35;-0.07;-342.25;-345.21;-84.00;1.01;-147.76;31.55;-56.88 
4.481;0.60;-0.78;0.13;0.21;0.07;0.70;-343.24;-345.21;-84.00;0.99;-147.78;31.53;-56.90 
4.511;0.59;-0.79;0.14;0.07;-0.35;0.83;-340.28;-346.16;-83.00;1.00;-147.83;31.48;-56.95 
4.540;0.62;-0.81;0.10;0.07;-0.28;0.83;-341.27;-346.16;-88.00;1.02;-147.88;31.45;-56.98 
4.569;0.58;-0.81;0.10;0.14;0.28;0.70;-341.27;-348.05;-86.00;1.00;-147.91;31.42;-57.02 
4.599;0.61;-0.81;0.12;-0.07;0.97;0.00;-343.24;-346.16;-87.00;1.02;-147.95;31.39;-57.06 
4.629;0.62;-0.82;0.17;0.28;0.56;-0.07;-341.27;-345.21;-85.00;1.04;-147.97;31.36;-57.08 
4.659;0.62;-0.81;0.11;0.42;0.56;-0.77;-341.27;-344.26;-86.00;1.03;-147.99;31.34;-57.10 
4.690;0.62;-0.79;0.14;-0.07;0.28;-0.83;-341.27;-346.16;-87.00;1.01;-147.98;31.36;-57.09 
4.720;0.62;-0.82;0.14;-0.56;-0.21;-1.11;-343.24;-347.11;-87.00;1.04;-147.94;31.39;-57.06 
4.750;0.59;-0.80;0.13;-0.42;-0.49;-1.11;-341.27;-346.16;-87.00;1.00;-147.91;31.43;-57.03 
4.780;0.61;-0.80;0.11;-0.63;-0.97;-0.77;-341.27;-344.26;-85.00;1.01;-147.88;31.47;-57.02 
4.810;0.62;-0.81;0.12;-0.49;-0.07;-0.56;-339.29;-349.95;-84.00;1.03;-147.88;31.49;-57.02 
4.840;0.59;-0.79;0.11;-0.28;0.49;-0.77;-342.25;-345.21;-85.00;0.99;-147.87;31.50;-57.02 
4.870;0.61;-0.81;0.12;-0.35;0.83;-0.83;-341.27;-349.95;-85.00;1.02;-147.87;31.50;-57.03 
4.901;0.61;-0.79;0.14;-1.11;0.42;-1.32;-341.27;-347.11;-88.00;1.01;-147.84;31.53;-57.01 
4.931;0.59;-0.81;0.11;-0.83;-0.42;-1.46;-342.25;-348.05;-84.00;1.01;-147.82;31.56;-57.00 
4.961;0.59;-0.79;0.10;0.14;-1.25;-2.57;-342.25;-349.00;-85.00;0.99;-147.79;31.59;-56.98 
4.992;0.63;-0.79;0.11;1.74;-1.04;-0.77;-342.25;-348.05;-84.00;1.02;-147.72;31.68;-56.91 
5.022;0.66;-0.80;0.10;2.50;3.41;0.97;-344.23;-348.05;-86.00;1.04;-147.70;31.70;-56.87 
5.052;0.60;-0.78;0.13;1.81;5.08;2.02;-339.29;-349.95;-87.00;0.99;-147.74;31.64;-56.90 
5.082;0.59;-0.78;0.17;0.00;2.02;1.74;-340.28;-348.05;-86.00;0.99;-147.80;31.56;-56.95 
5.113;0.63;-0.79;0.14;-0.70;-0.49;1.74;-344.23;-347.11;-84.00;1.02;-147.84;31.52;-56.99 
5.143;0.61;-0.81;0.13;-0.28;-1.74;2.57;-344.23;-344.26;-86.00;1.02;-147.90;31.47;-57.05 
5.173;0.56;-0.82;0.13;-0.21;0.70;-0.56;-342.25;-347.11;-84.00;1.00;-147.98;31.40;-57.14 
5.204;0.61;-0.80;0.13;-0.35;1.25;-1.39;-342.25;-348.05;-84.00;1.01;-147.98;31.40;-57.15 
5.234;0.62;-0.81;0.13;-0.77;0.97;-1.18;-343.24;-349.95;-86.00;1.03;-147.93;31.45;-57.10 
5.264;0.62;-0.79;0.15;-0.56;0.28;-0.42;-343.24;-349.00;-84.00;1.02;-147.90;31.48;-57.08 
5.294;0.64;-0.82;0.11;-0.70;0.14;0.07;-343.24;-346.16;-85.00;1.05;-147.89;31.49;-57.07 
5.324;0.60;-0.81;0.11;0.28;-0.07;0.70;-346.21;-349.00;-84.00;1.01;-147.90;31.49;-57.08 
5.354;0.59;-0.79;0.12;0.42;0.63;0.35;-341.27;-346.16;-85.00;0.99;-147.93;31.46;-57.12 
5.384;0.62;-0.80;0.11;0.56;-0.14;-0.77;-343.24;-348.05;-88.00;1.02;-147.92;31.47;-57.10 
5.415;0.62;-0.78;0.13;0.49;-0.83;-0.56;-342.25;-347.11;-86.00;1.00;-147.89;31.50;-57.07 
5.445;0.61;-0.81;0.13;-0.28;-0.77;0.07;-340.28;-345.21;-86.00;1.02;-147.86;31.54;-57.03 
5.475;0.66;-0.78;0.13;-1.39;0.35;-0.21;-344.23;-348.05;-87.00;1.03;-147.84;31.56;-57.02 
5.504;0.62;-0.78;0.12;-2.57;2.23;0.00;-338.30;-347.11;-84.00;1.00;-147.81;31.59;-57.00 
5.533;0.53;-0.82;0.14;-1.74;2.23;-1.18;-341.27;-347.11;-84.00;0.99;-147.81;31.57;-57.03 
5.563;0.61;-0.80;0.14;0.00;-1.67;-2.30;-343.24;-346.16;-86.00;1.02;-147.79;31.59;-57.01 
5.592;0.64;-0.80;0.12;0.35;-3.76;-0.28;-341.27;-348.05;-84.00;1.03;-147.73;31.68;-56.94 
5.621;0.60;-0.82;0.10;0.21;0.14;-0.56;-341.27;-348.05;-81.00;1.02;-147.73;31.69;-56.95 
5.650;0.62;-0.78;0.11;0.14;3.90;-0.90;-342.25;-349.00;-83.00;1.00;-147.68;31.74;-56.91 
5.679;0.60;-0.74;0.14;-0.07;2.99;-0.83;-341.27;-349.95;-85.00;0.96;-147.62;31.78;-56.85 
5.708;0.65;-0.78;0.15;-0.77;0.42;-0.35;-343.24;-349.00;-84.00;1.03;-147.59;31.80;-56.81 
5.737;0.60;-0.81;0.14;-0.90;-1.60;0.77;-340.28;-349.00;-85.00;1.02;-147.58;31.81;-56.81 
5.766;0.62;-0.80;0.12;-0.28;-1.53;0.49;-342.25;-349.00;-85.00;1.02;-147.59;31.82;-56.82 
5.796;0.61;-0.82;0.10;0.28;1.04;0.28;-344.23;-347.11;-84.00;1.03;-147.62;31.80;-56.85 
5.825;0.61;-0.78;0.13;-0.14;2.78;0.14;-342.25;-347.11;-85.00;1.00;-147.61;31.81;-56.85 
5.854;0.62;-0.81;0.14;0.14;1.74;0.35;-343.24;-349.00;-84.00;1.03;-147.60;31.81;-56.84 
5.884;0.59;-0.79;0.12;-0.49;0.28;0.77;-343.24;-347.11;-84.00;0.99;-147.60;31.80;-56.84 
5.913;0.60;-0.79;0.11;-0.63;0.49;0.56;-342.25;-347.11;-84.00;1.00;-147.63;31.77;-56.87 
5.942;0.62;-0.80;0.16;-0.49;1.39;-0.21;-339.29;-349.00;-85.00;1.02;-147.64;31.76;-56.88 
5.972;0.61;-0.81;0.11;-0.14;1.53;0.35;-341.27;-347.11;-87.00;1.02;-147.64;31.76;-56.89 
6.001;0.62;-0.81;0.14;-0.07;0.70;0.21;-341.27;-348.05;-88.00;1.03;-147.64;31.76;-56.89 
6.030;0.59;-0.78;0.14;-0.35;-0.49;-0.35;-344.23;-347.11;-85.00;0.99;-147.62;31.77;-56.87 
6.060;0.62;-0.80;0.14;-0.42;-0.70;-0.21;-341.27;-349.00;-83.00;1.02;-147.61;31.80;-56.86 
6.090;0.62;-0.78;0.12;-0.63;-0.14;-0.14;-343.24;-348.05;-84.00;1.00;-147.59;31.81;-56.84 
6.120;0.61;-0.79;0.14;-0.70;0.21;-0.56;-341.27;-350.90;-85.00;1.01;-147.57;31.84;-56.83 
6.150;0.62;-0.80;0.13;-0.49;0.56;-0.70;-341.27;-348.05;-83.00;1.02;-147.54;31.87;-56.80 
6.181;0.63;-0.81;0.13;0.00;0.21;-0.35;-339.29;-349.00;-85.00;1.03;-147.51;31.90;-56.76 
6.210;0.62;-0.79;0.12;0.00;0.49;-0.28;-341.27;-349.95;-86.00;1.01;-147.48;31.93;-56.74 
6.240;0.62;-0.81;0.12;0.00;0.56;-0.49;-341.27;-349.00;-82.00;1.03;-147.45;31.96;-56.71 
6.271;0.59;-0.80;0.13;0.00;0.35;-0.49;-343.24;-350.90;-84.00;1.00;-147.42;31.99;-56.68 
6.301;0.62;-0.80;0.10;-0.14;0.07;-0.07;-343.24;-349.95;-86.00;1.02;-147.40;32.01;-56.66 
6.331;0.62;-0.79;0.13;-0.07;-0.07;0.14;-343.24;-349.95;-84.00;1.01;-147.39;32.02;-56.65 
6.361;0.64;-0.81;0.12;-0.07;0.35;0.28;-342.25;-346.16;-85.00;1.04;-147.38;32.03;-56.64 
6.391;0.62;-0.81;0.13;-0.35;0.70;0.14;-342.25;-348.05;-85.00;1.03;-147.37;32.05;-56.63 
6.421;0.62;-0.82;0.14;-0.49;0.28;0.14;-341.27;-347.11;-85.00;1.04;-147.36;32.06;-56.63 
6.451;0.62;-0.81;0.08;-0.14;-0.35;0.21;-341.27;-345.21;-82.00;1.02;-147.35;32.07;-56.62 
6.482;0.61;-0.82;0.12;-0.14;0.07;0.00;-348.19;-346.16;-86.00;1.03;-147.36;32.07;-56.63 
6.512;0.62;-0.79;0.09;0.00;0.49;-0.56;-339.29;-350.90;-83.00;1.01;-147.34;32.09;-56.61 
6.542;0.61;-0.81;0.10;0.14;0.83;-0.49;-344.23;-344.26;-86.00;1.02;-147.31;32.11;-56.59 
6.572;0.62;-0.82;0.13;0.07;0.49;-0.07;-340.28;-349.95;-81.00;1.04;-147.30;32.12;-56.58 
6.601;0.62;-0.81;0.12;0.00;-0.14;-0.07;-339.29;-349.95;-85.00;1.03;-147.28;32.15;-56.56 
6.631;0.60;-0.80;0.14;-0.21;0.28;0.00;-339.29;-347.11;-86.00;1.01;-147.27;32.17;-56.55 
6.661;0.62;-0.79;0.14;-0.28;1.04;0.00;-343.24;-349.95;-83.00;1.01;-147.24;32.20;-56.52 
6.692;0.61;-0.80;0.12;0.07;-0.07;0.42;-343.24;-349.95;-83.00;1.01;-147.23;32.20;-56.52 
6.722;0.64;-0.82;0.14;-0.28;-0.35;0.14;-342.25;-347.11;-81.00;1.05;-147.21;32.22;-56.50 
6.752;0.62;-0.81;0.12;0.00;0.49;0.14;-343.24;-350.90;-85.00;1.03;-147.21;32.22;-56.50 
6.783;0.62;-0.81;0.10;0.07;0.63;-0.14;-343.24;-349.00;-84.00;1.02;-147.20;32.23;-56.49 
6.813;0.62;-0.82;0.12;0.07;0.28;0.35;-344.23;-347.11;-85.00;1.03;-147.19;32.24;-56.47 
6.843;0.62;-0.80;0.14;-0.28;-0.14;0.14;-340.28;-348.05;-81.00;1.02;-147.17;32.27;-56.45 
6.873;0.61;-0.79;0.14;0.00;0.00;0.07;-342.25;-349.00;-84.00;1.01;-147.15;32.29;-56.44 
6.903;0.61;-0.79;0.12;-0.21;-0.35;-0.07;-342.25;-346.16;-82.00;1.01;-147.13;32.31;-56.41 
6.933;0.62;-0.81;0.15;-0.63;-0.35;-0.35;-340.28;-349.00;-83.00;1.03;-147.11;32.34;-56.39 
6.963;0.61;-0.80;0.12;-0.63;-0.49;-0.70;-341.27;-346.16;-86.00;1.01;-147.07;32.39;-56.35 
6.994;0.59;-0.82;0.11;-0.07;0.07;0.00;-341.27;-349.00;-83.00;1.02;-147.04;32.42;-56.33 
7.024;0.61;-0.80;0.10;0.14;0.49;0.28;-340.28;-349.95;-82.00;1.01;-147.02;32.44;-56.31 
7.053;0.61;-0.80;0.13;0.00;0.56;0.35;-343.24;-349.00;-85.00;1.01;-147.00;32.46;-56.29 
7.083;0.62;-0.79;0.12;0.07;0.83;0.14;-343.24;-348.05;-84.00;1.01;-146.99;32.47;-56.27 
7.113;0.61;-0.82;0.09;-0.14;0.14;0.35;-346.21;-347.11;-84.00;1.03;-146.99;32.47;-56.27 
7.143;0.61;-0.82;0.12;-0.07;-0.14;0.70;-340.28;-347.11;-83.00;1.03;-146.98;32.47;-56.27 
7.173;0.62;-0.80;0.14;-0.07;0.90;0.00;-341.27;-348.05;-83.00;1.02;-146.98;32.48;-56.27 
7.204;0.61;-0.78;0.14;0.49;0.49;0.70;-341.27;-347.11;-81.00;1.00;-146.97;32.49;-56.25 
7.234;0.62;-0.81;0.14;-0.28;0.97;0.83;-340.28;-348.05;-88.00;1.03;-146.96;32.49;-56.25 
7.264;0.59;-0.82;0.12;-0.35;0.90;0.42;-342.25;-349.95;-85.00;1.02;-146.96;32.50;-56.24 
7.295;0.62;-0.78;0.11;-0.42;0.56;0.56;-342.25;-349.95;-84.00;1.00;-146.94;32.52;-56.22 
7.325;0.59;-0.80;0.13;-0.14;0.49;0.49;-341.27;-349.00;-81.00;1.00;-146.94;32.52;-56.22 
7.355;0.66;-0.78;0.16;0.14;0.21;0.00;-341.27;-347.11;-81.00;1.03;-146.92;32.53;-56.21 
7.385;0.61;-0.80;0.11;-0.14;0.70;-0.07;-343.24;-350.90;-83.00;1.01;-146.91;32.54;-56.20 
7.415;0.61;-0.80;0.15;0.49;1.04;-0.07;-340.28;-346.16;-84.00;1.02;-146.90;32.55;-56.18 
7.445;0.62;-0.79;0.15;0.00;0.21;-0.42;-344.23;-348.05;-84.00;1.02;-146.87;32.58;-56.15 
7.475;0.63;-0.82;0.12;0.00;-0.49;-0.90;-341.27;-349.95;-85.00;1.04;-146.84;32.61;-56.12 
7.505;0.62;-0.79;0.15;-0.14;-0.14;-0.63;-340.28;-349.00;-83.00;1.02;-146.80;32.65;-56.08 
7.534;0.64;-0.82;0.13;-0.28;-0.21;-0.77;-342.25;-347.11;-81.00;1.05;-146.76;32.69;-56.05 
7.563;0.63;-0.82;0.14;-0.35;0.21;-0.83;-341.27;-348.05;-79.00;1.04;-146.73;32.72;-56.02 
7.593;0.62;-0.80;0.13;-0.70;-0.14;-0.49;-346.21;-347.11;-84.00;1.02;-146.69;32.77;-55.97 
7.622;0.62;-0.74;0.14;-0.35;-0.14;-0.42;-341.27;-351.85;-84.00;0.98;-146.65;32.81;-55.93 
7.651;0.59;-0.80;0.10;-0.49;0.56;-0.21;-342.25;-350.90;-82.00;1.00;-146.63;32.83;-55.91 
7.680;0.62;-0.81;0.14;-0.35;0.90;-0.49;-340.28;-349.00;-85.00;1.03;-146.61;32.85;-55.90 
7.709;0.62;-0.79;0.12;-0.35;0.42;-0.63;-341.27;-349.00;-83.00;1.01;-146.59;32.87;-55.88 
7.738;0.61;-0.80;0.10;-0.35;0.35;-0.42;-345.22;-347.11;-84.00;1.01;-146.55;32.91;-55.84 
7.767;0.63;-0.80;0.14;0.07;0.42;-0.42;-341.27;-348.05;-86.00;1.03;-146.52;32.93;-55.81 
7.796;0.61;-0.82;0.12;-0.07;-0.42;0.07;-342.25;-350.90;-85.00;1.03;-146.49;32.96;-55.78 
7.825;0.61;-0.79;0.10;-0.42;-0.83;0.07;-344.23;-347.11;-88.00;1.00;-146.49;32.97;-55.77 
7.854;0.61;-0.78;0.09;-0.07;0.63;-0.07;-338.30;-346.16;-83.00;0.99;-146.48;32.98;-55.77 
7.883;0.60;-0.79;0.10;0.35;1.25;-0.07;-340.28;-349.00;-83.00;1.00;-146.47;32.99;-55.75 
7.912;0.61;-0.81;0.12;0.00;0.63;0.14;-338.30;-349.95;-81.00;1.02;-146.44;33.01;-55.72 
7.941;0.59;-0.78;0.14;-0.07;0.42;-0.21;-342.25;-349.00;-79.00;0.99;-146.42;33.03;-55.70 
7.972;0.58;-0.80;0.11;0.28;0.83;-0.49;-345.22;-347.11;-84.00;0.99;-146.40;33.04;-55.68 
8.002;0.61;-0.78;0.15;0.07;1.32;-0.56;-342.25;-349.95;-83.00;1.00;-146.36;33.08;-55.64 
8.032;0.60;-0.78;0.16;-0.28;0.21;-0.77;-339.29;-350.90;-82.00;1.00;-146.33;33.11;-55.61 
8.063;0.62;-0.78;0.11;-0.14;0.00;-0.97;-344.23;-349.95;-82.00;1.00;-146.28;33.16;-55.56 
8.093;0.62;-0.78;0.10;0.14;0.14;-0.83;-343.24;-350.90;-83.00;1.00;-146.23;33.21;-55.51 
8.123;0.62;-0.78;0.13;-0.14;0.83;-0.56;-345.22;-349.00;-84.00;1.00;-146.18;33.27;-55.46 
8.153;0.62;-0.78;0.14;-0.07;0.49;-0.28;-346.21;-350.90;-83.00;1.01;-146.14;33.31;-55.43 
8.183;0.62;-0.78;0.13;-0.49;-0.49;0.07;-341.27;-349.00;-83.00;1.00;-146.10;33.35;-55.39 
8.213;0.64;-0.78;0.12;0.00;0.35;0.42;-342.25;-351.85;-81.00;1.02;-146.07;33.38;-55.36 
8.243;0.62;-0.79;0.12;0.14;1.11;0.00;-340.28;-349.95;-85.00;1.01;-146.06;33.39;-55.35 
8.274;0.61;-0.78;0.12;0.14;0.63;0.21;-341.27;-349.00;-83.00;1.00;-146.04;33.40;-55.33 
8.304;0.62;-0.80;0.10;-0.14;-0.07;0.42;-344.23;-346.16;-87.00;1.02;-146.03;33.42;-55.32 
8.334;0.60;-0.80;0.08;-0.28;0.42;-0.21;-344.23;-349.00;-83.00;1.00;-146.02;33.43;-55.31 
8.363;0.62;-0.82;0.14;-0.28;1.11;0.07;-340.28;-349.95;-82.00;1.04;-145.99;33.47;-55.28 
8.392;0.62;-0.80;0.12;-0.28;0.77;-0.07;-341.27;-347.11;-83.00;1.02;-145.97;33.49;-55.26 
8.421;0.62;-0.80;0.14;-0.35;0.00;0.00;-343.24;-349.00;-85.00;1.02;-145.94;33.51;-55.24 
8.451;0.58;-0.81;0.11;0.07;-0.35;-0.07;-340.28;-347.11;-82.00;1.00;-145.93;33.53;-55.23 
8.481;0.63;-0.78;0.14;-0.14;0.42;-0.21;-340.28;-349.00;-82.00;1.01;-145.90;33.57;-55.20 
8.511;0.60;-0.81;0.10;0.07;0.56;0.21;-343.24;-349.95;-85.00;1.01;-145.86;33.60;-55.17 
8.541;0.59;-0.78;0.14;-0.07;0.21;0.00;-341.27;-346.16;-83.00;0.99;-145.84;33.62;-55.15 
8.572;0.62;-0.79;0.14;0.00;-0.14;0.00;-342.25;-350.90;-83.00;1.01;-145.81;33.65;-55.12 
8.602;0.62;-0.81;0.12;0.28;0.35;0.21;-338.30;-349.00;-83.00;1.03;-145.81;33.66;-55.12 
8.632;0.62;-0.81;0.11;0.00;1.04;0.00;-341.27;-349.00;-86.00;1.03;-145.79;33.67;-55.10 
8.663;0.61;-0.80;0.14;-0.35;-0.28;0.21;-343.24;-349.95;-81.00;1.02;-145.78;33.68;-55.08 
8.693;0.61;-0.78;0.15;-0.28;-0.77;0.14;-342.25;-349.00;-86.00;1.00;-145.77;33.70;-55.07 
8.723;0.60;-0.79;0.14;0.00;0.14;0.28;-341.27;-349.95;-86.00;1.00;-145.76;33.71;-55.06 
8.753;0.62;-0.80;0.10;0.21;0.97;-0.28;-345.22;-349.00;-83.00;1.02;-145.75;33.72;-55.05 
8.784;0.62;-0.80;0.14;0.07;0.35;-0.14;-342.25;-349.00;-81.00;1.02;-145.72;33.75;-55.02 
8.814;0.62;-0.79;0.13;-0.07;0.00;0.14;-342.25;-349.00;-86.00;1.01;-145.70;33.76;-55.00 
8.844;0.58;-0.82;0.09;-0.14;-0.14;-0.07;-341.27;-349.00;-83.00;1.01;-145.69;33.78;-54.99 
8.874;0.62;-0.78;0.12;-0.28;0.42;-0.49;-345.22;-351.85;-82.00;1.00;-145.66;33.81;-54.96 
8.903;0.62;-0.81;0.14;0.21;0.90;-0.14;-340.28;-348.05;-84.00;1.03;-145.63;33.84;-54.94 
8.932;0.61;-0.78;0.11;-0.35;-0.07;0.00;-338.30;-347.11;-83.00;1.00;-145.60;33.87;-54.91 
8.962;0.62;-0.80;0.12;0.07;-0.28;-0.07;-343.24;-348.05;-84.00;1.02;-145.57;33.91;-54.88 
8.992;0.63;-0.82;0.10;-0.07;0.83;0.14;-342.25;-349.00;-87.00;1.04;-145.55;33.93;-54.86 
9.022;0.61;-0.82;0.11;0.00;0.63;0.07;-343.24;-349.95;-84.00;1.03;-145.52;33.95;-54.84 
9.052;0.62;-0.80;0.13;-0.28;0.00;0.00;-342.25;-351.85;-88.00;1.02;-145.50;33.98;-54.82 
9.083;0.59;-0.79;0.11;-0.28;-0.07;-0.07;-341.27;-354.69;-79.00;0.99;-145.49;33.99;-54.81 
9.113;0.61;-0.81;0.07;0.07;0.56;-0.42;-342.25;-346.16;-85.00;1.02;-145.48;34.00;-54.80 
9.143;0.62;-0.81;0.12;0.14;0.90;-0.63;-341.27;-349.95;-85.00;1.03;-145.46;34.02;-54.78 
9.174;0.62;-0.82;0.14;0.07;0.35;-0.83;-340.28;-349.95;-83.00;1.04;-145.43;34.04;-54.75 
9.203;0.61;-0.79;0.11;-0.14;0.56;-0.70;-343.24;-351.85;-85.00;1.00;-145.37;34.11;-54.69 
9.233;0.61;-0.80;0.11;-0.21;0.49;-0.77;-340.28;-349.00;-84.00;1.01;-145.32;34.16;-54.64 
9.262;0.61;-0.80;0.15;-0.07;0.42;-1.18;-340.28;-351.85;-79.00;1.02;-145.27;34.21;-54.58 
9.291;0.65;-0.80;0.13;-0.14;0.35;-0.90;-340.28;-350.90;-83.00;1.04;-145.20;34.27;-54.52 
9.320;0.61;-0.78;0.14;-0.28;-0.14;-0.28;-342.25;-349.95;-85.00;1.00;-145.17;34.31;-54.49 
9.350;0.63;-0.81;0.10;0.00;-0.35;0.14;-341.27;-351.85;-81.00;1.03;-145.15;34.33;-54.47 
9.381;0.60;-0.79;0.11;0.14;0.35;0.07;-343.24;-351.85;-85.00;1.00;-145.13;34.35;-54.46 
9.411;0.62;-0.81;0.10;0.14;0.35;0.00;-339.29;-352.80;-83.00;1.02;-145.12;34.37;-54.44 
9.441;0.62;-0.79;0.11;0.07;0.56;0.07;-341.27;-352.80;-84.00;1.01;-145.11;34.37;-54.43 
9.472;0.62;-0.78;0.12;0.42;0.97;-0.28;-342.25;-352.80;-83.00;1.00;-145.11;34.38;-54.42 
9.502;0.64;-0.80;0.14;0.00;0.77;-0.21;-340.28;-349.95;-82.00;1.03;-145.07;34.41;-54.39 
9.532;0.60;-0.78;0.13;-0.49;-0.28;-0.49;-341.27;-349.95;-85.00;0.99;-145.05;34.43;-54.37 
9.562;0.62;-0.79;0.10;-0.42;-0.83;-0.42;-341.27;-351.85;-84.00;1.01;-145.02;34.47;-54.34 
9.593;0.60;-0.81;0.11;-0.21;0.14;-0.07;-344.23;-351.85;-83.00;1.01;-144.97;34.52;-54.30 
9.623;0.61;-0.78;0.14;0.35;1.25;-0.28;-341.27;-349.95;-82.00;1.00;-144.96;34.53;-54.29 
9.653;0.64;-0.78;0.14;0.21;0.97;0.00;-340.28;-350.90;-83.00;1.02;-144.92;34.56;-54.25 
9.683;0.60;-0.81;0.10;0.07;0.07;0.14;-341.27;-347.11;-84.00;1.01;-144.90;34.58;-54.23 
9.712;0.65;-0.80;0.14;0.07;-0.35;0.35;-341.27;-350.90;-83.00;1.04;-144.87;34.61;-54.20 
9.741;0.62;-0.78;0.14;0.00;0.49;-0.07;-344.23;-349.95;-84.00;1.01;-144.85;34.64;-54.17 
9.771;0.63;-0.81;0.13;-0.21;0.77;0.07;-340.28;-349.95;-81.00;1.03;-144.84;34.65;-54.16 
9.801;0.61;-0.78;0.13;-0.14;0.21;0.35;-340.28;-352.80;-86.00;1.00;-144.83;34.65;-54.16 
9.831;0.64;-0.80;0.14;-0.21;0.00;0.14;-342.25;-347.11;-82.00;1.03;-144.83;34.65;-54.16 
9.861;0.62;-0.82;0.12;0.07;0.63;-0.14;-343.24;-350.90;-84.00;1.03;-144.82;34.67;-54.15 
9.892;0.62;-0.80;0.11;-0.21;0.63;-0.14;-339.29;-349.00;-85.00;1.02;-144.80;34.68;-54.13 
9.922;0.63;-0.81;0.13;-0.07;0.21;0.14;-340.28;-349.95;-86.00;1.03;-144.77;34.71;-54.11 
9.952;0.62;-0.81;0.10;0.00;0.14;0.14;-342.25;-353.74;-83.00;1.02;-144.76;34.72;-54.09 
9.983;0.62;-0.71;0.15;0.07;0.56;0.14;-341.27;-351.85;-82.00;0.95;-144.74;34.75;-54.08 
10.013;0.61;-0.78;0.14;-0.07;0.42;0.35;-339.29;-351.85;-84.00;1.00;-144.72;34.77;-54.06 
10.043;0.59;-0.81;0.12;-0.14;0.14;-0.14;-343.24;-349.95;-85.00;1.01;-144.70;34.78;-54.04 
10.073;0.61;-0.79;0.15;-0.14;0.70;0.00;-340.28;-350.90;-86.00;1.01;-144.68;34.80;-54.01 
10.103;0.63;-0.82;0.10;-0.28;0.56;-0.07;-342.25;-351.85;-83.00;1.04;-144.64;34.84;-53.98 
10.133;0.62;-0.81;0.11;-0.14;0.14;0.00;-343.24;-352.80;-85.00;1.03;-144.62;34.86;-53.96 
10.162;0.62;-0.80;0.14;-0.35;0.35;-0.21;-342.25;-353.74;-82.00;1.02;-144.59;34.89;-53.93 
10.192;0.62;-0.79;0.12;-0.28;0.35;-0.21;-344.23;-349.95;-85.00;1.01;-144.56;34.92;-53.90 
10.221;0.62;-0.80;0.12;-0.07;0.70;-0.42;-341.27;-349.95;-83.00;1.02;-144.53;34.95;-53.87 
10.250;0.60;-0.79;0.10;0.21;0.49;-0.56;-342.25;-352.80;-85.00;1.00;-144.48;35.00;-53.82 
10.280;0.62;-0.80;0.11;0.42;0.00;-0.70;-344.23;-353.74;-81.00;1.02;-144.45;35.03;-53.78 
10.309;0.60;-0.82;0.10;1.46;-0.35;-1.39;-340.28;-349.95;-81.00;1.02;-144.42;35.06;-53.75 
10.338;0.59;-0.82;0.11;3.06;1.11;-2.64;-342.25;-351.85;-84.00;1.02;-144.36;35.12;-53.68 
10.367;0.61;-0.82;0.11;3.69;4.03;-4.80;-337.31;-355.64;-83.00;1.03;-144.26;35.21;-53.56 
10.396;0.60;-0.81;0.10;4.03;5.43;-7.17;-342.25;-352.80;-86.00;1.01;-144.08;35.36;-53.37 
10.425;0.47;-0.91;0.14;5.70;6.75;-14.89;-342.25;-355.64;-91.00;1.03;-143.86;35.54;-53.13 
10.454;0.55;-0.87;0.14;2.64;13.43;-25.95;-340.28;-358.49;-88.00;1.04;-143.44;35.90;-52.71 
