Time(s) acc_x(g) acc_y(g) acc_z(g) gyr_x(°/s) gyr_y(°/s) gyr_z(°/s) mag_x(G) mag_y(G) mag_z(G) SVM(g) yaw(°) pitch(°) roll(°)
0.000;-0.49;0.12;0.62;-7.51;-3.55;4.66;108.73;16.20;-204.00;0.80;-163.44;-33.30;20.72 
0.030;-0.49;0.14;0.68;-9.81;12.59;11.62;111.72;14.30;-201.00;0.85;-163.67;-33.25;20.61 
0.061;-0.52;0.10;0.69;-10.92;21.91;12.94;108.73;18.11;-200.00;0.87;-163.95;-33.53;20.49 
0.091;-0.54;0.17;0.78;-9.25;14.82;8.97;108.73;20.01;-196.00;0.96;-164.22;-33.89;20.42 
0.121;-0.57;0.25;0.77;-5.57;1.46;13.22;111.72;20.97;-194.00;0.99;-164.45;-33.91;20.45 
0.151;-0.54;0.26;0.74;-1.67;-7.10;16.14;114.72;20.97;-197.00;0.95;-164.81;-33.57;20.69 
0.181;-0.55;0.20;0.72;-5.36;-14.12;24.49;121.70;20.97;-200.00;0.93;-165.50;-32.88;21.06 
0.211;-0.52;0.14;0.70;-7.23;-8.56;30.75;123.69;16.20;-201.00;0.88;-166.21;-32.19;21.39 
0.241;-0.48;0.17;0.71;-6.40;10.30;23.72;129.68;18.11;-200.00;0.87;-166.90;-31.77;21.73 
0.272;-0.58;0.20;0.73;-3.27;19.97;32.00;136.66;16.20;-198.00;0.95;-167.62;-31.71;22.25 
0.301;-0.57;0.14;0.79;-3.97;18.50;28.73;142.65;19.06;-196.00;0.98;-168.30;-31.83;22.69 
0.330;-0.49;0.16;0.78;-1.32;10.02;24.56;143.64;16.20;-192.00;0.93;-168.88;-31.79;23.10 
0.361;-0.49;0.17;0.73;2.50;9.53;20.31;150.63;20.97;-190.00;0.90;-169.28;-31.66;23.55 
0.390;-0.44;0.10;0.76;2.57;15.51;15.10;155.61;18.11;-187.00;0.88;-169.54;-31.66;23.96 
0.420;-0.47;0.11;0.75;1.67;16.49;6.33;158.61;19.06;-188.00;0.89;-169.57;-31.85;24.20 
0.450;-0.46;0.10;0.78;-0.07;7.17;0.70;159.60;20.97;-185.00;0.91;-169.40;-32.06;24.33 
0.479;-0.48;0.11;0.75;-3.34;0.28;-5.01;157.61;25.73;-184.00;0.90;-169.12;-32.10;24.26 
0.508;-0.49;0.17;0.70;-2.57;13.01;-8.42;157.61;22.87;-184.00;0.87;-168.74;-32.27;24.14 
0.538;-0.54;0.21;0.74;-1.53;18.92;-7.58;154.62;27.64;-183.00;0.94;-168.22;-32.77;23.98 
0.568;-0.59;0.16;0.80;3.27;15.44;-3.27;153.62;28.59;-178.00;1.01;-167.75;-33.28;24.00 
0.597;-0.62;0.13;0.77;2.92;4.17;-2.71;154.62;28.59;-174.00;1.00;-167.25;-33.63;24.05 
0.626;-0.59;0.06;0.74;5.70;-0.97;-1.74;149.63;26.69;-178.00;0.95;-166.83;-33.69;24.13 
0.656;-0.58;0.02;0.66;6.05;-3.20;-7.03;156.61;27.64;-176.00;0.88;-166.34;-33.76;24.12 
0.685;-0.53;0.15;0.60;3.62;-4.17;-9.39;153.62;27.64;-176.00;0.81;-165.74;-33.78;24.09 
0.715;-0.52;0.19;0.56;4.03;11.06;-10.37;146.64;29.55;-174.00;0.79;-165.09;-33.98;24.07 
0.745;-0.55;0.14;0.72;3.90;22.89;-9.11;149.63;28.59;-172.00;0.92;-164.38;-34.59;24.02 
0.774;-0.64;0.10;0.82;2.64;6.82;-7.86;148.63;31.45;-166.00;1.04;-163.75;-35.13;23.92 
0.804;-0.60;0.09;0.74;1.46;-8.63;-7.30;145.64;29.55;-169.00;0.96;-163.25;-35.18;23.82 
0.834;-0.54;0.12;0.65;2.09;-2.57;-8.97;145.64;30.50;-168.00;0.85;-162.77;-35.12;23.69 
0.864;-0.58;0.12;0.70;2.64;9.67;-9.74;145.64;29.55;-168.00;0.92;-162.14;-35.39;23.55 
0.894;-0.60;0.09;0.73;1.46;3.20;-9.46;144.64;31.45;-168.00;0.95;-161.55;-35.71;23.38 
0.924;-0.59;0.11;0.73;2.71;-5.43;-9.04;143.64;32.40;-168.00;0.95;-161.03;-35.82;23.21 
0.955;-0.56;0.20;0.70;4.10;-3.06;-8.77;138.66;35.26;-167.00;0.92;-160.47;-35.82;23.09 
0.985;-0.58;0.11;0.70;1.95;-1.67;-7.79;134.67;28.59;-170.00;0.92;-159.98;-35.86;23.00 
1.015;-0.58;0.12;0.69;0.63;0.07;-8.28;134.67;27.64;-169.00;0.91;-159.51;-35.90;22.83 
1.046;-0.58;0.14;0.66;-0.28;-0.56;-10.02;134.67;29.55;-170.00;0.89;-159.01;-36.04;22.62 
1.076;-0.58;0.17;0.73;2.71;-0.35;-9.46;127.68;31.45;-169.00;0.95;-158.50;-36.13;22.44 
1.106;-0.59;0.11;0.74;0.77;-3.69;-10.23;125.69;33.36;-172.00;0.95;-157.99;-36.18;22.25 
1.136;-0.57;0.12;0.70;-0.28;-4.73;-14.05;124.69;33.36;-170.00;0.91;-157.45;-36.21;21.96 
1.167;-0.54;0.16;0.68;0.49;0.70;-17.18;122.70;30.50;-173.00;0.88;-156.83;-36.30;21.59 
1.196;-0.59;0.16;0.68;2.43;5.01;-15.79;116.71;32.40;-174.00;0.91;-156.10;-36.55;21.26 
1.225;-0.57;0.11;0.74;2.02;-0.97;-16.00;114.72;32.40;-169.00;0.94;-155.43;-36.77;20.98 
1.255;-0.59;0.15;0.70;1.25;-3.20;-19.62;111.72;28.59;-168.00;0.93;-154.71;-36.89;20.65 
1.284;-0.59;0.15;0.66;1.32;-0.97;-17.95;108.73;30.50;-168.00;0.90;-153.98;-37.03;20.27 
1.313;-0.58;0.12;0.68;2.71;2.85;-18.57;106.74;29.55;-168.00;0.90;-153.29;-37.20;19.91 
1.343;-0.59;0.10;0.68;0.90;4.87;-18.92;100.75;30.50;-171.00;0.91;-152.52;-37.51;19.51 
1.372;-0.62;0.14;0.71;-1.67;1.60;-20.94;96.76;33.36;-166.00;0.95;-151.74;-37.82;18.98 
1.401;-0.60;0.10;0.71;-3.55;-7.51;-17.81;91.77;32.40;-167.00;0.93;-151.09;-37.93;18.47 
1.430;-0.60;0.05;0.64;-9.46;-7.10;-15.93;85.79;31.45;-170.00;0.88;-150.59;-37.87;17.87 
1.459;-0.50;0.08;0.62;-12.24;9.11;-16.77;80.80;28.59;-166.00;0.80;-150.11;-38.01;17.14 
1.488;-0.57;0.10;0.71;-9.95;8.90;-13.63;77.81;28.59;-165.00;0.92;-149.62;-38.38;16.50 
1.518;-0.55;0.04;0.76;-8.00;-1.46;-13.08;73.82;29.55;-163.00;0.94;-149.25;-38.50;15.91 
1.548;-0.58;0.01;0.77;-7.72;-8.14;-17.39;70.82;28.59;-162.00;0.96;-148.90;-38.37;15.42 
1.578;-0.54;0.02;0.73;-9.67;-8.63;-21.63;62.84;31.45;-165.00;0.91;-148.47;-38.20;14.88 
1.608;-0.56;0.07;0.76;-13.43;-9.18;-26.71;58.85;28.59;-167.00;0.95;-147.90;-38.02;14.00 
1.639;-0.56;0.17;0.74;-19.34;-12.73;-24.90;50.87;24.78;-170.00;0.94;-147.32;-37.82;12.95 
1.669;-0.53;0.13;0.66;-21.98;-24.63;-19.27;46.88;20.97;-169.00;0.86;-147.03;-37.34;11.93 
1.699;-0.50;0.11;0.58;-22.05;-29.43;-19.97;38.90;19.06;-171.00;0.77;-146.95;-36.52;10.92 
1.729;-0.46;0.04;0.55;-18.85;-27.62;-22.26;25.94;16.20;-176.00;0.72;-146.79;-35.72;9.86 
1.759;-0.43;0.00;0.53;-18.85;-11.27;-29.98;20.95;8.58;-179.00;0.68;-146.37;-35.21;8.68 
1.789;-0.31;0.02;0.54;-12.38;-10.92;-40.56;12.97;8.58;-182.00;0.62;-145.64;-34.94;7.52 
1.819;-0.45;-0.05;0.54;-0.35;-1.95;-44.10;7.98;3.81;-179.00;0.70;-144.58;-34.71;6.46 
1.850;-0.57;-0.04;0.58;-1.81;1.39;-60.17;0.00;3.81;-176.00;0.81;-142.90;-34.93;5.42 
1.880;-0.42;0.00;0.61;-5.84;-9.74;-65.88;-23.94;-5.72;-178.00;0.74;-141.08;-34.83;3.94 
1.910;-0.35;0.08;0.54;-5.84;-18.37;-63.30;-32.92;-12.39;-175.00;0.65;-139.44;-34.27;2.38 
1.941;-0.47;0.05;0.47;0.14;-31.17;-54.82;-40.90;-20.97;-177.00;0.67;-138.10;-33.47;0.99 
1.971;-0.44;0.06;0.33;1.81;-44.38;-45.77;-57.86;-34.31;-185.00;0.55;-137.02;-32.26;-0.15 
2.001;-0.17;0.16;0.08;1.32;-44.38;-42.43;-61.85;-42.89;-190.00;0.25;-136.38;-31.02;-0.92 
2.031;0.01;0.02;0.01;8.07;2.92;-37.98;-67.83;-55.28;-192.00;0.02;-135.54;-30.12;-1.70 
2.061;0.13;-0.06;0.17;-5.08;28.31;-42.50;-75.81;-61.00;-189.00;0.22;-134.65;-29.66;-2.56 
2.090;-0.06;0.21;0.63;-29.77;8.97;-54.61;-77.81;-62.90;-185.00;0.67;-133.47;-29.69;-4.22 
2.119;0.01;0.26;0.30;-34.78;-41.11;-8.00;-84.79;-81.97;-179.00;0.40;-133.55;-28.43;-5.52 
2.150;0.07;-0.21;0.26;-43.20;-2.09;7.65;-87.78;-86.73;-179.00;0.34;-134.75;-27.23;-6.72 
2.180;-0.22;-0.45;0.72;-64.28;-3.06;-37.77;-87.78;-84.82;-175.00;0.88;-135.29;-26.73;-9.13 
2.210;-0.14;-0.10;0.78;-87.23;-33.46;-34.85;-95.76;-87.68;-171.00;0.80;-135.56;-25.44;-12.11 
2.241;-0.37;-0.28;1.00;-109.43;-72.49;-39.79;-122.70;-88.64;-167.00;1.10;-136.54;-23.37;-15.71 
2.271;-0.60;-0.11;0.63;-149.08;-100.80;-36.45;-141.65;-99.12;-162.00;0.88;-138.46;-19.95;-20.17 
2.301;-0.03;-0.92;1.76;-138.30;-63.93;-46.82;-164.59;-111.51;-152.00;1.99;-140.82;-17.82;-25.33 
2.331;-0.24;-1.39;1.66;-96.83;-273.04;-89.25;-185.54;-147.73;-151.00;2.18;-142.13;-11.80;-29.14 
2.362;-0.42;-0.36;0.73;-145.46;-94.54;-214.12;-238.41;-206.82;-146.00;0.92;-142.58;-4.19;-35.42 
2.392;0.64;-3.82;2.38;-108.31;-248.90;-149.15;-274.32;-242.08;-127.00;4.55;-141.75;-0.15;-40.80 
2.422;-0.77;-2.78;1.87;-97.60;-67.34;25.46;-308.24;-264.96;-132.00;3.44;-145.68;5.74;-44.05 
2.452;0.70;-0.22;0.66;-378.78;-86.89;-192.07;-328.19;-274.49;-101.00;0.99;-145.01;12.81;-50.55 
2.482;-0.28;1.31;0.16;-395.55;-124.73;-131.06;-356.12;-316.42;6.00;1.35;-144.57;19.08;-57.42 
2.512;0.43;-1.29;-0.15;-289.53;-29.57;35.97;-363.10;-314.52;78.00;1.37;-150.45;20.67;-65.30 
2.542;0.50;-1.31;-0.41;-157.70;-88.28;-111.86;-358.11;-307.85;114.00;1.46;-154.82;21.35;-67.79 
2.572;0.40;-0.34;-0.77;-148.03;-164.03;-69.43;-354.12;-323.10;144.00;0.93;-155.62;25.41;-64.53 
2.602;0.74;-0.62;-0.78;-66.85;-93.91;-19.76;-344.15;-323.10;175.00;1.24;-158.01;26.10;-62.60 
2.632;0.70;-0.93;-0.93;-97.53;-105.53;-4.59;-337.17;-318.33;186.00;1.49;-159.94;25.46;-61.63 
2.663;0.53;-0.95;-0.90;-47.86;-126.61;0.90;-335.17;-308.80;197.00;1.41;-161.46;24.67;-60.00 
2.693;0.64;-0.87;-1.04;-18.85;-52.31;-1.74;-331.18;-300.22;203.00;1.50;-162.32;23.60;-59.10 
2.723;0.45;-0.36;-0.82;-45.22;3.69;-55.72;-324.20;-301.18;204.00;1.00;-161.93;24.07;-57.33 
2.753;0.66;-0.26;-0.40;-44.66;8.07;-37.98;-319.21;-315.47;211.00;0.81;-160.64;25.85;-54.64 
2.782;0.48;-0.53;-0.50;-37.70;-40.28;-42.30;-319.21;-319.28;220.00;0.87;-159.69;26.96;-52.44 
2.812;0.42;-0.66;-0.86;-21.91;-34.30;-46.05;-313.22;-323.10;223.00;1.16;-158.88;27.45;-50.59 
2.842;0.36;-0.70;-0.81;-15.51;4.73;-62.26;-316.22;-328.81;225.00;1.13;-157.61;28.44;-48.82 
2.872;0.44;-0.69;-0.70;-9.95;-5.98;-68.80;-310.23;-347.88;229.00;1.08;-155.81;29.98;-46.93 
2.902;0.52;-0.47;-0.86;-1.25;-3.76;-62.61;-308.24;-359.31;225.00;1.11;-154.00;31.34;-45.16 
2.932;0.42;-0.31;-0.82;3.06;7.86;-40.90;-310.23;-369.80;229.00;0.97;-152.36;32.69;-43.56 
2.963;0.58;-0.62;-0.76;12.52;9.39;-18.09;-309.23;-375.52;229.00;1.14;-151.38;33.42;-42.74 
2.993;0.58;-0.69;-0.70;15.79;21.98;-19.97;-310.23;-383.14;224.00;1.14;-150.64;34.04;-42.48 
3.022;0.62;-0.53;-0.70;20.10;23.51;-16.00;-309.23;-385.05;223.00;1.07;-149.84;34.77;-42.22 
3.052;0.70;-0.50;-0.62;28.17;30.40;-3.76;-314.22;-390.77;220.00;1.06;-149.10;35.49;-42.14 
3.082;0.74;-0.60;-0.54;33.39;29.63;5.70;-316.22;-392.67;212.00;1.10;-148.62;35.96;-42.59 
3.112;0.82;-0.57;-0.60;35.06;31.10;5.77;-324.20;-394.58;205.00;1.17;-148.20;36.40;-43.11 
3.142;0.89;-0.62;-0.58;41.95;34.92;22.40;-325.20;-395.53;197.00;1.23;-147.91;36.65;-43.84 
3.173;0.78;-0.58;-0.49;40.49;45.15;18.09;-331.18;-391.72;185.00;1.09;-147.84;36.76;-44.83 
3.203;0.77;-0.58;-0.42;40.21;40.77;25.81;-333.18;-390.77;181.00;1.05;-147.73;36.89;-45.82 
3.233;0.77;-0.55;-0.45;44.45;47.17;32.35;-341.16;-389.81;168.00;1.05;-147.73;36.85;-46.84 
3.264;0.74;-0.68;-0.34;42.57;52.59;40.14;-344.15;-381.23;161.00;1.06;-148.04;36.53;-48.19 
3.294;0.60;-0.74;-0.26;49.04;45.01;30.75;-352.13;-378.38;153.00;0.99;-148.22;36.18;-49.56 
3.324;0.58;-0.65;-0.26;54.75;30.96;39.79;-353.13;-373.61;146.00;0.91;-148.32;35.79;-50.79 
3.354;0.77;-0.98;-0.35;58.64;44.38;57.81;-362.10;-362.17;130.00;1.29;-149.07;34.65;-52.66 
3.384;0.62;-0.86;-0.31;72.28;51.62;58.64;-366.09;-350.74;114.00;1.10;-149.83;33.40;-54.77 
3.413;0.62;-0.71;-0.19;81.53;59.69;74.85;-368.09;-342.16;100.00;0.96;-150.63;31.96;-56.96 
3.443;0.62;-1.04;-0.02;94.12;63.79;93.63;-370.08;-325.00;84.00;1.21;-151.78;29.94;-59.64 
3.474;0.22;-0.91;0.29;98.57;28.80;92.03;-370.08;-302.13;56.00;0.98;-153.51;27.03;-62.94 
3.504;0.29;-0.81;0.39;73.95;-8.21;75.55;-367.09;-284.02;38.00;0.94;-155.28;24.28;-65.67 
3.534;0.44;-0.82;0.27;46.47;-32.14;77.01;-367.09;-269.72;25.00;0.97;-156.94;22.13;-67.65 
3.564;0.42;-0.90;0.14;37.36;-37.84;88.63;-366.09;-255.43;11.00;1.00;-159.07;19.88;-69.75 
3.593;0.23;-0.94;0.04;30.33;-15.23;74.78;-357.12;-233.51;3.00;0.97;-161.32;17.57;-71.89 
3.623;0.34;-1.09;0.14;26.78;11.20;79.03;-348.14;-222.07;-3.00;1.15;-163.40;15.36;-73.84 
3.653;0.10;-1.22;0.34;16.90;23.51;68.94;-348.14;-211.59;-7.00;1.27;-165.42;13.14;-75.67 
3.684;0.05;-0.99;0.38;3.62;0.28;55.65;-341.16;-194.43;-9.00;1.06;-167.31;11.10;-77.28 
3.714;0.06;-0.97;0.21;-8.83;-21.91;41.32;-336.17;-182.04;-15.00;0.99;-168.79;9.69;-78.53 
3.744;0.08;-0.95;0.06;-15.03;-20.10;27.34;-329.19;-178.23;-14.00;0.96;-170.01;8.70;-79.65 
3.775;0.13;-0.99;0.03;-16.35;5.98;14.12;-331.18;-172.51;-10.00;1.00;-170.75;8.15;-80.47 
3.805;0.05;-0.99;0.09;-14.54;17.60;12.10;-330.18;-169.65;-9.00;1.00;-171.25;7.75;-81.08 
3.835;0.06;-1.02;0.15;-15.37;8.49;13.57;-329.19;-163.93;-2.00;1.03;-171.71;7.38;-81.62 
3.865;0.05;-1.11;0.05;-17.88;2.30;10.92;-330.18;-161.07;0.00;1.11;-172.21;7.01;-82.19 
3.895;0.06;-1.14;0.01;-15.30;3.76;2.23;-328.19;-159.17;6.00;1.14;-172.60;6.78;-82.67 
3.925;0.14;-1.03;0.00;-12.24;10.99;-9.88;-330.18;-160.12;6.00;1.04;-172.61;6.90;-82.75 
3.955;0.20;-0.94;0.02;-9.88;9.60;-10.02;-328.19;-162.98;9.00;0.96;-172.26;7.35;-82.44 
3.986;0.24;-0.98;0.02;-7.03;2.71;-5.63;-335.17;-164.88;17.00;1.01;-171.92;7.79;-82.09 
4.016;0.11;-1.03;0.00;-0.83;-2.71;3.55;-334.17;-162.98;16.00;1.04;-171.89;7.89;-82.03 
4.046;0.11;-1.04;0.02;2.85;-0.77;-3.83;-332.18;-166.79;14.00;1.05;-171.83;7.97;-81.97 
4.076;0.17;-1.02;0.00;5.98;-1.53;-1.88;-332.18;-164.88;13.00;1.03;-171.68;8.14;-81.80 
4.105;0.10;-1.05;0.05;7.37;-1.32;-4.73;-332.18;-165.84;16.00;1.06;-171.53;8.28;-81.66 
4.134;0.12;-1.04;0.04;7.79;-2.09;-8.56;-331.18;-165.84;12.00;1.05;-171.28;8.52;-81.41 
4.164;0.14;-1.01;0.07;6.96;-2.57;-10.09;-333.18;-169.65;11.00;1.02;-170.94;8.84;-81.07 
4.194;0.18;-1.01;0.09;3.90;-1.74;-9.67;-335.17;-173.46;6.00;1.03;-170.51;9.25;-80.65 
4.224;0.14;-1.01;0.09;2.50;-2.09;-10.64;-333.18;-177.27;6.00;1.02;-170.14;9.63;-80.27 
4.254;0.18;-1.00;0.08;3.41;1.25;-12.17;-335.17;-172.51;3.00;1.02;-169.73;10.05;-79.86 
4.285;0.22;-0.98;0.08;0.63;3.62;-10.64;-336.17;-178.23;6.00;1.01;-169.27;10.51;-79.40 
4.315;0.23;-1.01;0.08;-2.09;-0.42;-8.97;-338.16;-178.23;5.00;1.04;-168.90;10.90;-79.02 
4.345;0.20;-1.02;0.03;-2.64;0.35;-9.95;-338.16;-182.99;3.00;1.04;-168.61;11.23;-78.71 
4.375;0.22;-0.98;0.05;-1.81;3.55;-8.70;-339.16;-182.99;5.00;1.01;-168.29;11.58;-78.38 
4.405;0.22;-0.98;0.05;-1.74;3.06;-7.30;-338.16;-184.90;7.00;1.01;-167.98;11.92;-78.05 
4.435;0.22;-0.99;0.06;-1.04;1.53;-6.61;-339.16;-184.90;6.00;1.02;-167.70;12.22;-77.76 
4.465;0.23;-0.96;0.07;-0.14;1.95;-5.43;-343.15;-189.66;8.00;0.99;-167.44;12.49;-77.49 
4.496;0.24;-1.00;0.08;0.00;1.53;-3.34;-340.16;-190.62;9.00;1.03;-167.23;12.71;-77.27 
4.525;0.23;-1.01;0.08;1.04;0.28;-2.85;-340.16;-189.66;7.00;1.04;-167.07;12.89;-77.10 
4.554;0.23;-0.98;0.06;2.02;1.67;-2.78;-338.16;-189.66;8.00;1.01;-166.94;13.02;-76.97 
4.584;0.23;-0.99;0.07;2.37;1.32;-2.43;-342.15;-190.62;6.00;1.02;-166.82;13.15;-76.84 
4.613;0.19;-1.02;0.04;2.37;0.35;-2.64;-344.15;-192.52;2.00;1.04;-166.67;13.29;-76.70 
4.642;0.21;-0.98;0.06;1.67;1.04;-2.64;-339.16;-194.43;6.00;1.00;-166.54;13.42;-76.56 
4.671;0.23;-1.02;0.06;1.46;1.11;-3.20;-341.16;-192.52;5.00;1.05;-166.41;13.56;-76.43 
4.700;0.25;-1.02;0.07;1.39;1.46;-2.99;-343.15;-191.57;5.00;1.05;-166.27;13.70;-76.29 
4.729;0.25;-0.99;0.08;0.21;1.46;-3.20;-341.16;-195.38;7.00;1.02;-166.13;13.85;-76.14 
4.758;0.25;-0.98;0.07;-0.07;1.25;-2.37;-342.15;-194.43;3.00;1.01;-166.00;13.99;-76.00 
4.787;0.25;-0.99;0.07;-0.35;1.18;-1.53;-341.16;-192.52;3.00;1.02;-165.90;14.10;-75.89 
4.816;0.25;-1.00;0.08;-0.56;1.95;-1.67;-343.15;-193.48;3.00;1.03;-165.79;14.22;-75.78 
4.845;0.22;-1.01;0.08;-0.21;1.67;-1.18;-343.15;-196.34;4.00;1.04;-165.70;14.31;-75.69 
4.875;0.23;-0.99;0.06;0.00;1.32;-0.97;-341.16;-193.48;3.00;1.02;-165.62;14.40;-75.60 
4.904;0.23;-1.02;0.06;0.00;1.53;-0.49;-341.16;-194.43;6.00;1.05;-165.54;14.49;-75.51 
4.933;0.24;-1.00;0.06;-0.14;1.04;-0.49;-343.15;-195.38;5.00;1.03;-165.47;14.55;-75.45 
4.962;0.24;-1.02;0.03;0.28;0.83;-0.21;-346.14;-194.43;4.00;1.05;-165.44;14.60;-75.40 
4.991;0.22;-1.01;0.08;0.42;1.04;-0.70;-345.15;-195.38;3.00;1.04;-165.40;14.64;-75.36 
5.020;0.24;-0.99;0.08;0.28;2.02;-0.70;-340.16;-195.38;4.00;1.02;-165.34;14.70;-75.30 
5.051;0.22;-0.98;0.06;-0.07;1.53;-0.90;-347.14;-198.24;6.00;1.01;-165.27;14.77;-75.23 
5.080;0.24;-1.02;0.07;-0.28;0.97;-1.11;-343.15;-196.34;5.00;1.05;-165.20;14.84;-75.16 
5.109;0.23;-0.99;0.05;-0.07;1.81;-1.11;-343.15;-194.43;0.00;1.02;-165.13;14.91;-75.09 
5.139;0.22;-0.99;0.06;0.28;1.81;-0.77;-342.15;-196.34;4.00;1.02;-165.07;14.98;-75.02 
5.168;0.25;-1.02;0.08;0.42;1.53;-1.67;-342.15;-197.29;3.00;1.05;-164.98;15.06;-74.94 
5.197;0.23;-0.99;0.06;0.21;1.46;-1.95;-346.14;-198.24;1.00;1.02;-164.90;15.14;-74.86 
5.226;0.22;-0.99;0.08;0.42;1.60;-1.04;-344.15;-196.34;2.00;1.02;-164.81;15.23;-74.77 
5.255;0.22;-1.00;0.11;0.49;1.18;-1.53;-346.14;-198.24;3.00;1.03;-164.71;15.33;-74.67 
5.284;0.26;-0.97;0.07;0.28;1.04;-1.88;-344.15;-199.20;4.00;1.01;-164.64;15.40;-74.60 
5.313;0.26;-0.98;0.06;0.07;1.67;-1.81;-344.15;-197.29;4.00;1.02;-164.55;15.49;-74.51 
5.342;0.25;-0.99;0.09;0.00;1.95;-1.53;-344.15;-198.24;6.00;1.03;-164.47;15.58;-74.42 
5.371;0.23;-0.99;0.07;-0.14;1.53;-2.02;-344.15;-198.24;4.00;1.02;-164.37;15.67;-74.33 
5.401;0.22;-0.98;0.07;0.00;1.39;-1.95;-343.15;-197.29;4.00;1.01;-164.27;15.78;-74.22 
5.431;0.25;-0.99;0.10;-0.28;1.25;-1.60;-343.15;-199.20;1.00;1.03;-164.17;15.88;-74.12 
5.461;0.24;-0.98;0.08;-0.21;1.04;-1.88;-345.15;-200.15;4.00;1.01;-164.08;15.97;-74.03 
5.491;0.24;-0.99;0.07;-0.07;1.32;-2.16;-348.14;-197.29;4.00;1.02;-163.99;16.06;-73.94 
5.522;0.23;-1.01;0.09;-0.28;1.46;-2.43;-347.14;-200.15;8.00;1.04;-163.89;16.16;-73.84 
5.552;0.26;-0.98;0.07;-0.07;1.25;-2.16;-346.14;-198.24;5.00;1.02;-163.80;16.25;-73.75 
5.582;0.26;-1.00;0.09;0.28;1.81;-2.16;-344.15;-203.96;3.00;1.04;-163.71;16.35;-73.65 
5.612;0.26;-1.00;0.08;0.00;1.95;-2.09;-345.15;-203.01;2.00;1.04;-163.62;16.44;-73.56 
5.642;0.26;-0.99;0.06;-0.21;0.70;-1.53;-346.14;-201.10;5.00;1.03;-163.53;16.53;-73.47 
5.672;0.26;-0.98;0.06;0.00;0.83;-1.46;-345.15;-202.05;3.00;1.02;-163.44;16.62;-73.38 
5.702;0.25;-0.99;0.06;0.07;1.81;-1.67;-348.14;-202.05;7.00;1.02;-163.36;16.70;-73.30 
5.733;0.26;-1.00;0.09;-0.14;1.67;-1.81;-347.14;-202.05;4.00;1.04;-163.27;16.78;-73.22 
5.763;0.25;-0.99;0.06;-0.63;1.25;-1.46;-347.14;-203.96;2.00;1.02;-163.19;16.87;-73.13 
5.793;0.26;-0.97;0.07;-0.35;0.90;-1.11;-346.14;-199.20;4.00;1.01;-163.11;16.94;-73.06 
5.823;0.27;-1.01;0.07;-0.14;1.32;-1.04;-346.14;-205.87;2.00;1.05;-163.06;17.00;-73.00 
5.853;0.26;-0.98;0.08;0.14;1.04;-1.32;-350.13;-205.87;3.00;1.02;-162.99;17.07;-72.93 
5.883;0.26;-1.01;0.07;0.14;0.35;-0.90;-346.14;-204.91;1.00;1.05;-162.94;17.12;-72.88 
5.913;0.26;-0.99;0.10;0.21;0.63;-0.49;-347.14;-206.82;5.00;1.03;-162.89;17.17;-72.83 
5.943;0.26;-1.01;0.09;-0.21;1.11;-1.11;-345.15;-202.05;4.00;1.05;-162.84;17.22;-72.78 
5.973;0.26;-0.98;0.07;-0.35;0.77;-0.83;-350.13;-203.96;1.00;1.02;-162.79;17.27;-72.73 
6.003;0.26;-0.98;0.06;-0.35;0.42;-0.90;-347.14;-206.82;4.00;1.02;-162.74;17.32;-72.68 
6.034;0.26;-0.98;0.06;-0.42;1.04;-1.11;-348.14;-203.01;5.00;1.02;-162.69;17.37;-72.63 
6.064;0.27;-0.98;0.07;-0.56;0.77;-0.49;-346.14;-207.77;3.00;1.02;-162.63;17.43;-72.57 
6.094;0.26;-1.00;0.06;-0.42;0.77;-0.42;-347.14;-201.10;2.00;1.03;-162.60;17.45;-72.55 
6.124;0.25;-0.98;0.12;-0.28;0.63;-0.21;-346.14;-206.82;2.00;1.02;-162.57;17.48;-72.52 
6.154;0.26;-0.98;0.06;-0.21;0.42;-0.35;-346.14;-204.91;2.00;1.02;-162.52;17.53;-72.47 
6.184;0.25;-0.98;0.06;-0.42;0.77;-0.21;-346.14;-204.91;3.00;1.01;-162.51;17.55;-72.45 
6.214;0.26;-1.00;0.10;-0.49;1.04;0.14;-345.15;-204.91;5.00;1.04;-162.48;17.57;-72.43 
6.245;0.26;-0.98;0.06;-0.56;0.63;0.49;-348.14;-208.73;3.00;1.02;-162.48;17.57;-72.43 
6.274;0.26;-0.98;0.06;-0.35;0.97;0.28;-348.14;-205.87;5.00;1.02;-162.43;17.63;-72.37 
6.303;0.25;-0.99;0.07;-0.77;0.90;-0.14;-346.14;-204.91;2.00;1.02;-162.42;17.64;-72.36 
6.333;0.25;-0.98;0.07;-0.35;0.63;0.49;-346.14;-203.01;1.00;1.01;-162.42;17.64;-72.36 
6.362;0.26;-0.99;0.10;-0.56;0.83;-0.07;-346.14;-205.87;2.00;1.03;-162.41;17.65;-72.35 
6.391;0.24;-0.98;0.12;-0.42;0.56;0.00;-346.14;-206.82;4.00;1.02;-162.39;17.67;-72.33 
6.420;0.26;-0.98;0.08;-0.70;0.63;-0.07;-343.15;-203.96;2.00;1.02;-162.38;17.68;-72.32 
6.450;0.26;-0.98;0.11;-0.49;0.63;0.07;-348.14;-204.91;1.00;1.02;-162.40;17.66;-72.34 
6.480;0.26;-0.98;0.10;-0.28;0.56;-0.21;-348.14;-205.87;2.00;1.02;-162.38;17.68;-72.32 
6.510;0.26;-0.98;0.08;0.00;0.63;-0.28;-347.14;-204.91;1.00;1.02;-162.35;17.71;-72.29 
6.540;0.26;-0.98;0.09;-0.28;1.11;-0.28;-344.15;-205.87;4.00;1.02;-162.32;17.74;-72.26 
6.570;0.30;-0.97;0.10;-1.11;0.56;-0.35;-347.14;-203.96;2.00;1.02;-162.30;17.76;-72.24 
6.600;0.27;-1.01;0.05;-0.70;-0.28;0.00;-346.14;-204.91;1.00;1.05;-162.29;17.77;-72.23 
6.631;0.23;-0.99;0.08;0.00;0.97;-0.49;-346.14;-205.87;3.00;1.02;-162.27;17.79;-72.21 
6.661;0.26;-0.98;0.07;0.07;0.77;-0.14;-345.15;-203.96;0.00;1.02;-162.24;17.82;-72.18 
6.691;0.26;-1.00;0.08;0.00;0.83;-0.56;-350.13;-204.91;4.00;1.04;-162.24;17.82;-72.18 
6.721;0.27;-1.00;0.08;-0.21;0.90;-0.35;-345.15;-206.82;2.00;1.04;-162.23;17.84;-72.16 
6.751;0.25;-0.97;0.09;-0.35;0.63;-0.83;-347.14;-207.77;0.00;1.01;-162.20;17.86;-72.14 
6.781;0.23;-0.99;0.06;-0.14;0.28;-0.56;-346.14;-204.91;5.00;1.02;-162.18;17.88;-72.12 
6.811;0.26;-0.98;0.06;-0.28;0.70;-0.42;-348.14;-207.77;3.00;1.02;-162.16;17.91;-72.09 
6.842;0.26;-0.98;0.06;-0.49;0.83;-0.70;-347.14;-205.87;2.00;1.02;-162.13;17.95;-72.05 
6.872;0.26;-0.98;0.06;-0.49;0.63;-1.25;-347.14;-204.91;3.00;1.02;-162.09;17.99;-72.01 
6.902;0.26;-0.99;0.08;-0.21;0.97;-0.90;-345.15;-208.73;2.00;1.03;-162.06;18.02;-71.98 
6.933;0.26;-0.98;0.06;-0.21;1.18;-0.42;-347.14;-207.77;-2.00;1.02;-162.03;18.05;-71.95 
6.963;0.26;-0.98;0.10;-0.42;0.70;-0.28;-347.14;-207.77;2.00;1.02;-162.00;18.08;-71.92 
6.992;0.28;-0.98;0.10;-0.49;0.77;-0.56;-346.14;-206.82;1.00;1.02;-161.98;18.11;-71.89 
7.022;0.25;-1.00;0.06;0.00;0.90;-0.14;-349.14;-205.87;0.00;1.03;-161.96;18.12;-71.87 
7.052;0.26;-0.99;0.08;-0.07;1.46;-0.49;-348.14;-207.77;0.00;1.03;-161.91;18.18;-71.82 
7.082;0.25;-0.98;0.08;-0.14;1.11;-0.42;-347.14;-204.91;2.00;1.01;-161.89;18.20;-71.79 
7.112;0.26;-0.98;0.08;-0.28;0.77;-0.35;-344.15;-207.77;0.00;1.02;-161.88;18.22;-71.78 
7.143;0.26;-0.98;0.07;-0.28;1.60;-0.77;-346.14;-207.77;2.00;1.02;-161.87;18.24;-71.76 
7.173;0.26;-0.98;0.11;-0.28;1.32;-0.28;-347.14;-206.82;6.00;1.02;-161.85;18.26;-71.73 
7.203;0.26;-0.97;0.07;-0.35;1.18;-0.35;-348.14;-209.68;1.00;1.01;-161.84;18.28;-71.72 
7.233;0.26;-0.98;0.06;-0.21;1.18;-0.63;-346.14;-203.96;0.00;1.02;-161.82;18.30;-71.70 
7.262;0.26;-0.98;0.07;-0.42;1.32;-0.28;-348.14;-206.82;1.00;1.02;-161.80;18.33;-71.66 
7.291;0.25;-0.98;0.10;-0.14;1.04;-0.14;-351.13;-207.77;4.00;1.02;-161.80;18.33;-71.66 
7.320;0.25;-0.98;0.05;0.14;1.04;-0.97;-347.14;-208.73;3.00;1.01;-161.79;18.35;-71.65 
7.350;0.26;-0.98;0.06;0.07;1.53;-0.56;-344.15;-204.91;3.00;1.02;-161.78;18.36;-71.63 
7.380;0.26;-0.98;0.09;-0.42;1.46;-0.83;-348.14;-207.77;0.00;1.02;-161.77;18.38;-71.61 
7.410;0.26;-0.99;0.06;-0.56;0.83;-0.42;-349.14;-209.68;0.00;1.03;-161.76;18.39;-71.59 
7.441;0.27;-0.98;0.06;-0.14;1.39;-0.28;-350.13;-208.73;3.00;1.02;-161.75;18.40;-71.58 
7.471;0.26;-0.98;0.05;0.00;1.60;-0.63;-348.14;-211.59;2.00;1.02;-161.74;18.42;-71.56 
7.501;0.26;-0.98;0.09;0.14;0.97;-0.49;-348.14;-208.73;4.00;1.02;-161.73;18.45;-71.54 
7.531;0.26;-0.99;0.07;-0.28;1.04;-0.63;-344.15;-208.73;0.00;1.03;-161.72;18.46;-71.52 
7.561;0.26;-0.99;0.10;0.00;1.39;-0.70;-345.15;-205.87;2.00;1.03;-161.70;18.49;-71.49 
7.591;0.26;-0.98;0.10;0.07;1.32;-0.56;-346.14;-207.77;1.00;1.02;-161.70;18.50;-71.48 
7.621;0.26;-0.99;0.10;-0.07;1.32;-0.77;-347.14;-206.82;-3.00;1.03;-161.69;18.52;-71.46 
7.652;0.26;-0.97;0.07;-0.07;1.46;-1.18;-344.15;-212.54;0.00;1.01;-161.68;18.54;-71.44 
7.682;0.26;-0.99;0.06;-0.49;1.53;-0.83;-348.14;-208.73;-253.00;1.03;-161.62;18.61;-71.37 
7.712;0.26;-0.96;0.06;-0.21;1.46;-1.18;-347.14;-207.77;0.00;1.00;-161.59;18.65;-71.32 
7.743;0.29;-1.02;0.08;-0.14;1.32;-0.42;-349.14;-210.63;2.00;1.06;-161.56;18.69;-71.28 
7.773;0.26;-0.99;0.08;-0.14;1.39;-0.56;-349.14;-210.63;0.00;1.03;-161.56;18.70;-71.27 
7.802;0.26;-0.98;0.08;-0.07;1.74;-0.35;-351.13;-208.73;-2.00;1.02;-161.57;18.70;-71.26 
7.832;0.26;-0.98;0.06;-0.21;1.39;-0.97;-348.14;-209.68;2.00;1.02;-161.57;18.72;-71.24 
7.862;0.26;-0.97;0.09;-0.35;1.53;-0.70;-347.14;-208.73;0.00;1.01;-161.57;18.73;-71.22 
7.892;0.27;-0.98;0.06;-0.28;1.39;-0.83;-350.13;-206.82;0.00;1.02;-161.62;18.69;-71.25 
7.921;0.26;-0.98;0.09;-0.28;1.25;-0.56;-350.13;-210.63;3.00;1.02;-161.62;18.71;-71.24 
7.952;0.26;-0.98;0.09;-0.28;1.67;-0.28;-346.14;-208.73;3.00;1.02;-161.62;18.71;-71.23 
7.982;0.27;-0.99;0.07;-0.56;1.53;-0.56;-347.14;-211.59;1.00;1.03;-161.61;18.73;-71.21 
8.012;0.28;-0.97;0.08;-0.35;1.32;-0.28;-347.14;-210.63;1.00;1.01;-161.61;18.74;-71.19 
8.043;0.26;-0.98;0.07;-0.35;1.18;-0.63;-345.15;-207.77;2.00;1.02;-161.59;18.78;-71.16 
8.073;0.26;-0.94;0.12;-0.35;1.25;-0.35;-347.14;-208.73;2.00;0.98;-161.59;18.79;-71.14 
8.103;0.30;-0.96;0.09;-0.21;1.32;-0.28;-347.14;-208.73;2.00;1.01;-161.60;18.78;-71.14 
8.133;0.26;-0.99;0.08;-0.28;0.97;-0.63;-348.14;-210.63;0.00;1.03;-161.61;18.79;-71.14 
8.164;0.26;-0.98;0.10;0.07;1.11;-0.63;-345.15;-207.77;1.00;1.02;-161.61;18.80;-71.12 
8.194;0.26;-0.98;0.07;-0.35;1.67;-0.70;-348.14;-212.54;0.00;1.02;-161.61;18.80;-71.12 
8.224;0.27;-0.98;0.07;-0.35;1.67;-0.56;-349.14;-210.63;2.00;1.02;-161.60;18.83;-71.09 
8.255;0.26;-0.98;0.10;-0.77;1.04;-1.04;-350.13;-212.54;0.00;1.02;-161.59;18.85;-71.07 
8.285;0.26;-0.97;0.09;-0.49;1.39;-0.49;-348.14;-211.59;2.00;1.01;-161.58;18.86;-71.05 
8.315;0.26;-0.97;0.07;-0.21;1.60;-0.35;-347.14;-214.44;5.00;1.01;-161.58;18.87;-71.04 
8.345;0.27;-0.98;0.10;-0.28;1.53;-0.35;-348.14;-208.73;3.00;1.02;-161.58;18.89;-71.03 
8.374;0.26;-0.94;0.04;-0.28;1.60;0.07;-350.13;-214.44;-1.00;0.98;-161.59;18.89;-71.02 
8.403;0.28;-0.96;0.06;-0.70;1.67;0.07;-349.14;-211.59;1.00;1.00;-161.60;18.89;-71.02 
8.433;0.26;-0.99;0.07;-0.56;0.90;-0.07;-349.14;-213.49;5.00;1.03;-161.61;18.88;-71.02 
8.464;0.29;-0.99;0.09;-0.63;0.77;-0.28;-349.14;-209.68;-1.00;1.04;-161.63;18.88;-71.03 
8.494;0.29;-0.98;0.09;-0.49;1.60;-0.42;-349.14;-211.59;3.00;1.03;-161.64;18.88;-71.02 
8.524;0.26;-0.98;0.07;-0.35;0.83;0.14;-348.14;-214.44;2.00;1.02;-161.65;18.88;-71.02 
8.555;0.26;-1.00;0.08;-0.28;0.83;-0.35;-350.13;-209.68;3.00;1.04;-161.67;18.87;-71.02 
8.585;0.26;-0.98;0.09;-0.21;0.83;-0.21;-348.14;-210.63;3.00;1.02;-161.69;18.87;-71.02 
8.615;0.26;-0.98;0.07;-0.21;0.97;-0.35;-348.14;-214.44;-1.00;1.02;-161.70;18.87;-71.02 
8.645;0.26;-0.98;0.10;-0.14;1.18;-0.14;-350.13;-211.59;2.00;1.02;-161.73;18.86;-71.02 
8.674;0.29;-0.98;0.10;-0.35;0.70;-0.63;-348.14;-211.59;0.00;1.03;-161.74;18.86;-71.02 
8.703;0.26;-0.97;0.07;-0.21;0.42;-0.56;-350.13;-212.54;3.00;1.01;-161.76;18.86;-71.01 
8.732;0.26;-0.99;0.10;-0.21;1.25;-0.49;-347.14;-212.54;0.00;1.03;-161.77;18.86;-71.01 
8.762;0.28;-0.98;0.10;-0.21;1.04;-0.28;-348.14;-210.63;0.00;1.02;-161.76;18.88;-70.99 
8.792;0.26;-0.97;0.08;-0.42;0.77;-0.14;-348.14;-213.49;0.00;1.01;-161.79;18.87;-71.00 
8.822;0.26;-0.95;0.07;-0.77;0.56;-0.35;-348.14;-212.54;0.00;0.99;-161.81;18.85;-71.01 
8.852;0.30;-0.98;0.09;-0.83;0.63;-0.35;-346.14;-213.49;1.00;1.03;-161.81;18.87;-70.99 
8.881;0.26;-0.99;0.10;-0.56;0.97;-0.14;-349.14;-213.49;3.00;1.03;-161.81;18.87;-70.99 
8.911;0.26;-0.98;0.10;-0.77;0.83;0.28;-350.13;-212.54;0.00;1.02;-161.91;18.81;-71.04 
8.941;0.26;-0.97;0.08;-0.90;0.77;-0.14;-347.14;-211.59;2.00;1.01;-161.93;18.80;-71.05 
8.971;0.26;-0.98;0.07;-0.90;0.77;0.00;-347.14;-214.44;2.00;1.02;-161.97;18.76;-71.08 
9.000;0.26;-0.97;0.07;-0.56;0.49;-0.21;-349.14;-212.54;2.00;1.01;-161.97;18.77;-71.07 
9.029;0.26;-0.98;0.06;-0.28;0.28;-0.28;-348.14;-213.49;0.00;1.02;-161.98;18.77;-71.07 
9.060;0.26;-0.99;0.08;-0.77;0.56;-1.25;-349.14;-211.59;4.00;1.03;-162.01;18.76;-71.07 
9.090;0.26;-0.95;0.08;-2.02;-0.14;-1.32;-348.14;-213.49;2.00;0.99;-162.00;18.79;-71.04 
9.120;0.29;-0.97;0.06;-2.30;-0.97;-1.39;-350.13;-209.68;5.00;1.01;-161.97;18.82;-71.03 
9.150;0.27;-0.99;0.07;-0.70;1.18;-1.25;-350.13;-212.54;4.00;1.03;-161.93;18.85;-71.00 
9.179;0.26;-0.99;0.10;0.00;0.83;-2.23;-350.13;-211.59;2.00;1.03;-161.91;18.88;-70.96 
9.209;0.29;-1.01;0.08;0.14;0.07;-2.57;-348.14;-212.54;2.00;1.05;-161.87;18.94;-70.91 
9.239;0.29;-1.00;0.07;-0.97;0.77;-2.43;-348.14;-215.40;3.00;1.04;-161.81;19.01;-70.83 
9.269;0.30;-0.98;0.10;-0.14;0.90;-2.71;-348.14;-214.44;3.00;1.03;-161.75;19.09;-70.74 
9.299;0.27;-0.98;0.09;0.00;-0.42;-1.11;-347.14;-215.40;1.00;1.02;-161.72;19.14;-70.70 
9.329;0.27;-0.97;0.04;-0.35;0.70;-0.97;-348.14;-214.44;1.00;1.01;-161.70;19.18;-70.65 
9.360;0.26;-0.98;0.08;-0.77;0.97;-1.32;-351.13;-213.49;3.00;1.02;-161.68;19.22;-70.61 
9.390;0.28;-0.98;0.07;-0.83;0.56;-0.14;-351.13;-217.30;3.00;1.02;-161.67;19.24;-70.59 
9.420;0.29;-0.94;0.09;-0.63;-0.07;-0.28;-352.13;-213.49;-1.00;0.99;-161.69;19.23;-70.59 
9.451;0.28;-0.96;0.07;-0.63;0.83;-0.49;-352.13;-212.54;2.00;1.00;-161.71;19.23;-70.59 
9.481;0.26;-0.98;0.03;-0.21;1.18;0.21;-352.13;-216.35;2.00;1.01;-161.73;19.23;-70.59 
9.511;0.29;-0.97;0.09;-0.77;0.70;0.63;-350.13;-215.40;5.00;1.02;-161.76;19.22;-70.59 
9.541;0.27;-1.00;0.06;-0.56;0.00;0.21;-347.14;-215.40;2.00;1.04;-161.77;19.21;-70.60 
9.570;0.28;-0.99;0.10;-0.35;0.49;-0.63;-353.13;-214.44;3.00;1.03;-161.79;19.20;-70.61 
9.599;0.28;-0.97;0.06;0.00;0.90;-0.63;-347.14;-219.21;3.00;1.01;-161.80;19.22;-70.58 
9.629;0.25;-0.98;0.10;-0.42;0.70;-0.70;-350.13;-214.44;1.00;1.02;-161.82;19.22;-70.58 
9.660;0.28;-0.98;0.05;-0.49;0.21;-0.70;-352.13;-215.40;3.00;1.02;-161.83;19.24;-70.56 
9.690;0.27;-0.98;0.06;-0.07;0.97;-0.77;-349.14;-218.26;1.00;1.02;-161.84;19.25;-70.53 
9.720;0.29;-0.99;0.08;-0.35;0.83;-1.25;-349.14;-215.40;3.00;1.03;-161.84;19.27;-70.51 
9.750;0.26;-0.97;0.10;0.07;0.56;-0.56;-353.13;-214.44;2.00;1.01;-161.84;19.28;-70.50 
9.780;0.30;-0.98;0.08;-0.21;0.83;-0.77;-349.14;-217.30;2.00;1.03;-161.81;19.32;-70.45 
9.810;0.29;-0.99;0.07;-0.42;0.35;-0.83;-351.13;-214.44;-1.00;1.03;-161.82;19.34;-70.43 
9.840;0.29;-0.98;0.09;0.00;0.70;-0.63;-347.14;-219.21;3.00;1.03;-161.84;19.34;-70.42 
9.869;0.27;-1.01;0.07;-0.49;1.81;0.21;-348.14;-219.21;3.00;1.05;-161.89;19.31;-70.45 
9.898;0.26;-0.99;0.08;-2.50;0.00;0.56;-351.13;-212.54;0.00;1.03;-161.94;19.26;-70.50 
9.928;0.27;-0.98;0.00;-3.20;3.97;0.90;-348.14;-217.30;3.00;1.02;-161.99;19.20;-70.57 
9.959;0.29;-0.98;0.06;-2.43;19.90;-3.76;-349.14;-215.40;4.00;1.02;-162.02;19.17;-70.60 
9.989;0.33;-0.93;0.14;-2.30;21.36;-5.84;-351.13;-215.40;2.00;1.00;-161.93;19.30;-70.43 
10.019;0.29;-0.98;0.20;-5.63;9.39;-7.23;-353.13;-214.44;8.00;1.04;-161.81;19.47;-70.24 
10.049;0.22;-1.01;0.17;-12.73;-3.83;-11.20;-354.12;-218.26;6.00;1.05;-161.54;19.70;-70.04 
10.079;0.23;-1.08;0.08;-14.05;-11.27;-18.43;-357.12;-221.12;12.00;1.11;-161.01;20.08;-69.72 
10.109;0.29;-1.00;0.03;-13.57;-3.76;-26.85;-355.12;-222.07;16.00;1.04;-160.25;20.67;-69.20 
10.139;0.31;-0.90;0.06;-11.83;-3.76;-28.94;-355.12;-230.65;17.00;0.95;-159.26;21.52;-68.39 
