Time(s) acc_x(g) acc_y(g) acc_z(g) gyr_x(°/s) gyr_y(°/s) gyr_z(°/s) mag_x(G) mag_y(G) mag_z(G) SVM(g) yaw(°) pitch(°) roll(°)
0.000;-0.93;0.00;-0.38;-5.70;-0.63;-0.56;171.43;35.38;-132.00;1.00;-77.93;-68.68;-0.08 
0.030;-0.99;-0.03;-0.37;-0.28;0.42;-1.04;170.43;36.33;-134.00;1.06;-77.83;-68.71;-0.09 
0.061;-1.00;0.00;-0.40;1.95;-0.77;-0.42;167.44;33.47;-131.00;1.08;-77.78;-68.74;-0.11 
0.090;-1.00;0.02;-0.39;1.11;-1.60;0.70;170.43;39.20;-132.00;1.07;-77.77;-68.81;-0.11 
0.120;-0.98;0.02;-0.38;1.32;-1.95;0.28;170.43;36.33;-136.00;1.05;-77.80;-68.87;-0.07 
0.150;-0.98;0.02;-0.35;0.00;0.28;-0.14;172.43;38.25;-132.00;1.04;-77.82;-68.94;-0.03 
0.179;-1.00;0.01;-0.39;-1.60;2.92;-0.77;169.44;34.42;-136.00;1.07;-77.75;-68.92;-0.02 
0.208;-1.03;0.00;-0.39;-2.99;3.13;0.14;172.43;37.29;-134.00;1.10;-77.65;-68.87;0.00 
0.238;-1.02;-0.04;-0.42;-1.60;0.56;0.28;172.43;36.33;-133.00;1.10;-77.59;-68.84;0.05 
0.269;-0.99;-0.06;-0.40;0.63;1.67;-0.35;170.43;37.29;-134.00;1.07;-77.52;-68.87;0.03 
0.299;-0.98;-0.03;-0.40;1.46;3.97;-0.28;170.43;36.33;-133.00;1.06;-77.43;-68.82;0.00 
0.329;-1.02;-0.02;-0.42;2.30;2.71;0.90;171.43;36.33;-132.00;1.10;-77.33;-68.72;-0.01 
0.358;-0.94;-0.03;-0.43;8.28;-1.60;-1.95;171.43;38.25;-132.00;1.03;-77.29;-68.71;-0.05 
0.388;-0.98;-0.12;-0.35;10.71;5.43;3.62;172.43;37.29;-132.00;1.05;-77.17;-68.64;-0.22 
0.418;-1.02;-0.09;-0.38;19.55;1.95;2.85;172.43;34.42;-130.00;1.09;-77.18;-68.59;-0.36 
0.448;-1.04;-0.05;-0.36;23.79;1.39;2.37;174.42;34.42;-129.00;1.10;-77.24;-68.57;-0.56 
0.478;-1.08;0.01;-0.34;20.59;-2.16;0.70;177.41;35.38;-129.00;1.13;-77.36;-68.62;-0.75 
0.508;-1.05;0.04;-0.31;14.82;-1.32;-2.30;181.40;37.29;-129.00;1.10;-77.47;-68.76;-0.91 
0.538;-0.94;0.04;-0.34;8.49;-0.14;-2.92;180.40;35.38;-126.00;1.00;-77.45;-68.87;-1.09 
0.568;-0.92;-0.02;-0.34;2.50;1.81;-1.04;178.41;35.38;-128.00;0.98;-77.37;-68.88;-1.21 
0.598;-0.92;-0.06;-0.31;-2.02;7.17;1.74;177.41;37.29;-128.00;0.97;-77.28;-68.79;-1.19 
0.627;-1.00;-0.11;-0.37;-4.87;10.57;2.50;179.40;36.33;-129.00;1.07;-77.17;-68.61;-1.11 
0.656;-1.00;-0.02;-0.40;-5.91;10.92;3.06;182.39;37.29;-124.00;1.08;-77.06;-68.38;-0.99 
0.686;-0.99;0.08;-0.35;-6.82;12.87;2.16;183.39;37.29;-122.00;1.05;-76.93;-68.06;-0.82 
0.716;-1.03;0.10;-0.32;-16.49;10.78;0.56;183.39;38.25;-122.00;1.08;-76.83;-67.76;-0.55 
0.746;-1.02;0.02;-0.37;-23.37;6.96;-0.21;180.40;37.29;-118.00;1.09;-76.67;-67.56;-0.26 
0.776;-1.02;-0.04;-0.42;-22.26;3.83;1.11;179.40;40.16;-119.00;1.10;-76.49;-67.45;0.04 
0.806;-1.01;-0.12;-0.46;-13.29;1.74;4.87;178.41;38.25;-117.00;1.12;-76.36;-67.38;0.25 
0.836;-0.99;-0.06;-0.42;-4.52;1.46;7.58;181.40;38.25;-118.00;1.08;-76.43;-67.37;0.47 
0.867;-0.94;-0.05;-0.41;-0.56;8.70;8.28;180.40;37.29;-117.00;1.03;-76.55;-67.28;0.69 
0.897;-1.02;0.00;-0.46;4.52;12.94;9.88;183.39;38.25;-116.00;1.12;-76.64;-66.95;0.92 
0.927;-0.99;0.06;-0.50;5.43;5.84;10.50;189.37;37.29;-111.00;1.11;-76.81;-66.68;1.14 
0.957;-0.87;0.22;-0.53;-2.57;10.50;12.10;189.37;40.16;-109.00;1.04;-77.10;-66.45;1.50 
0.987;-0.98;0.26;-0.50;-7.03;26.43;12.31;192.36;40.16;-107.00;1.13;-77.24;-65.75;2.09 
1.016;-1.18;0.12;-0.45;-6.75;9.88;10.16;193.36;35.38;-104.00;1.27;-77.32;-65.10;2.62 
1.045;-1.02;0.02;-0.50;-2.02;-7.44;8.90;196.35;38.25;-103.00;1.14;-77.62;-65.10;2.94 
1.075;-0.74;0.18;-0.41;0.77;2.85;4.03;196.35;35.38;-103.00;0.86;-77.98;-65.19;3.22 
1.105;-0.78;0.05;-0.42;5.91;23.23;-10.50;197.34;39.20;-103.00;0.89;-77.83;-64.79;3.27 
1.135;-0.93;-0.06;-0.49;12.38;29.22;-19.48;193.36;40.16;-101.00;1.05;-76.96;-64.11;2.71 
1.166;-1.15;0.00;-0.63;5.98;19.97;-7.58;191.36;42.07;-97.00;1.31;-76.02;-63.28;2.13 
1.195;-1.19;-0.02;-0.65;5.70;-12.03;1.60;191.36;40.16;-91.00;1.36;-75.94;-63.15;2.00 
1.225;-0.87;0.00;-0.54;4.73;-17.53;2.57;194.35;39.20;-91.00;1.02;-76.30;-63.65;1.94 
1.255;-0.81;0.03;-0.45;0.56;-1.04;4.52;191.36;38.25;-94.00;0.93;-76.58;-63.95;1.95 
1.285;-0.88;0.00;-0.46;-3.41;8.28;7.30;192.36;40.16;-95.00;0.99;-76.71;-63.82;2.16 
1.315;-0.94;-0.02;-0.49;-4.10;12.38;9.25;198.34;40.16;-95.00;1.06;-76.82;-63.52;2.43 
1.345;-0.98;-0.04;-0.48;-6.40;10.50;11.97;196.35;39.20;-92.00;1.09;-76.93;-63.15;2.75 
1.376;-1.00;-0.03;-0.49;-5.57;4.45;14.05;203.33;34.42;-87.00;1.11;-77.15;-62.93;3.09 
1.406;-0.90;-0.08;-0.48;-5.63;5.77;14.68;203.33;38.25;-90.00;1.02;-77.49;-62.79;3.46 
1.436;-0.85;-0.07;-0.49;-8.07;13.43;13.63;205.32;40.16;-89.00;0.98;-77.67;-62.50;3.79 
1.467;-0.83;-0.05;-0.50;-8.97;23.44;13.50;211.30;39.20;-88.00;0.97;-77.71;-61.87;4.19 
1.496;-0.81;-0.05;-0.53;-4.66;28.87;10.43;214.29;39.20;-83.00;0.97;-77.61;-61.01;4.54 
1.526;-0.82;0.00;-0.54;-4.38;32.97;6.96;212.30;39.20;-79.00;0.98;-77.36;-60.06;4.77 
1.556;-0.78;-0.07;-0.60;2.57;33.11;3.20;214.29;39.20;-70.00;0.99;-76.96;-59.04;4.82 
1.586;-0.76;-0.21;-0.54;17.81;41.81;5.70;216.28;37.29;-60.00;0.96;-76.38;-57.84;4.55 
1.616;-0.78;-0.22;-0.51;25.88;39.51;12.17;220.27;40.16;-54.00;0.96;-75.99;-56.61;4.15 
1.646;-0.77;-0.09;-0.58;28.59;34.71;17.25;223.26;39.20;-45.00;0.97;-75.96;-55.50;3.86 
1.676;-0.81;0.02;-0.56;23.30;31.17;21.29;228.24;40.16;-34.00;0.98;-76.25;-54.36;3.79 
1.706;-0.78;0.06;-0.54;16.21;16.70;16.07;233.23;38.25;-32.00;0.95;-76.78;-53.59;3.91 
1.736;-0.70;0.10;-0.53;4.73;15.86;4.73;235.22;37.29;-26.00;0.88;-77.14;-53.08;4.05 
1.767;-0.61;0.06;-0.46;6.19;12.87;-10.23;234.22;36.33;-23.00;0.77;-77.12;-52.62;3.99 
1.797;-0.62;0.02;-0.40;-1.53;10.57;-25.18;229.24;37.29;-24.00;0.74;-76.63;-52.38;3.50 
1.827;-0.55;0.06;-0.49;-14.47;4.38;-30.33;227.25;37.29;-20.00;0.74;-75.86;-52.23;2.98 
1.856;-0.42;0.06;-0.47;-24.56;-6.40;-24.70;218.28;40.16;-23.00;0.63;-75.10;-52.21;2.69 
1.885;-0.35;-0.12;-0.28;-36.80;-9.11;-16.00;215.29;42.07;-29.00;0.46;-74.63;-52.43;2.72 
1.915;-0.53;-0.18;-0.34;-51.06;13.22;-14.26;211.30;43.98;-29.00;0.65;-73.83;-52.41;2.81 
1.945;-0.90;0.04;-0.25;-30.40;-16.49;-5.91;207.31;44.94;-32.00;0.93;-73.53;-52.49;3.24 
1.976;-0.59;0.34;-0.32;-45.70;-54.19;-13.57;203.33;44.94;-41.00;0.75;-74.15;-53.98;3.89 
2.006;-0.19;0.22;-0.49;-43.62;-31.10;-12.17;201.33;41.11;-54.00;0.57;-74.54;-55.28;4.65 
2.036;-0.42;0.17;-0.47;-64.49;4.10;15.93;199.34;43.98;-56.00;0.65;-74.65;-55.33;5.70 
2.066;-1.14;-0.26;-0.81;-90.37;14.12;50.50;204.32;42.07;-65.00;1.42;-75.09;-54.59;7.81 
2.096;-1.54;-0.13;-0.72;-63.23;-44.94;82.09;217.28;39.20;-73.00;1.70;-77.04;-54.63;10.43 
2.126;-1.05;0.19;-0.66;-64.49;-85.01;112.00;234.22;35.38;-89.00;1.25;-81.19;-55.60;13.77 
2.156;-0.74;0.01;-0.54;-63.72;-63.30;157.08;255.15;23.90;-110.00;0.92;-86.62;-55.74;17.97 
2.187;-1.29;0.17;-0.56;-81.18;-63.37;228.80;302.99;3.82;-140.00;1.42;-93.48;-53.58;23.76 
2.217;-1.78;0.45;-0.80;-117.01;-128.14;234.30;324.92;-5.74;-150.00;2.00;-103.42;-50.21;31.34 
2.246;-2.25;2.53;-1.10;-201.32;-183.37;282.99;376.75;-52.59;-206.00;3.56;-115.61;-46.13;39.47 
2.277;-1.79;5.62;-1.26;-117.01;45.91;266.64;408.64;-105.18;-254.00;6.03;-133.67;-38.25;50.72 
2.307;-0.82;0.86;0.49;60.24;20.31;209.46;440.54;-141.51;-261.00;1.29;-141.52;-31.37;57.78 
2.337;-0.90;-1.30;-0.21;-310.05;2.50;294.19;454.49;-172.11;-277.00;1.60;-153.08;-23.99;65.84 
2.367;-0.75;-1.23;-1.10;-55.17;-107.48;239.23;439.54;-210.36;-314.00;1.81;-167.94;-16.60;72.94 
2.397;0.52;1.30;1.06;78.12;-134.75;169.32;460.47;-252.43;-317.00;1.76;-172.33;-10.32;79.36 
2.427;0.58;1.81;0.57;-156.80;-45.77;258.37;458.48;-313.62;-330.00;1.98;177.82;-3.30;83.23 
2.457;0.69;1.31;0.10;-98.92;-103.23;296.56;442.53;-361.43;-350.00;1.48;166.63;5.32;79.05 
2.487;0.78;1.38;0.42;-64.49;-53.57;257.67;421.60;-413.06;-354.00;1.64;156.11;14.44;71.02 
2.517;0.54;1.88;-0.11;-18.78;-181.63;126.54;403.66;-449.40;-361.00;1.96;149.43;21.48;64.77 
2.547;1.47;0.69;0.46;12.17;-97.88;-74.78;400.67;-486.69;-350.00;1.69;150.57;23.04;64.39 
2.578;1.22;0.53;0.42;40.28;74.23;-49.81;418.61;-478.08;-336.00;1.39;153.21;21.39;66.53 
2.608;-0.14;0.33;-0.11;-42.57;103.86;36.17;419.61;-464.69;-341.00;0.37;152.11;20.88;66.37 
2.638;-0.34;-0.02;-0.10;-23.58;-68.66;25.88;409.64;-461.83;-344.00;0.35;150.71;21.51;65.36 
2.668;1.10;0.67;0.50;-18.99;-109.57;-7.10;405.65;-474.26;-345.00;1.38;150.77;22.61;64.64 
2.699;1.48;0.92;0.10;-26.30;28.38;-38.12;406.65;-479.99;-343.00;1.75;151.23;22.42;64.68 
2.729;0.69;0.90;0.14;-21.29;68.80;-16.42;404.66;-472.34;-348.00;1.14;150.57;22.18;64.38 
2.759;0.41;1.01;0.31;-4.45;4.80;-26.85;405.65;-466.61;-352.00;1.13;150.64;21.32;64.72 
2.790;0.62;0.97;0.33;-7.79;19.62;-27.34;408.64;-453.22;-357.00;1.20;151.12;20.57;65.17 
2.819;0.26;0.88;0.26;1.46;16.28;-28.94;408.64;-450.35;-358.00;0.95;151.61;19.69;65.70 
2.849;0.20;0.89;0.20;8.56;0.07;-30.61;409.64;-448.44;-357.00;0.93;152.48;18.72;66.49 
2.879;0.38;0.86;0.22;17.60;-2.92;-35.20;408.64;-443.66;-357.00;0.97;153.73;17.75;67.54 
2.909;0.38;1.02;0.24;12.38;22.33;-36.52;416.62;-439.83;-355.00;1.11;154.95;16.69;68.65 
2.939;0.11;1.03;0.13;18.23;25.11;-36.73;421.60;-427.40;-357.00;1.04;156.05;15.42;69.73 
2.968;0.10;1.02;0.09;30.26;13.22;-27.34;427.58;-420.71;-354.00;1.03;157.44;14.27;71.08 
2.999;0.22;1.02;0.25;29.01;-0.14;-34.02;432.56;-414.97;-350.00;1.07;158.95;13.26;72.44 
3.029;0.30;1.03;0.00;26.78;7.79;-39.79;438.54;-413.06;-347.00;1.07;160.60;12.18;73.87 
3.059;0.30;0.94;0.06;32.83;14.82;-44.17;446.52;-401.59;-341.00;0.99;162.28;10.94;75.35 
3.090;0.41;0.95;0.17;18.57;20.03;-65.32;452.50;-399.68;-339.00;1.05;164.17;9.39;76.95 
3.120;0.36;1.23;-0.15;20.59;34.99;-85.08;456.48;-379.60;-340.00;1.29;166.57;7.15;78.86 
3.150;0.38;1.38;-0.04;10.99;42.30;-104.63;461.47;-364.30;-335.00;1.43;169.57;4.40;80.97 
3.179;0.31;1.54;-0.12;-7.93;64.70;-118.75;462.46;-331.79;-334.00;1.58;172.61;1.14;82.18 
3.209;0.16;1.60;-0.16;-22.89;64.90;-108.10;458.48;-304.06;-336.00;1.62;175.60;-2.42;81.72 
3.239;0.04;1.26;-0.07;-46.82;72.49;-110.47;449.51;-283.02;-340.00;1.26;177.89;-5.88;79.50 
3.269;-0.13;1.03;-0.09;-60.03;89.39;-108.45;438.54;-259.12;-339.00;1.04;179.71;-9.39;76.44 
3.300;-0.30;0.74;0.07;-51.69;96.97;-111.65;413.63;-217.05;-346.00;0.80;-178.65;-13.06;73.01 
3.330;-0.49;0.63;0.27;-16.63;93.43;-117.70;400.67;-189.32;-337.00;0.84;-176.00;-17.36;69.27 
3.360;-0.50;0.63;0.06;-6.26;83.97;-116.59;386.72;-162.55;-333.00;0.81;-172.35;-21.59;65.79 
3.390;-0.37;0.83;0.22;10.99;74.57;-106.02;375.75;-138.64;-324.00;0.93;-167.98;-25.43;62.71 
3.420;-0.48;0.69;0.29;2.92;86.96;-101.15;363.79;-112.83;-308.00;0.89;-163.93;-28.77;59.91 
3.450;-0.86;0.57;-0.10;26.50;57.39;-95.44;350.84;-92.75;-295.00;1.04;-159.18;-32.00;57.18 
3.480;-0.67;0.65;0.02;33.67;54.89;-75.69;343.86;-78.41;-287.00;0.93;-153.90;-34.72;54.86 
3.511;-0.78;0.83;0.12;32.28;42.57;-61.57;336.88;-65.98;-277.00;1.15;-148.74;-36.92;52.91 
3.540;-0.66;0.68;-0.03;51.06;52.31;-56.42;332.89;-53.55;-261.00;0.95;-143.60;-38.79;51.19 
3.570;-0.69;0.70;0.19;54.68;58.85;-52.80;331.90;-46.85;-249.00;1.00;-138.00;-40.27;49.71 
3.601;-0.66;0.62;0.01;57.11;76.80;-53.43;333.89;-33.47;-240.00;0.91;-131.46;-41.76;48.00 
3.630;-0.84;0.50;-0.29;56.07;94.12;-59.34;324.92;-22.95;-221.00;1.02;-123.94;-43.16;46.03 
3.660;-0.90;0.60;-0.42;56.00;77.91;-70.61;321.93;-10.52;-200.00;1.16;-116.48;-44.38;43.92 
3.690;-0.78;0.55;-0.22;60.17;80.90;-88.70;305.98;7.65;-177.00;0.98;-109.04;-45.95;41.17 
3.720;-0.86;0.56;-0.43;58.02;85.01;-86.61;294.02;22.95;-158.00;1.11;-101.39;-47.46;38.03 
3.750;-0.82;0.73;-0.32;65.18;97.81;-78.68;283.06;33.47;-141.00;1.14;-94.49;-48.52;34.97 
3.780;-0.97;0.73;-0.12;43.76;116.10;-70.47;277.08;40.16;-130.00;1.22;-88.08;-48.55;32.46 
3.811;-1.06;0.84;-0.66;33.81;101.84;-77.84;250.17;57.37;-83.00;1.50;-81.35;-48.10;29.98 
3.841;-1.18;0.78;-0.65;17.88;77.29;-72.97;232.23;61.19;-61.00;1.56;-76.19;-47.79;27.73 
3.871;-1.18;0.66;-0.77;20.80;16.77;-53.84;220.27;61.19;-52.00;1.56;-72.59;-47.74;25.79 
3.900;-0.77;0.94;-0.70;10.85;8.00;-53.98;205.32;62.15;-42.00;1.40;-71.19;-48.11;24.52 
3.930;-0.86;0.49;-0.87;4.59;-3.90;-44.10;192.36;60.24;-42.00;1.32;-69.91;-48.60;23.40 
3.960;-0.93;0.48;-0.74;10.37;-25.46;-21.22;176.41;58.33;-43.00;1.28;-69.88;-49.32;22.56 
3.990;-0.77;0.50;-0.48;8.21;-41.04;-9.18;176.41;55.46;-51.00;1.04;-71.33;-50.35;22.14 
4.020;-0.82;0.48;-0.58;1.25;-45.63;-1.88;178.41;55.46;-52.00;1.11;-73.11;-51.33;22.03 
4.050;-0.86;0.58;-0.47;-7.65;-48.21;-4.52;174.42;57.37;-70.00;1.14;-74.92;-52.34;22.11 
4.080;-0.85;0.46;-0.49;-14.19;-45.63;-6.05;168.44;56.41;-78.00;1.08;-76.63;-53.39;22.33 
4.111;-0.77;0.48;-0.40;-16.70;-47.58;-0.77;169.44;56.41;-84.00;0.99;-78.59;-54.51;22.53 
4.141;-0.68;0.44;-0.38;-24.21;-40.21;4.38;164.45;55.46;-93.00;0.89;-80.54;-55.33;23.08 
4.171;-0.70;0.34;-0.45;-17.74;-32.07;6.75;162.46;51.63;-103.00;0.90;-82.22;-55.86;23.59 
4.201;-0.71;0.07;-0.45;-15.65;-25.74;30.54;161.46;48.76;-106.00;0.84;-83.78;-56.02;24.21 
4.231;-0.77;0.17;-0.38;-4.38;-25.25;46.61;169.44;50.68;-110.00;0.88;-85.95;-55.72;25.27 
4.261;-0.74;0.18;-0.34;21.01;-23.65;46.68;176.41;46.85;-117.00;0.83;-88.30;-55.25;26.23 
4.291;-0.73;0.49;-0.37;35.69;-21.50;46.75;188.37;44.94;-121.00;0.95;-90.70;-54.50;27.20 
4.321;-0.79;0.35;-0.30;63.17;-6.75;9.81;202.33;44.94;-125.00;0.91;-92.68;-53.92;27.76 
4.350;-1.28;0.50;-0.54;95.93;14.05;-42.99;201.33;48.76;-116.00;1.48;-92.34;-54.09;26.52 
4.380;-0.86;-0.66;-0.46;79.17;14.40;-24.90;195.35;49.72;-111.00;1.18;-90.40;-55.14;23.73 
4.411;-1.32;0.02;-0.71;90.23;44.17;-8.56;196.35;52.59;-101.00;1.50;-88.74;-54.89;21.67 
4.441;-1.34;0.15;-0.84;97.81;55.23;-22.33;199.34;53.55;-82.00;1.59;-86.76;-54.18;19.41 
4.471;-1.40;0.05;-0.75;85.70;50.85;-24.35;201.33;57.37;-65.00;1.59;-84.94;-53.33;17.07 
4.501;-1.38;0.06;-0.78;54.89;43.34;-38.05;196.35;55.46;-54.00;1.59;-83.20;-52.60;14.90 
4.531;-1.34;-0.03;-0.80;22.47;35.69;-21.84;196.35;54.50;-50.00;1.56;-81.56;-52.05;13.17 
4.561;-1.18;-0.05;-0.78;16.07;10.92;5.08;189.37;58.33;-37.00;1.42;-80.72;-51.46;12.32 
4.591;-1.07;0.26;-0.68;26.50;1.18;0.97;192.36;58.33;-34.00;1.29;-80.99;-51.19;12.14 
4.622;-0.98;0.21;-0.68;50.50;-7.86;-28.10;187.38;58.33;-35.00;1.21;-80.64;-51.63;10.73 
4.651;-1.00;0.07;-0.66;29.36;11.83;-9.74;184.39;61.19;-34.00;1.20;-80.30;-51.61;9.60 
4.680;-0.95;-0.04;-0.62;36.66;9.95;-4.59;181.40;61.19;-28.00;1.14;-80.00;-51.43;8.69 
4.711;-1.02;0.09;-0.66;45.08;22.61;0.28;186.38;54.50;-24.00;1.22;-79.77;-50.92;7.72 
4.741;-0.98;0.25;-0.65;36.17;10.92;0.97;185.38;55.46;-21.00;1.20;-79.92;-50.70;6.98 
4.771;-0.98;0.17;-0.65;36.87;2.99;2.64;186.38;55.46;-21.00;1.19;-80.17;-50.59;6.41 
4.801;-1.07;0.13;-0.58;25.88;-8.77;-0.97;186.38;52.59;-16.00;1.22;-80.35;-50.69;5.78 
4.832;-0.97;0.07;-0.66;23.86;-22.68;6.82;188.37;51.63;-20.00;1.18;-80.78;-51.18;5.35 
4.862;-0.86;0.09;-0.66;28.80;-19.27;6.19;190.37;50.68;-23.00;1.09;-81.37;-51.83;5.00 
4.892;-0.82;0.05;-0.58;31.23;-12.80;3.83;192.36;51.63;-26.00;1.01;-81.79;-52.29;4.57 
4.922;-0.85;0.09;-0.59;21.01;-14.47;6.40;196.35;51.63;-29.00;1.04;-82.21;-52.77;4.18 
4.952;-0.82;0.10;-0.62;13.70;-16.90;6.96;198.34;49.72;-30.00;1.03;-82.62;-53.23;3.99 
4.982;-0.77;0.12;-0.66;0.90;-22.89;9.32;201.33;52.59;-34.00;1.02;-83.12;-53.78;4.09 
5.012;-0.69;0.18;-0.57;-2.85;-26.37;4.59;202.33;49.72;-37.00;0.91;-83.68;-54.50;4.32 
5.042;-0.82;0.30;-0.49;-19.41;-37.29;-2.02;202.33;49.72;-43.00;1.00;-84.18;-55.39;4.73 
5.072;-0.66;0.22;-0.58;-25.67;-45.91;-6.33;201.33;49.72;-57.00;0.91;-84.60;-56.62;5.17 
5.102;-0.57;-0.03;-0.44;-18.57;-35.06;-3.34;198.34;48.76;-61.00;0.72;-84.82;-57.79;5.43 
5.133;-0.62;-0.22;-0.34;-1.11;-22.47;-0.14;197.34;50.68;-67.00;0.74;-84.87;-58.77;5.31 
5.163;-0.65;-0.19;-0.43;20.94;-16.28;3.48;203.33;48.76;-71.00;0.80;-84.83;-59.43;4.88 
5.192;-0.61;0.03;-0.44;30.19;-12.38;12.94;203.33;46.85;-73.00;0.75;-85.07;-59.84;4.52 
5.223;-0.63;0.18;-0.44;25.18;-14.26;18.43;207.31;47.81;-76.00;0.79;-85.71;-60.10;4.57 
5.253;-0.66;0.31;-0.47;19.48;-26.30;12.66;208.31;46.85;-83.00;0.87;-86.53;-60.50;4.86 
5.283;-0.64;0.25;-0.50;14.05;-28.87;2.16;216.28;43.98;-83.00;0.85;-87.15;-61.13;5.05 
5.313;-0.70;0.14;-0.46;13.15;-17.25;-10.37;216.28;40.16;-90.00;0.85;-87.32;-61.76;4.89 
5.344;-1.07;0.13;-0.55;2.23;-22.26;-17.32;211.30;40.16;-91.00;1.21;-87.07;-62.27;4.48 
5.374;-1.16;0.26;-0.53;-4.24;-30.05;-28.03;207.31;39.20;-97.00;1.30;-86.72;-63.21;4.02 
5.404;-1.00;0.25;-0.42;-12.87;-36.80;-23.86;203.33;41.11;-105.00;1.11;-86.31;-64.44;3.55 
5.435;-0.85;0.09;-0.42;-18.30;-21.70;-19.76;195.35;42.07;-112.00;0.95;-85.93;-65.53;3.22 
5.465;-0.89;-0.02;-0.45;-18.30;-2.16;-13.84;190.37;39.20;-118.00;1.00;-85.41;-65.97;2.96 
5.495;-0.97;-0.05;-0.57;-14.05;1.60;-8.42;186.38;43.03;-117.00;1.13;-84.93;-65.99;2.80 
5.524;-0.97;-0.02;-0.52;-5.29;-1.53;-8.70;180.40;40.16;-118.00;1.10;-84.52;-65.93;2.65 
5.554;-0.95;0.02;-0.40;2.43;-7.17;-13.01;179.40;41.11;-118.00;1.03;-84.18;-66.14;2.37 
5.584;-0.89;0.01;-0.51;5.91;-0.63;-13.57;178.41;43.03;-119.00;1.03;-83.77;-66.32;1.96 
5.614;-0.99;0.00;-0.58;6.75;8.70;-8.28;173.42;43.98;-117.00;1.15;-83.26;-66.16;1.55 
5.645;-1.03;-0.04;-0.56;9.18;2.09;-5.01;176.41;42.07;-114.00;1.17;-82.88;-65.93;1.24 
5.674;-0.92;-0.08;-0.51;13.29;-4.87;-3.13;170.43;42.07;-117.00;1.05;-82.66;-65.99;0.95 
5.704;-0.84;-0.05;-0.39;13.77;0.35;-0.63;173.42;43.98;-114.00;0.93;-82.49;-66.07;0.64 
5.735;-0.96;0.01;-0.37;11.90;10.78;0.90;171.43;41.11;-116.00;1.03;-82.39;-65.95;0.47 
5.765;-1.15;0.08;-0.38;5.36;11.62;-2.30;173.42;43.03;-113.00;1.21;-82.25;-65.64;0.40 
5.795;-1.18;0.04;-0.44;1.39;0.42;-10.57;174.42;44.94;-113.00;1.26;-82.00;-65.53;0.24 
5.825;-1.01;0.00;-0.40;-1.81;-1.11;-16.14;172.43;43.03;-110.00;1.09;-81.58;-65.65;-0.10 
5.856;-0.94;-0.01;-0.38;-4.31;6.61;-19.06;165.45;43.03;-111.00;1.01;-80.95;-65.57;-0.54 
5.886;-0.98;0.00;-0.38;-7.17;2.23;-15.10;164.45;46.85;-109.00;1.05;-80.27;-65.44;-0.95 
5.916;-0.97;-0.02;-0.37;-16.00;-0.70;-10.78;157.48;45.90;-108.00;1.04;-79.81;-65.49;-1.15 
5.947;-0.93;-0.14;-0.36;-16.42;-0.90;-7.58;152.49;45.90;-109.00;1.01;-79.39;-65.57;-1.25 
5.977;-0.95;-0.15;-0.41;-11.20;-1.32;-3.90;153.49;43.98;-109.00;1.05;-79.05;-65.63;-1.30 
6.007;-0.94;-0.13;-0.42;-5.70;4.52;0.42;152.49;47.81;-111.00;1.04;-78.83;-65.63;-1.33 
6.036;-0.98;-0.02;-0.45;-3.41;6.05;2.99;151.50;45.90;-110.00;1.08;-78.71;-65.50;-1.25 
6.066;-0.96;-0.06;-0.47;-4.17;4.59;4.38;148.51;47.81;-104.00;1.07;-78.68;-65.35;-1.10 
6.096;-0.99;-0.08;-0.44;-4.31;3.69;5.36;156.48;47.81;-108.00;1.09;-78.69;-65.27;-0.93 
6.126;-1.01;-0.02;-0.54;-5.63;-2.57;5.84;156.48;44.94;-104.00;1.15;-78.67;-65.25;-0.83 
6.157;-1.01;-0.18;-0.48;2.16;-7.17;9.32;152.49;46.85;-112.00;1.13;-78.85;-65.36;-0.59 
6.187;-0.98;-0.08;-0.44;6.61;4.80;9.74;161.46;43.98;-105.00;1.08;-79.00;-65.45;-0.48 
6.217;-0.91;0.04;-0.42;10.57;12.24;7.10;161.46;44.94;-108.00;1.00;-79.16;-65.25;-0.32 
6.247;-0.88;0.10;-0.47;12.24;18.64;0.49;161.46;47.81;-102.00;1.00;-79.12;-64.83;-0.29 
6.276;-1.03;0.04;-0.50;9.88;17.88;0.21;162.46;48.76;-97.00;1.15;-78.90;-64.24;-0.39 
6.306;-1.09;0.02;-0.56;1.32;1.46;6.75;166.45;45.90;-98.00;1.23;-78.84;-63.92;-0.36 
6.336;-0.90;0.07;-0.51;-0.07;-3.27;7.65;165.45;47.81;-95.00;1.04;-79.05;-63.98;-0.13 
6.366;-0.91;0.09;-0.51;-3.97;4.38;4.10;166.45;46.85;-98.00;1.05;-79.23;-63.96;0.14 
6.396;-1.06;0.02;-0.50;-2.43;2.57;1.25;170.43;46.85;-97.00;1.17;-79.27;-63.87;0.31 
6.426;-1.11;-0.03;-0.51;1.25;-5.77;4.73;168.44;48.76;-96.00;1.22;-79.31;-63.93;0.40 
6.457;-0.90;-0.05;-0.48;7.65;-7.93;8.21;171.43;46.85;-96.00;1.02;-79.57;-64.22;0.50 
6.487;-0.82;0.02;-0.46;11.41;6.75;4.17;172.43;44.94;-99.00;0.94;-79.77;-64.29;0.53 
6.516;-0.99;0.07;-0.53;6.89;15.86;2.23;176.41;43.03;-98.00;1.13;-79.73;-63.91;0.54 
6.546;-1.02;0.11;-0.51;4.24;4.59;1.04;173.42;44.94;-94.00;1.15;-79.68;-63.60;0.57 
6.576;-0.96;0.05;-0.46;1.60;1.95;0.77;174.42;44.94;-95.00;1.07;-79.68;-63.56;0.60 
6.606;-0.92;0.01;-0.48;2.57;8.00;0.28;173.42;46.85;-95.00;1.04;-79.62;-63.47;0.59 
6.636;-0.98;0.00;-0.52;6.12;14.05;-0.21;176.41;44.94;-91.00;1.11;-79.46;-63.14;0.54 
6.667;-1.02;0.03;-0.50;4.66;8.49;0.28;175.42;46.85;-93.00;1.14;-79.33;-62.82;0.50 
6.697;-0.96;0.00;-0.49;6.54;5.43;-0.28;176.41;48.76;-85.00;1.08;-79.25;-62.66;0.43 
6.727;-0.93;-0.02;-0.51;6.47;7.79;0.00;174.42;46.85;-87.00;1.06;-79.17;-62.52;0.34 
6.758;-1.02;0.06;-0.53;1.25;6.89;1.25;171.43;43.98;-83.00;1.15;-79.10;-62.30;0.32 
6.788;-1.02;0.06;-0.51;-2.23;-3.27;-0.07;177.41;48.76;-83.00;1.14;-79.13;-62.26;0.41 
6.818;-0.94;0.06;-0.50;-3.34;-4.52;-0.21;176.41;48.76;-83.00;1.07;-79.20;-62.47;0.48 
6.847;-0.93;0.04;-0.47;-1.25;1.67;-1.53;173.42;48.76;-83.00;1.04;-79.18;-62.55;0.51 
6.877;-0.98;0.02;-0.50;-0.28;2.30;-1.53;173.42;46.85;-85.00;1.10;-79.08;-62.52;0.48 
6.907;-0.98;0.06;-0.52;0.77;1.18;-1.95;178.41;44.94;-85.00;1.11;-79.05;-62.51;0.48 
6.937;-0.98;0.05;-0.51;1.60;0.00;-2.23;172.43;47.81;-84.00;1.11;-78.99;-62.50;0.45 
6.968;-0.96;0.01;-0.52;1.74;-0.70;-2.71;175.42;44.94;-85.00;1.09;-78.92;-62.55;0.39 
6.998;-0.95;0.01;-0.50;0.77;-1.46;-0.90;176.41;45.90;-84.00;1.07;-78.88;-62.62;0.32 
7.028;-0.95;0.00;-0.46;-0.49;-0.77;0.21;172.43;48.76;-83.00;1.06;-78.87;-62.69;0.32 
7.059;-0.99;0.06;-0.51;-4.45;1.11;-0.83;173.42;44.94;-85.00;1.12;-78.86;-62.72;0.37 
7.089;-1.02;0.04;-0.51;-7.79;-0.14;-1.67;173.42;47.81;-87.00;1.14;-78.82;-62.73;0.48 
7.119;-0.96;-0.03;-0.51;-7.10;-3.69;-2.92;174.42;43.98;-85.00;1.09;-78.74;-62.83;0.53 
7.149;-0.94;-0.10;-0.47;-3.13;-1.18;-0.90;170.43;43.03;-87.00;1.06;-78.63;-62.96;0.49 
7.180;-0.91;-0.10;-0.51;2.78;4.66;0.42;174.42;45.90;-84.00;1.05;-78.51;-62.93;0.43 
7.210;-0.99;-0.05;-0.53;6.96;3.69;1.88;175.42;43.98;-84.00;1.12;-78.43;-62.80;0.34 
7.240;-0.95;-0.05;-0.55;7.86;2.37;2.23;171.43;45.90;-84.00;1.10;-78.43;-62.73;0.27 
7.271;-0.94;-0.04;-0.54;7.93;2.85;2.57;173.42;43.98;-84.00;1.08;-78.45;-62.68;0.20 
7.301;-0.96;-0.03;-0.53;7.23;3.62;2.78;176.41;45.90;-83.00;1.10;-78.46;-62.60;0.13 
7.331;-0.95;0.00;-0.54;4.59;3.69;3.27;178.41;45.90;-84.00;1.09;-78.48;-62.52;0.10 
7.361;-0.95;-0.02;-0.51;1.46;2.57;3.76;178.41;44.94;-83.00;1.08;-78.53;-62.43;0.14 
7.392;-0.94;0.02;-0.54;-1.53;0.35;2.57;178.41;46.85;-83.00;1.08;-78.60;-62.40;0.24 
7.422;-0.91;-0.02;-0.53;-4.24;2.71;1.95;179.40;45.90;-81.00;1.05;-78.63;-62.38;0.33 
7.452;-0.94;-0.02;-0.53;-6.96;6.40;0.70;174.42;44.94;-81.00;1.08;-78.56;-62.26;0.41 
7.483;-0.94;-0.03;-0.53;-10.16;8.83;0.00;181.40;47.81;-79.00;1.08;-78.43;-62.04;0.52 
7.513;-0.90;-0.07;-0.54;-11.55;9.04;-0.63;180.40;45.90;-78.00;1.05;-78.25;-61.79;0.63 
7.543;-0.86;-0.11;-0.56;-11.48;13.22;-1.88;178.41;44.94;-76.00;1.03;-77.99;-61.48;0.70 
7.573;-0.84;-0.12;-0.54;-11.20;19.90;-3.20;176.41;44.94;-71.00;1.01;-77.60;-61.01;0.69 
7.603;-0.84;-0.07;-0.59;-12.10;27.13;-5.22;175.42;46.85;-67.00;1.03;-77.07;-60.27;0.66 
7.633;-0.78;-0.03;-0.63;-18.50;30.26;-7.17;173.42;46.85;-62.00;1.00;-76.45;-59.38;0.67 
7.663;-0.69;0.06;-0.62;-29.77;40.90;-5.98;175.42;47.81;-53.00;0.93;-75.75;-58.25;0.87 
