Time(s) acc_x(g) acc_y(g) acc_z(g) gyr_x(°/s) gyr_y(°/s) gyr_z(°/s) mag_x(G) mag_y(G) mag_z(G) SVM(g) yaw(°) pitch(°) roll(°)
0.000;-0.35;0.18;0.89;-9.46;-19.83;7.30;180.03;-384.09;-390.00;0.97;-161.74;-17.20;9.52 
0.030;-0.30;0.11;0.80;-5.08;-16.35;-5.43;183.00;-388.83;-392.00;0.86;-162.04;-16.61;9.22 
0.060;-0.34;0.14;0.74;-2.57;-14.54;-15.93;179.04;-388.83;-391.00;0.83;-161.94;-16.21;8.96 
0.090;-0.34;0.22;0.68;-2.30;-13.84;-17.46;177.06;-391.68;-390.00;0.79;-161.61;-15.84;8.73 
0.120;-0.43;0.34;0.58;5.29;-0.83;-6.47;180.03;-394.52;-389.00;0.80;-161.45;-15.71;8.76 
0.150;-0.51;0.23;0.66;6.82;19.13;-12.31;182.01;-390.73;-388.00;0.87;-161.30;-16.19;9.03 
0.180;-0.65;0.02;1.03;4.66;30.75;-24.63;184.98;-385.04;-391.00;1.22;-160.81;-17.38;8.95 
0.211;-0.60;0.26;0.87;-6.75;-15.79;-19.62;183.00;-381.25;-393.00;1.09;-160.11;-17.89;8.60 
0.240;-0.47;0.29;0.69;-5.57;-26.30;-0.70;180.03;-386.94;-392.00;0.88;-160.03;-17.53;8.35 
0.269;-0.36;0.20;0.66;-4.52;-18.23;7.03;182.01;-392.63;-388.00;0.78;-160.35;-16.93;8.31 
0.298;-0.43;0.06;0.79;-3.13;0.56;-1.67;183.00;-394.52;-391.00;0.90;-160.64;-16.76;8.17 
0.327;-0.48;0.08;0.84;0.56;-2.23;-7.86;181.02;-394.52;-393.00;0.97;-160.64;-16.89;7.95 
0.356;-0.45;0.11;0.77;0.21;-9.53;-8.21;180.03;-391.68;-394.00;0.90;-160.55;-16.88;7.81 
0.385;-0.42;0.14;0.78;1.11;-7.93;-8.21;183.99;-397.37;-389.00;0.90;-160.47;-16.75;7.68 
0.414;-0.39;0.26;0.79;1.46;-2.43;-6.68;181.02;-396.42;-390.00;0.92;-160.36;-16.74;7.65 
0.443;-0.41;0.18;0.78;-0.35;-1.11;-2.16;183.00;-396.42;-392.00;0.90;-160.39;-16.78;7.68 
0.472;-0.40;0.10;0.80;-0.14;-0.49;-4.80;184.98;-398.32;-391.00;0.90;-160.46;-16.84;7.63 
0.501;-0.41;0.10;0.83;-0.42;-2.71;-11.55;183.00;-394.52;-393.00;0.93;-160.37;-16.96;7.52 
0.531;-0.41;0.18;0.81;-2.85;-3.90;-12.87;182.01;-395.47;-392.00;0.93;-160.17;-16.99;7.35 
0.561;-0.41;0.18;0.77;-3.62;1.46;-10.30;184.98;-397.37;-392.00;0.89;-160.01;-17.11;7.18 
0.592;-0.42;0.20;0.80;-2.85;0.70;-2.64;183.00;-395.47;-393.00;0.93;-159.98;-17.26;7.04 
0.622;-0.45;0.15;0.81;-2.57;-0.56;0.97;181.02;-399.27;-390.00;0.94;-160.10;-17.42;6.97 
0.652;-0.43;0.07;0.87;-4.45;-4.80;0.28;183.00;-396.42;-389.00;0.97;-160.32;-17.43;6.83 
0.682;-0.38;0.10;0.85;-3.69;-8.42;0.63;181.02;-398.32;-391.00;0.94;-160.51;-17.31;6.60 
0.711;-0.37;0.06;0.72;-0.97;-7.65;1.60;179.04;-400.21;-392.00;0.81;-160.74;-17.12;6.46 
0.740;-0.36;0.02;0.74;2.23;4.31;-1.04;179.04;-402.11;-391.00;0.82;-160.91;-17.12;6.39 
0.769;-0.41;0.05;0.82;3.48;8.35;-2.02;179.04;-400.21;-393.00;0.92;-160.97;-17.38;6.32 
0.798;-0.40;0.11;0.90;3.69;-1.88;3.83;178.05;-400.21;-391.00;0.99;-161.07;-17.59;6.35 
0.827;-0.39;0.12;0.78;2.78;-6.19;10.23;178.05;-400.21;-394.00;0.88;-161.40;-17.50;6.46 
0.857;-0.38;0.02;0.77;5.22;0.49;12.45;184.98;-403.06;-391.00;0.86;-161.84;-17.42;6.58 
0.887;-0.36;-0.02;0.86;8.97;-0.28;9.88;183.00;-400.21;-390.00;0.93;-162.29;-17.40;6.83 
0.917;-0.37;0.00;0.78;13.15;-4.10;7.23;185.97;-403.06;-388.00;0.86;-162.59;-17.38;7.04 
0.947;-0.33;0.06;0.78;18.09;-2.92;9.18;187.94;-403.06;-392.00;0.85;-162.86;-17.22;7.46 
0.978;-0.40;0.08;0.82;22.54;-0.90;12.31;189.92;-405.91;-387.00;0.92;-163.15;-17.19;8.05 
1.008;-0.40;0.00;0.82;25.39;-4.03;11.41;198.82;-405.91;-387.00;0.91;-163.48;-17.16;8.73 
1.038;-0.38;0.02;0.82;28.52;-7.37;8.21;201.79;-406.85;-385.00;0.90;-163.68;-17.05;9.42 
1.068;-0.38;0.00;0.74;32.35;-9.11;6.75;206.74;-408.75;-384.00;0.83;-163.80;-16.87;10.19 
1.098;-0.33;0.03;0.74;37.57;-9.25;4.17;220.59;-413.49;-381.00;0.81;-163.83;-16.66;11.10 
1.128;-0.37;0.03;0.77;40.42;-9.11;3.83;224.54;-415.39;-379.00;0.85;-163.77;-16.47;12.05 
1.158;-0.38;-0.03;0.75;44.17;-15.17;3.76;233.45;-419.18;-373.00;0.84;-163.69;-16.24;13.10 
1.187;-0.36;-0.04;0.55;47.30;-13.98;0.70;240.37;-421.08;-373.00;0.66;-163.55;-15.92;14.16 
1.217;-0.29;0.02;0.49;49.88;-2.50;-1.18;253.23;-421.08;-367.00;0.57;-163.36;-15.68;15.41 
1.246;-0.28;0.03;0.50;48.28;3.20;-0.49;264.11;-425.82;-361.00;0.57;-163.07;-15.91;16.61 
1.276;-0.29;-0.02;0.40;40.63;-5.98;-2.57;270.04;-422.98;-357.00;0.49;-162.88;-15.92;17.81 
1.306;-0.22;-0.06;0.26;33.60;-11.90;-7.79;276.97;-424.87;-359.00;0.35;-162.53;-15.93;18.56 
1.336;-0.13;-0.06;0.13;33.18;-4.52;-22.61;283.89;-427.72;-355.00;0.19;-161.89;-16.18;18.93 
1.367;0.04;-0.04;0.03;51.20;-0.42;-39.03;295.76;-424.87;-351.00;0.06;-160.73;-16.66;19.25 
1.397;0.00;0.06;0.00;78.54;7.03;-43.41;303.68;-428.67;-349.00;0.06;-159.22;-17.11;20.51 
1.426;-0.20;0.19;0.22;95.86;33.67;-41.39;326.43;-422.98;-338.00;0.35;-157.66;-18.19;22.67 
1.456;-0.30;0.32;0.41;97.81;29.91;-44.66;339.29;-414.44;-330.00;0.60;-155.97;-19.78;24.94 
1.486;-0.24;0.58;0.30;84.87;23.30;-42.85;365.01;-404.96;-322.00;0.70;-154.26;-21.16;27.30 
1.516;-0.34;0.72;0.37;81.46;37.08;-21.91;379.84;-400.21;-314.00;0.88;-153.04;-22.35;29.41 
1.546;-0.50;0.58;0.61;88.97;35.83;15.44;395.67;-393.58;-308.00;0.98;-152.51;-23.51;31.89 
1.577;-0.51;0.31;0.53;100.31;5.22;29.36;408.53;-397.37;-301.00;0.80;-152.91;-23.50;34.61 
1.606;-0.90;0.43;0.34;125.84;43.62;49.53;442.16;-402.11;-283.00;1.05;-153.47;-23.58;37.81 
1.636;-1.03;1.47;0.45;168.77;126.54;90.92;456.01;-404.01;-268.00;1.85;-154.69;-24.01;42.31 
1.666;-0.97;2.26;0.94;127.65;142.89;221.63;479.75;-406.85;-248.00;2.63;-157.73;-23.58;49.28 
1.695;-0.90;1.51;0.93;114.64;34.78;344.21;485.69;-437.20;-240.00;1.99;-166.14;-17.18;57.07 
1.725;-0.50;1.42;0.50;78.75;26.23;354.23;476.78;-488.41;-223.00;1.59;-176.39;-7.58;64.87 
1.755;0.45;3.40;-0.14;233.18;-109.70;316.31;445.13;-571.87;-192.00;3.43;174.00;3.13;69.91 
1.786;1.10;3.92;-0.22;202.78;81.25;183.58;433.26;-605.06;-160.00;4.08;167.43;10.33;73.19 
1.816;-0.71;0.42;0.17;162.30;4.24;133.98;412.49;-625.93;-143.00;0.84;162.31;15.98;71.90 
1.846;0.68;0.66;-0.07;168.90;-29.77;107.76;403.58;-640.15;-122.00;0.95;160.62;18.68;70.95 
1.876;0.88;0.73;-0.46;145.60;-50.16;90.71;385.78;-664.81;-82.00;1.23;157.28;23.06;66.90 
1.906;0.43;0.39;-0.51;115.06;-26.16;48.70;377.87;-670.50;-61.00;0.77;155.74;25.43;63.90 
1.936;0.82;1.14;-0.43;72.00;-40.63;-3.97;378.85;-672.40;-45.00;1.47;155.58;26.17;62.20 
1.966;0.56;1.09;-0.38;23.72;-43.97;27.69;375.89;-676.19;-34.00;1.28;155.43;26.48;61.21 
1.996;0.68;0.48;-0.52;8.42;-57.60;19.41;373.91;-675.24;-19.00;0.98;154.81;27.01;60.13 
2.026;0.78;0.54;-0.71;-0.35;-21.63;1.95;372.92;-676.19;-7.00;1.18;154.17;27.46;59.21 
2.056;0.48;0.58;-0.51;-10.16;-5.91;10.64;366.98;-672.40;-10.00;0.91;153.69;27.89;58.70 
2.087;0.53;0.54;-0.74;-16.14;-5.70;9.81;369.95;-676.19;-10.00;1.06;153.17;28.29;58.29 
2.117;0.58;0.68;-0.67;-18.64;20.94;10.64;368.96;-678.09;-17.00;1.12;152.47;28.97;57.80 
2.147;0.51;0.83;-0.63;-24.56;13.77;10.85;364.02;-679.99;-19.00;1.16;151.82;29.63;57.49 
2.177;0.63;0.97;-0.65;-32.77;29.01;-4.94;365.01;-680.93;-25.00;1.33;151.40;30.02;57.49 
2.206;0.52;1.07;-0.50;-45.57;35.13;-21.77;367.97;-677.14;-34.00;1.29;151.51;29.88;58.16 
2.236;0.40;0.98;-0.32;-56.00;18.92;-29.29;366.98;-676.19;-44.00;1.11;151.91;29.34;59.27 
2.266;0.42;0.86;-0.28;-61.50;7.23;-29.98;373.91;-670.50;-57.00;1.00;152.45;28.57;60.54 
2.296;0.40;0.90;-0.39;-76.38;5.36;-27.48;373.91;-667.66;-66.00;1.06;152.94;27.79;61.72 
2.326;0.32;1.02;-0.30;-79.72;29.29;-23.58;377.87;-666.71;-79.00;1.11;153.40;27.04;62.81 
2.356;0.26;1.13;-0.11;-72.70;28.59;-27.34;379.84;-665.76;-92.00;1.16;153.86;26.26;63.74 
2.387;0.26;1.25;-0.08;-74.78;1.81;-16.63;379.84;-661.97;-116.00;1.28;154.26;25.53;64.37 
2.416;0.27;1.24;-0.02;-67.48;-4.24;-7.17;381.82;-658.17;-117.00;1.27;154.57;25.00;64.64 
2.446;0.30;1.09;-0.02;-59.41;-7.17;-1.18;375.89;-659.12;-126.00;1.13;154.44;24.96;64.32 
2.477;0.34;1.06;-0.03;-46.12;-2.37;1.25;373.91;-658.17;-131.00;1.11;154.13;25.15;63.70 
2.507;0.35;1.02;0.02;-41.67;8.28;-1.18;371.93;-657.22;-136.00;1.08;154.00;25.19;63.26 
2.537;0.32;0.98;0.06;-34.16;16.21;0.42;366.98;-657.22;-146.00;1.03;153.96;25.09;62.93 
2.567;0.30;0.90;0.13;-31.17;16.83;3.41;366.98;-656.28;-146.00;0.96;153.80;25.06;62.46 
2.598;0.29;0.98;0.12;-24.83;11.27;6.05;365.01;-653.43;-160.00;1.03;153.63;25.06;62.00 
2.627;0.38;1.02;0.06;-23.86;8.97;8.42;361.05;-657.22;-163.00;1.09;153.36;25.22;61.51 
2.657;0.38;0.99;-0.02;-21.70;17.81;5.01;358.08;-658.17;-166.00;1.06;153.06;25.40;61.01 
2.687;0.42;0.94;0.07;-19.90;28.87;0.97;356.10;-652.48;-175.00;1.03;152.85;25.38;60.60 
2.716;0.33;0.99;0.14;-23.65;19.41;-3.34;354.12;-653.43;-174.00;1.05;152.79;25.18;60.32 
2.746;0.39;0.99;0.03;-30.89;12.80;-5.57;354.12;-651.53;-186.00;1.06;152.82;24.98;60.02 
2.776;0.41;1.00;0.00;-33.88;22.61;-10.37;350.17;-646.79;-190.00;1.08;152.89;24.72;59.68 
2.806;0.39;1.02;0.12;-37.36;34.02;-14.54;350.17;-643.95;-196.00;1.10;153.13;24.14;59.44 
2.836;0.36;1.01;0.14;-42.23;28.94;-16.63;348.19;-639.21;-207.00;1.08;153.43;23.44;59.12 
2.866;0.34;1.01;0.15;-46.33;33.25;-17.18;348.19;-634.46;-213.00;1.08;153.79;22.68;58.73 
2.897;0.33;1.02;0.09;-52.66;31.10;-17.60;338.30;-626.88;-230.00;1.08;154.16;21.86;58.21 
2.927;0.30;0.98;0.14;-55.72;39.23;-16.14;339.29;-622.13;-240.00;1.03;154.49;20.99;57.49 
2.957;0.31;0.92;0.18;-59.62;41.53;-17.88;336.32;-614.55;-252.00;0.99;154.75;20.10;56.63 
2.988;0.26;0.91;0.26;-56.21;43.76;-22.54;332.36;-605.06;-264.00;0.98;155.07;19.00;55.71 
3.018;0.31;0.93;0.29;-54.82;40.77;-14.05;329.40;-598.43;-279.00;1.02;155.43;17.89;54.72 
3.047;0.23;0.82;0.32;-47.79;49.60;-7.44;321.48;-592.74;-287.00;0.91;155.49;17.05;53.69 
3.077;0.10;0.75;0.54;-39.30;49.67;-6.61;319.50;-585.15;-292.00;0.93;155.47;16.09;52.73 
3.107;0.12;0.78;0.54;-31.93;34.43;-5.63;314.56;-575.66;-305.00;0.96;155.50;15.15;51.87 
3.137;0.08;0.74;0.62;-25.53;31.51;-5.84;308.62;-569.97;-311.00;0.97;155.51;14.34;51.18 
3.167;0.07;0.74;0.55;-21.43;29.98;-8.14;312.58;-568.08;-316.00;0.92;155.55;13.66;50.64 
3.198;0.02;0.86;0.54;-20.03;26.99;-8.97;307.63;-565.23;-322.00;1.02;155.77;12.81;50.23 
3.228;0.11;0.75;0.55;-19.69;23.30;-10.78;301.70;-555.75;-330.00;0.94;155.88;12.16;49.82 
3.258;0.10;0.77;0.53;-17.53;17.46;-9.53;298.73;-552.90;-332.00;0.94;156.04;11.63;49.42 
3.288;0.08;0.70;0.54;-10.16;18.16;-17.88;300.71;-547.21;-334.00;0.89;156.25;11.09;49.19 
3.318;0.18;0.80;0.53;-4.80;5.63;-18.85;301.70;-544.37;-339.00;0.98;156.81;10.35;49.27 
3.348;0.20;0.74;0.44;-2.85;5.70;-20.31;301.70;-545.32;-341.00;0.88;157.38;9.95;49.48 
3.378;0.13;0.90;0.89;-7.65;38.47;-29.57;307.63;-538.68;-342.00;1.27;158.03;9.07;49.69 
3.409;-0.02;0.80;0.66;-20.52;-21.50;-31.58;305.66;-531.09;-346.00;1.04;158.82;8.16;49.43 
3.439;0.27;0.96;0.27;-25.60;-5.08;-60.03;309.61;-533.94;-347.00;1.03;160.29;7.48;49.39 
3.469;0.08;0.95;0.59;-20.45;11.69;-47.58;312.58;-531.09;-348.00;1.12;161.65;6.18;49.39 
3.499;0.06;0.94;0.40;-23.30;-6.47;-52.87;314.56;-520.66;-351.00;1.02;162.95;5.18;49.19 
3.529;0.07;0.63;0.56;-16.14;23.51;-59.34;309.61;-518.76;-355.00;0.85;164.40;3.90;48.99 
3.559;-0.17;0.98;0.71;-1.46;-7.51;-71.51;319.50;-509.28;-355.00;1.22;166.45;2.09;48.95 
3.589;-0.12;1.16;0.48;-11.55;-13.77;-51.69;325.44;-502.64;-352.00;1.26;168.44;0.94;49.15 
3.619;-0.07;0.73;0.66;-6.40;2.50;-46.40;327.42;-498.85;-353.00;0.99;169.89;-0.03;49.10 
3.649;-0.18;0.73;0.63;5.22;-14.26;-52.73;327.42;-496.95;-356.00;0.98;171.32;-1.02;49.12 
3.679;-0.07;0.90;0.46;11.27;-2.78;-59.83;338.30;-496.95;-351.00;1.01;173.12;-2.09;49.41 
3.710;-0.21;0.84;0.59;12.38;-0.83;-51.13;345.22;-490.31;-350.00;1.05;174.88;-3.40;49.84 
3.740;-0.22;0.65;0.53;23.17;-18.30;-61.29;349.18;-483.67;-349.00;0.87;176.73;-4.52;50.20 
3.770;-0.18;0.81;0.46;30.54;-11.20;-72.42;361.05;-477.03;-343.00;0.95;178.77;-5.67;50.81 
3.800;-0.23;0.90;0.51;23.23;-7.51;-69.91;372.92;-473.24;-341.00;1.06;-178.93;-7.19;51.40 
3.830;-0.25;0.78;0.54;20.87;-14.75;-71.03;375.89;-470.39;-338.00;0.98;-176.68;-8.68;51.66 
3.860;-0.26;0.89;0.48;21.01;-15.65;-74.57;391.71;-459.96;-334.00;1.04;-174.45;-10.13;51.76 
3.890;-0.26;0.86;0.42;19.48;-13.15;-73.04;396.66;-455.22;-330.00;0.99;-172.16;-11.64;51.80 
3.921;-0.25;0.88;0.52;25.04;-15.03;-62.47;406.55;-447.63;-325.00;1.05;-170.09;-13.00;51.79 
3.951;-0.30;0.98;0.43;23.51;-18.99;-58.78;412.49;-441.00;-321.00;1.11;-168.26;-14.08;51.95 
3.981;-0.28;0.93;0.47;20.80;-21.84;-54.33;419.41;-435.30;-319.00;1.08;-166.52;-15.13;51.97 
4.012;-0.31;0.91;0.56;25.25;-25.18;-50.50;423.37;-432.46;-316.00;1.11;-164.96;-15.99;51.99 
4.042;-0.33;0.86;0.55;30.61;-42.85;-44.31;429.30;-429.61;-311.00;1.07;-163.61;-16.56;52.07 
4.072;-0.30;0.86;0.37;30.19;-45.36;-46.40;437.22;-428.67;-302.00;0.98;-162.36;-16.79;52.33 
4.102;-0.29;0.85;0.43;11.48;-25.74;-46.54;443.15;-424.87;-300.00;1.00;-161.04;-17.31;52.33 
4.133;-0.38;0.70;0.71;-8.90;-41.53;-25.39;444.14;-422.03;-296.00;1.07;-159.99;-17.72;51.81 
4.162;-0.20;0.45;0.51;-32.21;-57.60;-29.15;440.18;-422.98;-302.00;0.71;-159.29;-17.40;50.67 
4.192;-0.27;0.50;0.30;-37.43;-29.15;-24.00;442.16;-425.82;-304.00;0.64;-158.58;-17.19;49.25 
4.223;-0.37;0.58;0.63;-36.52;-24.14;-0.63;437.22;-426.77;-311.00;0.93;-158.23;-17.10;47.98 
4.253;-0.39;0.41;0.68;-34.30;-32.56;5.36;433.26;-427.72;-313.00;0.88;-158.29;-16.54;46.70 
4.283;-0.46;0.55;0.69;-36.03;-25.81;-0.14;425.35;-432.46;-314.00;1.00;-158.38;-15.90;45.47 
4.313;-0.54;0.66;0.74;-46.75;-23.37;-6.26;421.39;-433.41;-314.00;1.13;-158.28;-15.58;44.18 
4.343;-0.39;0.43;0.62;-46.89;-25.60;-16.42;411.50;-435.30;-325.00;0.85;-157.92;-15.37;42.48 
4.373;-0.41;0.53;0.49;-40.97;-5.43;-31.51;408.53;-435.30;-324.00;0.83;-157.18;-15.66;40.81 
4.403;-0.41;0.52;0.64;-31.10;-2.50;-26.85;402.59;-432.46;-326.00;0.92;-156.32;-16.31;39.42 
4.434;-0.35;0.51;0.67;-31.51;-17.81;-26.71;398.64;-428.67;-326.00;0.91;-155.57;-16.67;38.15 
4.463;-0.30;0.66;0.56;-43.20;-11.83;-25.32;398.64;-425.82;-326.00;0.92;-154.85;-16.85;36.82 
4.493;-0.40;0.64;0.60;-52.87;-7.17;-11.13;388.75;-423.92;-326.00;0.96;-154.43;-16.98;35.41 
4.524;-0.40;0.42;0.71;-52.73;-9.60;-1.60;378.85;-423.92;-328.00;0.92;-154.32;-16.97;33.74 
4.554;-0.43;0.42;0.63;-44.66;-8.35;6.68;371.93;-427.72;-335.00;0.87;-154.49;-16.77;32.25 
4.584;-0.41;0.52;0.62;-41.53;-1.74;8.90;357.09;-432.46;-338.00;0.91;-154.80;-16.64;31.10 
4.614;-0.37;0.46;0.74;-39.30;4.03;11.90;346.21;-434.36;-338.00;0.95;-155.29;-16.58;30.11 
4.645;-0.32;0.47;0.90;-37.15;-4.03;7.86;342.25;-435.30;-342.00;1.06;-155.77;-16.47;28.98 
4.675;-0.31;0.50;0.85;-39.79;-19.27;12.80;335.33;-436.25;-341.00;1.03;-156.31;-15.96;27.92 
4.705;-0.26;0.54;0.82;-46.12;-26.02;14.40;317.53;-442.89;-341.00;1.02;-156.98;-15.14;26.82 
4.735;-0.26;0.54;0.70;-47.30;-21.15;10.43;306.64;-448.58;-339.00;0.92;-157.66;-14.24;25.67 
4.765;-0.25;0.44;0.66;-43.69;-16.49;6.05;297.74;-453.32;-344.00;0.83;-158.21;-13.57;24.54 
4.795;-0.26;0.50;0.66;-33.95;-3.41;-7.17;289.83;-455.22;-344.00;0.87;-158.38;-13.32;23.44 
4.825;-0.40;0.52;0.75;-26.09;7.10;-1.53;279.94;-459.96;-346.00;1.00;-158.46;-13.47;22.61 
4.855;-0.44;0.33;0.94;-24.49;13.43;5.50;274.99;-457.12;-351.00;1.09;-158.69;-13.86;21.85 
4.885;-0.54;0.30;0.94;-27.20;-1.81;-2.71;270.04;-455.22;-354.00;1.12;-158.90;-14.18;20.97 
4.915;-0.51;0.27;0.90;-18.92;1.04;-8.83;266.09;-456.17;-351.00;1.07;-158.87;-14.39;20.09 
4.946;-0.43;0.34;0.93;-11.48;11.83;-9.95;260.15;-449.53;-348.00;1.08;-158.72;-14.72;19.51 
4.976;-0.51;0.28;0.98;-6.96;30.75;-1.60;260.15;-441.94;-345.00;1.14;-158.60;-15.53;19.11 
5.006;-0.54;0.31;1.02;7.93;56.21;4.59;257.19;-430.56;-342.00;1.20;-158.58;-16.77;18.95 
5.035;-0.46;0.16;1.37;14.47;69.01;1.04;258.17;-416.34;-342.00;1.45;-158.69;-18.55;19.19 
5.065;-0.40;0.39;1.23;13.63;48.63;-2.57;263.12;-404.01;-339.00;1.35;-158.40;-20.19;19.44 
5.095;-0.22;0.30;0.94;9.74;44.24;12.87;274.00;-384.09;-343.00;1.01;-158.46;-21.28;19.80 
5.125;-0.18;0.14;0.91;8.21;76.94;11.06;280.93;-378.40;-341.00;0.94;-158.79;-22.50;20.06 
5.155;-0.56;0.13;0.99;0.56;73.46;10.78;284.88;-367.02;-358.00;1.14;-158.95;-24.60;20.19 
5.185;-0.46;0.06;1.01;-3.83;49.53;-1.60;286.86;-353.74;-366.00;1.11;-158.95;-26.29;20.01 
5.215;-0.42;0.13;0.83;-7.30;35.97;-6.47;284.88;-345.21;-374.00;0.94;-158.76;-27.45;19.65 
5.246;-0.44;0.26;0.68;-8.63;46.61;-9.81;283.89;-338.57;-374.00;0.85;-158.47;-28.68;19.27 
5.276;-0.50;0.19;0.70;-9.39;52.03;-8.14;277.96;-329.09;-379.00;0.88;-158.10;-30.23;18.85 
5.306;-0.57;0.17;0.72;-9.67;43.76;-16.97;275.98;-319.60;-374.00;0.93;-157.64;-31.77;18.36 
5.336;-0.50;0.20;0.73;-10.92;33.67;-18.43;269.06;-309.17;-377.00;0.91;-157.05;-33.06;17.74 
5.366;-0.47;0.26;0.63;-11.48;26.50;-18.85;270.04;-306.33;-373.00;0.83;-156.51;-34.13;17.14 
5.396;-0.42;0.23;0.56;-11.41;26.71;-16.70;266.09;-302.53;-375.00;0.74;-156.03;-35.06;16.61 
5.426;-0.43;0.15;0.64;-9.25;12.52;-14.68;261.14;-294.95;-373.00;0.79;-155.65;-35.79;16.11 
5.457;-0.50;0.24;0.59;-11.62;-6.33;-17.39;253.23;-294.95;-379.00;0.81;-155.37;-35.99;15.52 
5.487;-0.42;0.19;0.57;-10.23;-14.26;-18.92;252.24;-295.89;-381.00;0.73;-155.12;-35.88;14.89 
5.517;-0.43;0.18;0.51;-6.75;-21.15;-15.58;249.27;-295.89;-383.00;0.69;-154.93;-35.53;14.40 
5.546;-0.45;0.12;0.54;-3.20;-25.18;-18.23;245.32;-300.64;-384.00;0.71;-154.71;-35.11;14.00 
5.576;-0.50;0.13;0.50;-7.23;-28.73;-22.75;243.34;-306.33;-386.00;0.72;-154.38;-34.61;13.53 
5.606;-0.51;0.14;0.49;-7.17;-31.37;-20.66;243.34;-309.17;-389.00;0.72;-154.05;-34.07;12.96 
5.636;-0.53;0.16;0.50;-8.90;-34.09;-14.40;239.38;-317.71;-387.00;0.75;-153.88;-33.39;12.48 
5.666;-0.54;0.19;0.51;-10.99;-35.90;-3.90;239.38;-321.50;-386.00;0.77;-153.99;-32.59;12.12 
5.696;-0.53;0.22;0.52;-9.74;-30.40;6.96;234.43;-330.03;-389.00;0.77;-154.38;-31.79;11.95 
5.726;-0.51;0.22;0.54;-12.17;-27.20;13.43;235.42;-337.62;-391.00;0.77;-155.04;-31.04;11.96 
5.756;-0.49;0.09;0.58;-17.60;-34.99;19.34;229.49;-343.31;-391.00;0.76;-155.88;-30.23;11.84 
5.786;-0.43;0.00;0.64;-13.98;-30.33;24.63;225.53;-349.00;-390.00;0.77;-156.98;-29.13;11.77 
5.815;-0.51;0.05;0.74;-10.37;-16.97;28.52;224.54;-354.69;-393.00;0.90;-158.08;-28.33;11.72 
5.846;-0.59;0.03;0.86;-7.17;-9.46;24.42;218.61;-360.38;-389.00;1.04;-159.14;-27.86;11.77 
5.876;-0.58;0.04;0.82;-10.50;-10.37;23.86;216.63;-364.18;-393.00;1.01;-160.04;-27.52;11.75 
5.906;-0.58;0.11;0.76;-11.97;-17.46;24.35;215.64;-368.92;-390.00;0.96;-160.92;-27.12;11.66 
5.936;-0.51;0.16;0.70;-10.09;-18.43;32.90;211.68;-372.71;-394.00;0.88;-162.01;-26.47;11.77 
5.966;-0.51;0.10;0.77;-8.83;-11.34;32.97;207.73;-378.40;-391.00;0.93;-163.26;-25.89;11.92 
5.996;-0.55;0.14;0.82;-8.83;-16.77;30.68;205.75;-384.09;-391.00;1.00;-164.33;-25.42;12.04 
6.025;-0.44;0.10;0.63;-6.47;-24.35;37.57;202.78;-388.83;-392.00;0.77;-165.49;-24.70;12.22 
6.055;-0.28;0.06;0.57;3.41;-11.55;36.17;200.80;-391.68;-389.00;0.64;-166.69;-23.91;12.51 
6.085;-0.44;0.14;0.78;13.22;14.40;29.15;202.78;-396.42;-392.00;0.91;-167.65;-23.73;13.07 
6.115;-0.46;0.19;0.80;8.83;9.74;25.04;203.77;-391.68;-389.00;0.94;-168.27;-24.00;13.69 
6.145;-0.38;0.22;0.73;1.95;6.96;26.23;203.77;-392.63;-391.00;0.85;-168.98;-24.09;14.20 
6.175;-0.23;0.18;0.77;0.97;8.14;15.86;201.79;-390.73;-392.00;0.82;-169.69;-24.05;14.58 
6.205;-0.30;0.26;0.93;0.28;3.55;2.16;203.77;-389.78;-393.00;1.01;-170.00;-24.02;14.76 
6.235;-0.34;0.34;0.94;-6.33;-10.50;-7.44;200.80;-395.47;-393.00;1.06;-169.99;-23.89;14.75 
6.266;-0.30;0.30;0.83;-14.12;-14.33;-8.28;202.78;-398.32;-393.00;0.93;-169.93;-23.50;14.46 
6.296;-0.28;0.32;0.78;-13.15;-10.16;-7.30;198.82;-395.47;-392.00;0.89;-169.93;-23.08;14.06 
6.326;-0.38;0.34;0.74;-9.74;0.21;1.60;192.89;-401.16;-393.00;0.90;-169.98;-22.92;13.84 
6.357;-0.46;0.22;0.78;-3.62;7.30;5.22;191.90;-400.21;-390.00;0.93;-170.13;-23.12;13.80 
6.387;-0.46;0.09;0.79;-2.50;6.26;3.62;189.92;-399.27;-396.00;0.92;-170.26;-23.41;13.71 
6.417;-0.54;0.17;0.74;-1.88;-2.99;-0.14;192.89;-395.47;-392.00;0.93;-170.29;-23.54;13.68 
6.447;-0.42;0.19;0.67;-1.81;-2.85;-0.42;189.92;-396.42;-396.00;0.81;-170.31;-23.55;13.63 
6.477;-0.40;0.20;0.79;2.43;11.13;-4.38;190.91;-397.37;-393.00;0.91;-170.20;-23.71;13.60 
6.507;-0.52;0.23;0.95;-0.97;0.35;-4.59;190.91;-396.42;-393.00;1.11;-170.05;-24.04;13.59 
6.537;-0.46;0.21;0.85;-3.06;-16.97;-3.13;190.91;-395.47;-394.00;0.99;-169.96;-23.90;13.52 
6.568;-0.39;0.21;0.72;-4.17;-14.40;-0.42;189.92;-400.21;-393.00;0.85;-169.96;-23.50;13.46 
6.598;-0.40;0.23;0.75;-5.36;-2.99;1.81;187.94;-404.96;-392.00;0.88;-170.07;-23.27;13.40 
6.628;-0.42;0.21;0.80;-5.91;-2.71;4.94;187.94;-400.21;-397.00;0.93;-170.21;-23.27;13.33 
6.658;-0.41;0.14;0.71;-4.94;-1.25;5.50;183.99;-404.96;-391.00;0.83;-170.44;-23.20;13.22 
6.688;-0.41;0.18;0.77;-3.55;6.19;5.77;187.94;-402.11;-391.00;0.89;-170.62;-23.34;13.17 
6.718;-0.46;0.11;0.80;-2.64;4.52;5.22;183.99;-403.06;-393.00;0.93;-170.81;-23.55;13.14 
6.748;-0.44;0.11;0.85;0.83;1.32;0.28;185.97;-401.16;-391.00;0.96;-170.89;-23.71;13.10 
6.779;-0.40;0.11;0.81;0.35;-6.19;-6.26;186.95;-404.96;-393.00;0.91;-170.79;-23.73;13.03 
6.809;-0.38;0.16;0.76;-0.07;-3.83;-8.77;185.97;-405.91;-392.00;0.86;-170.57;-23.61;12.91 
6.839;-0.38;0.19;0.78;1.04;0.35;-7.72;183.00;-401.16;-392.00;0.89;-170.32;-23.65;12.83 
6.870;-0.38;0.17;0.81;1.11;-0.28;-6.47;186.95;-402.11;-396.00;0.91;-170.10;-23.74;12.78 
6.900;-0.38;0.20;0.78;-0.07;-1.88;-5.84;187.94;-405.91;-391.00;0.89;-169.91;-23.77;12.72 
6.930;-0.37;0.18;0.81;-0.35;1.04;-5.43;188.93;-403.06;-391.00;0.91;-169.76;-23.81;12.66 
