Time(s) acc_x(g) acc_y(g) acc_z(g) gyr_x(°/s) gyr_y(°/s) gyr_z(°/s) mag_x(G) mag_y(G) mag_z(G) SVM(g) yaw(°) pitch(°) roll(°)
0.000;-0.33;-0.04;0.90;-9.81;-7.58;-8.83;-91.85;-83.41;-368.00;0.96;161.36;-27.89;1.12 
0.030;-0.38;0.00;0.84;-11.76;-10.71;-5.84;-94.84;-84.37;-367.00;0.92;161.39;-27.51;0.69 
0.059;-0.34;0.03;0.83;-12.03;-1.46;-0.35;-96.84;-88.20;-363.00;0.90;161.31;-27.28;0.32 
0.089;-0.28;0.04;0.85;-10.43;1.32;8.90;-98.84;-87.25;-361.00;0.90;160.93;-27.29;0.14 
0.119;-0.32;0.00;0.86;-7.44;-5.01;15.51;-99.83;-86.29;-363.00;0.92;160.37;-27.27;0.09 
0.149;-0.31;-0.07;0.80;-4.52;-13.84;15.72;-102.83;-89.16;-363.00;0.86;159.77;-26.91;0.12 
0.179;-0.34;-0.06;0.74;-0.63;-11.41;13.84;-99.83;-87.25;-362.00;0.82;159.29;-26.45;0.20 
0.209;-0.37;-0.02;0.73;1.39;4.17;10.64;-99.83;-90.12;-362.00;0.82;158.89;-26.30;0.34 
0.240;-0.41;0.00;0.78;3.27;15.37;11.20;-98.84;-84.37;-364.00;0.88;158.44;-26.66;0.58 
0.270;-0.46;-0.02;0.86;2.43;14.05;7.44;-98.84;-81.49;-360.00;0.98;158.01;-27.17;0.78 
0.300;-0.46;0.00;0.89;1.25;6.33;7.03;-98.84;-78.62;-363.00;1.00;157.70;-27.49;0.89 
0.331;-0.46;0.02;0.89;-2.23;-1.04;6.82;-97.84;-78.62;-364.00;1.00;157.39;-27.60;0.98 
0.361;-0.44;0.04;0.86;-4.24;-8.83;10.50;-96.84;-75.74;-362.00;0.97;157.04;-27.44;1.06 
0.391;-0.42;0.03;0.81;-4.59;-13.01;14.89;-96.84;-77.66;-363.00;0.91;156.59;-27.12;1.16 
0.421;-0.38;0.00;0.75;-3.48;-9.88;18.92;-94.84;-80.53;-363.00;0.84;156.05;-26.77;1.30 
0.451;-0.35;-0.04;0.74;-0.83;-0.35;15.86;-91.85;-76.70;-363.00;0.82;155.43;-26.59;1.51 
0.480;-0.37;-0.04;0.81;0.83;6.75;11.06;-93.84;-77.66;-366.00;0.89;154.96;-26.70;1.66 
0.510;-0.41;-0.06;0.80;2.09;5.36;7.23;-97.84;-74.78;-365.00;0.90;154.59;-26.90;1.78 
0.541;-0.42;-0.02;0.81;3.76;1.46;3.34;-91.85;-72.86;-363.00;0.91;154.38;-27.02;1.89 
0.571;-0.43;0.02;0.84;5.22;0.28;2.50;-93.84;-72.86;-364.00;0.94;154.28;-27.05;2.08 
0.600;-0.39;0.02;0.79;4.03;1.18;0.14;-87.85;-71.91;-366.00;0.88;154.24;-27.09;2.26 
0.631;-0.42;-0.02;0.82;3.13;2.16;-3.90;-91.85;-75.74;-366.00;0.92;154.25;-27.16;2.34 
0.661;-0.40;0.00;0.82;4.66;0.42;-5.98;-87.85;-72.86;-363.00;0.91;154.38;-27.22;2.36 
0.691;-0.40;0.02;0.79;6.12;0.07;-7.65;-87.85;-73.82;-369.00;0.89;154.58;-27.24;2.43 
0.721;-0.43;0.03;0.78;6.12;4.10;-10.16;-88.85;-75.74;-366.00;0.89;154.84;-27.33;2.49 
0.750;-0.42;0.06;0.83;5.70;5.22;-11.83;-86.86;-75.74;-368.00;0.93;155.17;-27.51;2.52 
0.779;-0.42;0.04;0.82;5.08;2.09;-11.55;-84.86;-72.86;-368.00;0.92;155.49;-27.66;2.55 
0.809;-0.43;0.07;0.82;5.08;-0.49;-9.11;-85.86;-73.82;-367.00;0.93;155.81;-27.73;2.61 
0.840;-0.42;0.10;0.77;4.94;0.07;-6.82;-86.86;-75.74;-368.00;0.88;156.06;-27.73;2.73 
0.870;-0.40;0.06;0.79;4.45;3.76;-6.47;-83.86;-77.66;-366.00;0.89;156.24;-27.81;2.84 
0.900;-0.42;0.07;0.81;3.62;5.77;-6.33;-80.87;-77.66;-370.00;0.92;156.39;-27.95;2.91 
0.930;-0.42;0.10;0.81;3.76;6.12;-6.40;-81.86;-78.62;-369.00;0.92;156.54;-28.13;2.99 
0.959;-0.43;0.09;0.78;4.17;5.98;-5.98;-85.86;-77.66;-369.00;0.90;156.68;-28.28;3.09 
0.989;-0.44;0.11;0.78;4.38;5.70;-6.26;-79.87;-75.74;-369.00;0.90;156.82;-28.48;3.18 
1.019;-0.44;0.10;0.78;3.83;5.91;-5.63;-81.86;-77.66;-370.00;0.90;156.96;-28.67;3.28 
1.049;-0.43;0.09;0.82;3.20;5.91;-5.01;-81.86;-75.74;-368.00;0.93;157.07;-28.87;3.38 
1.079;-0.44;0.10;0.83;2.37;3.62;-4.59;-78.87;-77.66;-368.00;0.94;157.15;-29.03;3.46 
1.109;-0.42;0.08;0.86;1.74;1.04;-3.27;-81.86;-75.74;-368.00;0.96;157.22;-29.09;3.52 
1.139;-0.43;0.12;0.79;1.32;0.28;-0.83;-81.86;-76.70;-371.00;0.91;157.23;-29.10;3.64 
1.169;-0.44;0.12;0.78;0.21;2.02;1.60;-77.87;-75.74;-369.00;0.90;157.17;-29.14;3.76 
1.199;-0.43;0.12;0.78;-0.21;2.85;3.41;-82.86;-74.78;-369.00;0.90;157.02;-29.20;3.89 
1.229;-0.43;0.10;0.81;-0.56;2.85;4.52;-77.87;-72.86;-369.00;0.92;156.81;-29.25;4.03 
1.259;-0.45;0.10;0.80;-1.32;1.88;4.94;-79.87;-73.82;-373.00;0.92;156.58;-29.30;4.13 
1.289;-0.46;0.11;0.80;-1.60;-0.07;4.66;-77.87;-74.78;-371.00;0.93;156.34;-29.31;4.21 
1.318;-0.46;0.12;0.78;-1.46;0.21;5.43;-80.87;-72.86;-370.00;0.91;156.10;-29.30;4.33 
1.348;-0.46;0.10;0.78;-1.25;2.09;5.98;-79.87;-69.03;-371.00;0.91;155.81;-29.32;4.47 
1.378;-0.45;0.12;0.83;-1.18;0.63;6.33;-78.87;-69.03;-369.00;0.95;155.54;-29.36;4.60 
1.408;-0.46;0.09;0.77;-1.53;-1.32;6.33;-77.87;-69.99;-367.00;0.90;155.26;-29.34;4.72 
1.439;-0.45;0.10;0.80;-1.74;0.90;5.70;-76.87;-69.03;-368.00;0.92;154.98;-29.32;4.85 
1.469;-0.46;0.10;0.81;-1.39;3.13;4.66;-78.87;-66.15;-368.00;0.94;154.71;-29.38;4.93 
1.498;-0.43;0.10;0.79;-1.04;0.70;5.29;-73.88;-66.15;-370.00;0.90;154.48;-29.41;5.02 
1.528;-0.46;0.10;0.82;-1.11;-1.53;5.57;-75.87;-67.11;-370.00;0.95;154.24;-29.34;5.13 
1.558;-0.44;0.08;0.78;-0.90;1.04;4.10;-73.88;-63.28;-366.00;0.90;154.02;-29.31;5.21 
1.588;-0.44;0.10;0.83;-1.11;1.60;3.20;-75.87;-68.07;-370.00;0.94;153.82;-29.36;5.28 
1.618;-0.46;0.10;0.80;-0.70;-1.53;2.99;-77.87;-67.11;-369.00;0.93;153.66;-29.35;5.33 
1.649;-0.45;0.12;0.78;-0.70;-0.77;3.48;-73.88;-68.07;-365.00;0.91;153.50;-29.32;5.41 
1.679;-0.42;0.08;0.82;-1.04;0.83;3.20;-77.87;-67.11;-365.00;0.92;153.33;-29.29;5.49 
1.709;-0.43;0.10;0.78;-1.25;1.60;2.23;-74.88;-64.24;-368.00;0.90;153.16;-29.31;5.55 
1.739;-0.38;0.08;0.83;-1.11;2.16;1.81;-75.87;-64.24;-366.00;0.92;153.01;-29.35;5.58 
1.769;-0.46;0.09;0.83;-1.39;1.18;1.25;-77.87;-63.28;-369.00;0.95;152.87;-29.39;5.61 
1.799;-0.42;0.09;0.82;-0.63;-2.64;1.67;-78.87;-66.15;-370.00;0.93;152.76;-29.37;5.64 
1.829;-0.44;0.10;0.80;-0.28;-4.66;3.13;-79.87;-64.24;-369.00;0.92;152.66;-29.22;5.71 
1.859;-0.42;0.07;0.77;-0.90;-1.18;2.92;-75.87;-67.11;-367.00;0.88;152.54;-29.09;5.78 
1.889;-0.45;0.10;0.78;-1.60;2.57;2.99;-78.87;-67.11;-372.00;0.91;152.37;-29.08;5.83 
1.919;-0.43;0.12;0.81;-1.60;3.41;2.50;-78.87;-67.11;-369.00;0.92;152.20;-29.15;5.86 
1.949;-0.44;0.09;0.81;-1.74;-1.18;3.90;-73.88;-67.11;-370.00;0.93;152.03;-29.14;5.90 
1.978;-0.44;0.08;0.79;-1.67;-2.43;4.45;-76.87;-63.28;-365.00;0.91;151.84;-29.05;5.96 
2.008;-0.41;0.10;0.85;-1.18;0.35;3.27;-73.88;-66.15;-368.00;0.95;151.67;-28.97;6.00 
2.039;-0.45;0.07;0.78;-1.32;1.25;3.62;-77.87;-67.11;-368.00;0.90;151.49;-28.96;6.06 
2.069;-0.42;0.08;0.79;-1.74;0.07;3.90;-76.87;-66.15;-368.00;0.90;151.28;-28.98;6.11 
2.099;-0.42;0.10;0.82;-1.53;0.63;4.52;-75.87;-64.24;-367.00;0.93;151.09;-28.95;6.17 
2.129;-0.42;0.07;0.79;-1.81;0.90;4.45;-76.87;-63.28;-366.00;0.90;150.87;-28.95;6.22 
2.160;-0.44;0.07;0.80;-2.02;0.00;3.69;-78.87;-64.24;-369.00;0.92;150.67;-28.93;6.26 
2.190;-0.43;0.10;0.79;-1.67;0.28;3.76;-75.87;-65.19;-368.00;0.90;150.48;-28.90;6.31 
2.220;-0.42;0.09;0.82;-1.39;-0.28;2.99;-76.87;-63.28;-366.00;0.93;150.32;-28.87;6.35 
2.251;-0.44;0.06;0.79;-1.04;-0.35;2.57;-78.87;-63.28;-367.00;0.91;150.17;-28.83;6.40 
2.281;-0.45;0.08;0.78;-0.90;0.77;1.32;-76.87;-61.36;-367.00;0.90;150.05;-28.81;6.44 
2.311;-0.41;0.10;0.82;-0.77;0.77;0.97;-78.87;-60.40;-367.00;0.92;149.95;-28.81;6.47 
2.340;-0.43;0.08;0.80;-0.70;-1.04;0.70;-77.87;-62.32;-369.00;0.91;149.86;-28.79;6.50 
2.370;-0.42;0.09;0.80;-0.42;-0.97;0.63;-79.87;-59.44;-368.00;0.91;149.80;-28.74;6.53 
2.400;-0.46;0.10;0.80;-0.21;-0.42;0.14;-73.88;-60.40;-367.00;0.93;149.75;-28.72;6.57 
2.430;-0.42;0.08;0.82;-0.56;-0.56;0.83;-76.87;-65.19;-367.00;0.92;149.69;-28.67;6.62 
2.461;-0.44;0.10;0.79;-0.83;-1.60;0.97;-75.87;-64.24;-367.00;0.91;149.60;-28.64;6.67 
2.491;-0.44;0.06;0.77;-0.63;-0.70;1.32;-77.87;-61.36;-367.00;0.89;149.53;-28.59;6.71 
2.520;-0.43;0.09;0.78;-0.35;-0.77;0.00;-77.87;-64.24;-366.00;0.90;149.46;-28.57;6.74 
2.551;-0.46;0.10;0.77;-0.14;-0.35;0.49;-74.88;-65.19;-369.00;0.90;149.41;-28.55;6.77 
2.581;-0.46;0.10;0.82;0.00;0.14;0.42;-76.87;-61.36;-370.00;0.95;149.34;-28.54;6.82 
2.611;-0.45;0.09;0.78;0.56;0.00;0.35;-75.87;-64.24;-366.00;0.90;149.27;-28.55;6.88 
2.641;-0.49;0.08;0.78;0.83;-1.18;0.00;-77.87;-62.32;-367.00;0.92;149.23;-28.54;6.92 
2.672;-0.46;0.06;0.78;0.56;-1.88;-0.97;-74.88;-64.24;-368.00;0.91;149.22;-28.54;6.96 
2.702;-0.46;0.06;0.75;0.28;0.49;-1.46;-76.87;-65.19;-367.00;0.88;149.22;-28.55;6.98 
2.732;-0.50;0.07;0.70;-0.49;3.06;-2.50;-76.87;-64.24;-370.00;0.86;149.21;-28.70;6.95 
2.763;-0.53;0.10;0.74;-2.02;6.47;-2.09;-76.87;-64.24;-365.00;0.92;149.17;-28.92;6.91 
2.793;-0.54;0.10;0.74;-2.43;13.91;-1.18;-75.87;-64.24;-365.00;0.92;149.05;-29.33;6.88 
2.823;-0.56;0.07;0.74;-2.02;17.67;-0.42;-75.87;-62.32;-365.00;0.93;148.85;-29.90;6.83 
2.852;-0.57;0.05;0.74;-2.37;12.94;-0.77;-78.87;-54.65;-365.00;0.94;148.63;-30.47;6.79 
2.881;-0.54;0.00;0.68;-3.06;6.47;-2.64;-79.87;-53.69;-360.00;0.87;148.50;-30.87;6.70 
2.911;-0.53;0.03;0.59;-3.76;9.95;-6.19;-80.87;-56.57;-360.00;0.79;148.44;-31.22;6.54 
2.941;-0.49;0.08;0.50;-3.48;21.91;-8.97;-84.86;-51.77;-357.00;0.70;148.41;-31.78;6.35 
2.972;-0.42;0.10;0.48;-2.92;36.03;-7.86;-82.86;-47.94;-357.00;0.65;148.28;-32.78;6.22 
3.002;-0.41;0.08;0.50;-5.01;53.15;-5.50;-85.86;-42.18;-352.00;0.65;147.90;-34.22;6.11 
3.032;-0.50;0.09;0.52;-0.49;66.78;-5.43;-90.85;-29.72;-348.00;0.73;147.31;-36.09;6.00 
3.062;-0.51;0.06;0.64;1.95;66.50;-0.63;-88.85;-20.13;-344.00;0.82;146.54;-38.21;6.02 
3.092;-0.50;0.11;0.74;6.12;53.70;2.43;-85.86;-5.75;-335.00;0.90;145.79;-40.10;6.15 
3.122;-0.51;0.06;0.77;1.53;16.63;10.09;-84.86;2.88;-330.00;0.93;145.05;-41.06;6.41 
3.152;-0.46;0.10;0.70;2.92;-13.43;9.60;-84.86;1.92;-331.00;0.84;144.77;-41.00;6.64 
3.182;-0.45;0.14;0.61;1.67;-33.39;16.70;-82.86;0.00;-333.00;0.77;144.72;-40.15;7.04 
3.212;-0.49;0.10;0.54;1.74;-49.11;13.36;-82.86;-4.79;-337.00;0.74;144.78;-38.83;7.49 
3.242;-0.36;0.04;0.52;-3.76;-55.51;18.37;-80.87;-17.26;-340.00;0.63;144.93;-37.23;7.78 
3.273;-0.46;0.01;0.47;-4.31;-62.75;8.56;-80.87;-21.09;-345.00;0.66;145.09;-35.41;7.99 
3.302;-0.42;0.06;0.49;-2.23;-68.17;13.15;-81.86;-35.47;-350.00;0.65;145.42;-33.49;8.08 
3.332;-0.40;0.04;0.53;2.43;-72.70;9.04;-86.86;-41.23;-352.00;0.67;145.76;-31.49;8.21 
3.362;-0.46;0.06;0.58;3.27;-81.18;13.08;-85.86;-65.19;-364.00;0.74;146.15;-29.25;8.40 
3.392;-0.50;0.19;0.60;10.37;-70.47;20.45;-82.86;-75.74;-367.00;0.80;146.46;-27.08;8.89 
3.422;-0.48;0.12;0.70;7.17;-70.05;28.52;-81.86;-84.37;-372.00;0.86;146.31;-25.04;9.56 
3.452;-0.51;0.05;0.77;14.26;-67.48;33.32;-77.87;-97.79;-373.00;0.92;146.07;-23.09;10.22 
3.483;-0.53;0.11;0.79;15.93;-77.91;23.79;-73.88;-111.21;-381.00;0.96;145.80;-20.92;10.96 
3.512;-0.37;0.17;0.88;19.27;-94.12;18.92;-73.88;-122.72;-385.00;0.97;145.99;-18.31;11.62 
3.542;-0.28;0.22;0.79;8.35;-106.71;23.51;-66.89;-134.22;-386.00;0.87;146.04;-15.49;12.22 
3.573;-0.34;0.27;0.90;4.87;-107.13;43.69;-69.88;-153.40;-393.00;1.00;145.59;-11.69;12.83 
3.603;-0.27;0.11;0.94;-3.62;-106.16;15.72;-70.88;-175.45;-389.00;0.98;145.30;-8.38;13.01 
3.633;-0.39;0.20;0.94;3.27;-126.05;21.70;-72.88;-193.67;-388.00;1.04;145.16;-5.00;12.96 
3.663;-0.29;0.20;0.67;-17.32;-157.50;24.21;-75.87;-214.76;-389.00;0.76;144.88;-0.94;12.78 
3.693;-0.19;0.13;0.42;-27.20;-160.70;25.74;-80.87;-241.60;-376.00;0.48;144.37;3.67;12.23 
3.723;-0.06;0.10;0.22;-39.65;-120.42;10.16;-94.84;-275.16;-366.00;0.25;143.85;7.77;11.20 
3.753;-0.17;0.25;0.43;-54.12;-119.93;10.71;-106.82;-294.33;-356.00;0.53;143.62;10.79;10.11 
3.784;-0.06;-0.03;0.64;-55.72;-132.24;-5.15;-119.80;-313.51;-337.00;0.64;143.31;14.10;8.41 
3.814;2.72;0.10;2.06;-40.14;48.56;-77.77;-129.79;-327.89;-322.00;3.41;143.67;17.21;6.98 
3.844;-0.10;0.06;4.84;4.73;27.83;-70.96;-136.77;-302.96;-307.00;4.84;145.78;8.88;5.72 
3.874;-1.01;0.50;2.18;121.60;-470.26;-1.53;-111.82;-341.31;-311.00;2.45;148.67;9.93;8.18 
3.904;0.02;0.24;0.52;78.12;-1093.98;186.43;-107.82;-444.86;-232.00;0.57;140.40;36.39;10.19 
3.934;-0.60;-0.53;0.52;-34.16;-695.10;168.42;-136.77;-512.93;-83.00;0.95;121.76;63.85;6.48 
3.964;-0.93;-0.64;-0.03;-85.43;-355.34;28.73;-163.73;-508.14;26.00;1.13;105.48;78.80;2.23 
3.995;0.36;-0.14;-1.28;17.74;-464.35;-51.62;-166.72;-477.46;129.00;1.34;90.60;87.84;1.82 
4.025;0.81;0.32;-2.33;62.19;-562.78;-24.90;-164.73;-439.11;192.00;2.49;72.83;72.43;2.97 
4.055;0.22;0.10;-2.18;16.00;-385.60;39.86;-170.72;-388.29;251.00;2.19;58.34;55.78;2.30 
4.086;-0.86;-0.10;-2.54;-33.67;31.37;21.15;-175.71;-363.36;273.00;2.68;52.97;49.78;0.90 
4.116;-0.13;0.00;-1.66;-20.59;215.93;-61.98;-162.73;-377.75;270.00;1.67;54.05;51.41;1.84 
4.146;0.06;0.26;-1.02;-15.58;417.11;-29.57;-155.74;-423.77;245.00;1.05;62.09;60.46;3.45 
4.176;0.17;0.16;-0.56;-3.62;333.98;23.72;-151.75;-467.87;191.00;0.61;73.14;71.81;3.60 
4.206;0.77;-0.05;-0.06;3.69;203.27;-1.95;-153.75;-498.55;138.00;0.77;81.63;79.62;3.18 
4.236;1.17;0.00;-0.22;10.57;138.30;-8.77;-157.74;-509.09;107.00;1.19;88.67;84.96;3.10 
4.266;1.34;0.07;-0.40;-7.23;-44.59;-3.97;-153.75;-515.81;98.00;1.40;90.33;85.81;3.21 
4.297;1.09;0.04;-0.68;-3.20;-90.37;14.12;-151.75;-509.09;107.00;1.29;87.24;84.19;2.93 
4.327;0.86;-0.02;-0.62;-3.90;-26.43;7.23;-155.74;-504.30;123.00;1.06;84.32;82.56;2.40 
4.357;0.89;-0.01;-0.63;-9.39;50.92;4.94;-157.74;-507.18;124.00;1.09;83.86;82.57;2.08 
4.387;1.14;0.06;-0.49;-8.35;101.91;2.16;-154.74;-507.18;112.00;1.24;86.09;84.65;1.85 
4.417;1.10;0.11;-0.20;4.73;82.71;-0.77;-157.74;-511.01;97.00;1.12;89.53;87.39;1.66 
4.447;0.93;0.03;-0.06;-1.95;16.63;15.10;-155.74;-514.85;84.00;0.93;90.99;88.58;1.31 
4.477;0.95;0.00;-0.10;-7.44;-3.83;16.70;-163.73;-514.85;84.00;0.96;90.65;89.26;0.69 
4.508;1.15;-0.03;-0.10;-3.55;1.39;10.23;-161.73;-509.09;86.00;1.15;89.92;89.62;0.07 
4.538;1.20;0.01;-0.14;3.34;15.44;-0.21;-168.72;-511.01;83.00;1.21;89.95;89.76;-0.22 
4.568;1.12;0.03;-0.09;-0.07;11.69;0.28;-166.72;-511.01;80.00;1.12;90.44;89.50;-0.32 
4.599;1.01;0.00;-0.11;0.21;-8.49;1.81;-162.73;-510.05;81.00;1.02;90.43;89.31;-0.48 
4.629;1.00;0.00;-0.21;-0.28;-22.89;3.69;-164.73;-510.05;81.00;1.02;89.59;89.33;-0.67 
4.659;1.00;0.00;-0.26;0.35;-22.12;2.16;-167.72;-507.18;86.00;1.03;88.39;88.76;-0.90 
4.689;1.02;-0.02;-0.35;0.42;-17.39;0.28;-167.72;-504.30;91.00;1.08;87.34;88.09;-1.08 
4.720;1.03;0.02;-0.38;-0.28;-12.52;-0.49;-162.73;-504.30;90.00;1.10;86.70;87.65;-1.21 
4.750;1.01;0.04;-0.38;0.21;-7.58;0.83;-165.73;-507.18;94.00;1.08;85.98;87.15;-1.34 
4.780;1.00;0.02;-0.41;0.56;-6.54;1.88;-170.72;-503.34;97.00;1.08;85.40;86.75;-1.49 
4.811;1.02;0.00;-0.38;1.25;-8.63;1.74;-169.72;-502.38;100.00;1.09;84.75;86.31;-1.68 
4.840;1.04;-0.02;-0.44;0.00;-4.03;-0.70;-166.72;-505.26;99.00;1.13;84.46;86.12;-1.84 
4.870;1.00;0.00;-0.42;-0.21;1.88;0.00;-169.72;-505.26;99.00;1.08;84.12;85.90;-1.94 
4.900;1.02;0.00;-0.39;-0.35;3.20;0.14;-166.72;-501.42;101.00;1.09;83.95;85.78;-2.03 
4.930;1.03;0.02;-0.38;-0.42;-0.07;0.77;-166.72;-504.30;100.00;1.10;83.97;85.83;-2.18 
4.960;1.04;0.02;-0.34;0.35;0.28;1.39;-168.72;-502.38;98.00;1.09;83.83;85.76;-2.36 
4.990;1.02;0.01;-0.34;0.42;0.83;-0.28;-166.72;-502.38;103.00;1.08;83.60;85.61;-2.51 
5.021;1.02;0.00;-0.32;-0.14;-0.63;-0.49;-169.72;-501.42;95.00;1.07;83.42;85.49;-2.61 
5.051;1.02;0.01;-0.35;-0.63;-3.48;0.35;-167.72;-505.26;99.00;1.08;83.31;85.42;-2.75 
5.081;1.02;0.01;-0.35;-0.21;-4.52;1.25;-168.72;-504.30;97.00;1.08;82.98;85.19;-2.86 
5.110;1.03;0.00;-0.37;0.35;-3.62;1.32;-167.72;-501.42;100.00;1.09;82.73;85.03;-3.02 
5.140;1.00;0.00;-0.38;0.00;-4.10;0.77;-169.72;-503.34;100.00;1.07;82.55;84.91;-3.18 
5.170;1.01;0.00;-0.39;-0.28;-3.27;0.56;-168.72;-502.38;103.00;1.08;82.38;84.79;-3.33 
5.200;1.01;0.00;-0.36;-0.35;-2.71;0.35;-169.72;-501.42;105.00;1.07;82.22;84.68;-3.48 
5.230;1.02;0.00;-0.41;0.14;-1.74;0.56;-169.72;-502.38;105.00;1.10;82.09;84.59;-3.62 
5.260;1.03;0.00;-0.39;0.28;-0.83;0.35;-169.72;-503.34;105.00;1.10;81.99;84.51;-3.76 
5.290;1.01;0.02;-0.38;-0.07;-1.39;0.77;-169.72;-500.47;104.00;1.08;81.68;84.30;-3.85 
5.321;1.02;0.00;-0.38;-0.35;-1.46;0.77;-167.72;-501.42;104.00;1.09;81.38;84.10;-3.95 
5.351;1.02;0.01;-0.38;-0.28;-1.25;0.83;-170.72;-500.47;106.00;1.09;81.28;84.03;-4.11 
5.381;1.02;0.00;-0.39;-0.21;-1.88;0.42;-170.72;-503.34;106.00;1.09;81.16;83.93;-4.27 
5.411;1.04;0.00;-0.38;-0.28;-0.07;-0.07;-167.72;-503.34;107.00;1.11;80.87;83.74;-4.33 
5.441;1.01;-0.02;-0.39;0.14;0.42;0.77;-167.72;-498.55;104.00;1.08;80.63;83.57;-4.40 
5.471;1.02;0.00;-0.39;0.14;-1.95;0.97;-167.72;-498.55;106.00;1.09;80.50;83.48;-4.54 
5.501;1.02;0.00;-0.39;-0.21;-1.18;0.14;-170.72;-500.47;105.00;1.09;80.33;83.35;-4.68 
5.531;1.00;0.00;-0.41;-0.49;2.92;-0.63;-171.72;-501.42;108.00;1.08;80.14;83.22;-4.76 
5.561;1.02;0.00;-0.38;-0.35;3.62;-0.83;-169.72;-501.42;107.00;1.09;80.07;83.17;-4.82 
5.591;1.02;0.00;-0.36;-0.56;2.43;-0.49;-167.72;-499.51;106.00;1.08;80.00;83.11;-4.88 
5.622;1.02;0.00;-0.41;-0.70;0.63;-0.70;-169.72;-499.51;104.00;1.10;80.01;83.10;-4.99 
5.652;1.01;0.00;-0.39;-0.56;1.67;-1.32;-167.72;-502.38;106.00;1.08;79.98;83.07;-5.09 
5.682;1.07;0.03;-0.30;-0.07;2.64;-0.77;-169.72;-503.34;105.00;1.11;79.89;83.01;-5.13 
5.712;1.01;0.02;-0.40;-0.07;1.25;-0.56;-171.72;-502.38;103.00;1.09;79.76;82.92;-5.16 
5.742;1.02;0.00;-0.38;-0.14;-0.56;-0.14;-166.72;-500.47;106.00;1.09;79.72;82.88;-5.28 
5.772;1.03;0.02;-0.37;-0.35;0.56;-0.35;-169.72;-500.47;103.00;1.09;79.65;82.81;-5.41 
5.802;1.02;0.00;-0.38;-0.49;3.34;-0.49;-169.72;-503.34;105.00;1.09;79.62;82.77;-5.51 
5.833;1.00;0.02;-0.37;-0.21;3.83;-0.90;-167.72;-500.47;103.00;1.07;79.70;82.80;-5.62 
5.863;1.02;0.02;-0.35;0.07;1.32;-0.42;-166.72;-503.34;104.00;1.08;79.76;82.80;-5.73 
5.893;1.02;0.00;-0.40;-0.07;1.74;-0.35;-165.73;-500.47;104.00;1.10;79.59;82.69;-5.75 
5.923;1.02;0.00;-0.37;-0.56;3.13;-0.42;-167.72;-498.55;102.00;1.09;79.58;82.67;-5.84 
5.953;1.02;0.00;-0.36;-0.42;3.27;-0.77;-168.72;-499.51;104.00;1.08;79.62;82.66;-5.93 
5.982;1.04;0.00;-0.38;-0.28;4.17;-1.53;-168.72;-504.30;100.00;1.11;79.67;82.67;-6.00 
6.012;1.00;0.01;-0.35;-0.49;3.55;-0.56;-169.72;-504.30;98.00;1.06;79.74;82.68;-6.07 
6.043;1.02;0.00;-0.37;-0.49;0.49;-0.56;-164.73;-504.30;102.00;1.09;79.77;82.65;-6.18 
6.072;1.05;0.02;-0.34;0.00;-0.28;-0.42;-166.72;-503.34;102.00;1.10;79.56;82.54;-6.22 
6.102;1.02;0.01;-0.38;-0.28;2.85;-0.77;-165.73;-502.38;103.00;1.09;79.40;82.44;-6.24 
6.133;1.02;0.00;-0.37;-0.21;3.83;-0.83;-168.72;-505.26;100.00;1.09;79.35;82.40;-6.28 
6.163;1.00;0.01;-0.34;-0.07;2.43;-0.90;-167.72;-503.34;100.00;1.06;79.40;82.40;-6.36 
6.193;1.02;0.01;-0.37;-0.21;0.97;0.00;-167.72;-502.38;101.00;1.09;79.37;82.35;-6.45 
6.223;1.02;0.00;-0.35;-0.07;0.77;-0.35;-165.73;-500.47;100.00;1.08;79.21;82.26;-6.48 
6.253;1.02;0.00;-0.36;-0.35;2.16;-0.90;-167.72;-505.26;99.00;1.08;79.08;82.18;-6.50 
6.283;1.02;0.00;-0.38;-0.42;2.16;-0.70;-167.72;-501.42;97.00;1.09;78.94;82.12;-6.49 
6.313;1.02;0.00;-0.36;-0.21;0.42;-0.49;-167.72;-503.34;99.00;1.08;78.90;82.07;-6.56 
6.344;1.02;0.00;-0.39;0.00;0.77;-0.21;-168.72;-503.34;98.00;1.09;78.85;82.00;-6.69 
6.373;1.03;0.00;-0.34;-0.35;2.16;-0.35;-164.73;-505.26;103.00;1.08;78.83;81.94;-6.81 
6.403;1.02;0.00;-0.36;-0.42;2.23;-0.49;-166.72;-505.26;100.00;1.08;78.81;81.91;-6.89 
6.433;1.02;0.01;-0.36;-0.35;1.88;-0.21;-166.72;-503.34;101.00;1.08;78.71;81.85;-6.91 
6.463;1.02;0.01;-0.34;0.00;0.97;-0.21;-169.72;-504.30;101.00;1.08;78.56;81.77;-6.91 
6.493;1.02;0.01;-0.34;-0.14;0.07;0.00;-162.73;-507.18;100.00;1.08;78.48;81.69;-7.00 
6.522;1.02;0.00;-0.33;-0.35;0.14;0.00;-166.72;-504.30;100.00;1.07;78.30;81.59;-7.03 
6.552;1.02;0.02;-0.35;-0.28;0.56;-0.21;-165.73;-504.30;98.00;1.08;78.22;81.51;-7.13 
6.582;0.98;0.00;-0.41;-0.49;0.14;0.07;-166.72;-507.18;100.00;1.06;78.05;81.41;-7.16 
6.612;1.03;0.02;-0.35;-0.35;0.42;-0.49;-169.72;-506.22;97.00;1.09;77.97;81.34;-7.25 
6.643;1.02;0.00;-0.34;-0.14;-1.04;0.07;-165.73;-505.26;98.00;1.08;77.85;81.24;-7.36 
6.673;1.02;-0.01;-0.36;0.00;-2.50;0.90;-166.72;-507.18;98.00;1.08;77.68;81.11;-7.46 
6.703;0.98;-0.03;-0.42;0.00;-0.77;0.28;-165.73;-502.38;99.00;1.07;77.54;80.99;-7.59 
6.734;1.02;0.01;-0.35;-0.07;0.35;-0.07;-165.73;-503.34;101.00;1.08;77.44;80.91;-7.67 
6.764;1.02;0.00;-0.38;-0.35;0.00;0.56;-166.72;-505.26;100.00;1.09;77.35;80.83;-7.77 
6.794;1.02;0.01;-0.34;-0.28;-0.83;-0.35;-164.73;-503.34;101.00;1.08;77.26;80.74;-7.89 
6.824;1.02;0.00;-0.34;-0.14;-1.81;0.49;-164.73;-505.26;102.00;1.08;77.12;80.64;-7.98 
6.855;1.02;0.01;-0.41;-0.14;-0.70;0.42;-167.72;-499.51;100.00;1.10;76.97;80.51;-8.12 
6.885;1.03;0.01;-0.37;-0.35;-0.63;0.42;-167.72;-501.42;100.00;1.09;76.86;80.41;-8.21 
6.915;1.02;0.00;-0.37;-0.35;-1.39;0.49;-168.72;-503.34;99.00;1.09;76.72;80.30;-8.31 
6.946;1.02;0.00;-0.39;-0.21;-2.37;0.56;-166.72;-504.30;102.00;1.09;76.47;80.17;-8.32 
6.976;1.02;0.00;-0.34;0.00;-0.70;0.42;-168.72;-501.42;104.00;1.08;76.32;80.06;-8.41 
7.006;1.02;0.01;-0.38;0.00;-0.28;0.28;-165.73;-503.34;99.00;1.09;76.22;79.97;-8.53 
7.036;1.02;0.00;-0.35;0.21;-0.49;0.07;-166.72;-503.34;102.00;1.08;76.00;79.85;-8.53 
7.067;1.02;-0.01;-0.38;-0.35;-1.18;0.49;-166.72;-501.42;103.00;1.09;75.87;79.75;-8.63 
7.097;1.02;0.01;-0.39;-0.28;-1.25;0.70;-166.72;-501.42;102.00;1.09;75.73;79.64;-8.72 
7.127;1.01;0.00;-0.35;-0.14;-1.04;0.28;-168.72;-503.34;103.00;1.07;75.61;79.53;-8.85 
7.158;1.01;0.01;-0.34;-0.14;-0.70;0.56;-168.72;-502.38;106.00;1.07;75.49;79.42;-8.97 
7.188;1.01;0.00;-0.37;0.07;-1.53;0.77;-164.73;-502.38;106.00;1.08;75.27;79.30;-8.97 
7.218;1.02;0.00;-0.37;-0.28;-2.37;0.14;-170.72;-504.30;105.00;1.09;75.05;79.19;-8.95 
7.248;1.02;0.00;-0.39;0.07;-1.53;1.04;-167.72;-502.38;104.00;1.09;74.79;79.04;-8.95 
7.278;1.02;0.00;-0.37;-0.63;1.04;0.00;-168.72;-501.42;104.00;1.09;74.69;78.94;-9.08 
7.308;1.02;0.00;-0.34;-0.21;2.16;-0.63;-168.72;-500.47;105.00;1.08;74.69;78.92;-9.17 
7.338;1.00;0.00;-0.37;0.00;-1.88;0.28;-168.72;-500.47;100.00;1.07;74.61;78.84;-9.26 
7.368;1.02;0.00;-0.40;0.00;-3.34;1.04;-167.72;-502.38;105.00;1.10;74.42;78.69;-9.40 
7.398;1.02;0.00;-0.41;0.00;-0.63;0.14;-166.72;-502.38;103.00;1.10;74.24;78.55;-9.53 
7.428;1.01;0.01;-0.36;-0.14;1.25;-0.07;-169.72;-501.42;108.00;1.07;74.16;78.47;-9.61 
7.458;1.02;0.00;-0.38;0.14;0.49;0.35;-171.72;-499.51;107.00;1.09;74.03;78.41;-9.57 
7.488;1.00;0.00;-0.38;0.28;-0.63;0.49;-170.72;-498.55;104.00;1.07;73.93;78.32;-9.67 
7.518;1.02;0.00;-0.38;0.07;-2.16;0.56;-167.72;-503.34;109.00;1.09;73.80;78.21;-9.79 
7.547;1.02;0.00;-0.38;-0.21;-1.04;0.49;-167.72;-503.34;106.00;1.09;73.65;78.09;-9.91 
7.577;1.02;0.00;-0.39;-0.21;0.63;-0.07;-169.72;-500.47;107.00;1.09;73.51;78.02;-9.87 
7.606;1.02;0.00;-0.38;0.00;-0.97;0.49;-169.72;-496.63;103.00;1.09;73.38;77.94;-9.87 
7.636;1.01;0.00;-0.38;-0.14;-2.37;0.35;-169.72;-499.51;109.00;1.08;73.23;77.82;-9.97 
7.667;1.02;0.01;-0.39;-0.14;-2.30;-0.21;-170.72;-498.55;108.00;1.09;73.08;77.70;-10.08 
7.697;1.02;0.00;-0.42;-0.14;-1.60;0.35;-171.72;-499.51;110.00;1.10;72.93;77.58;-10.20 
7.727;1.02;0.00;-0.38;0.07;-0.77;0.77;-171.72;-502.38;108.00;1.09;72.75;77.47;-10.20 
7.757;1.01;0.00;-0.38;0.14;-0.97;0.56;-169.72;-499.51;108.00;1.08;72.61;77.36;-10.29 
7.787;1.01;0.00;-0.38;-0.35;-1.18;0.28;-172.71;-497.59;107.00;1.08;72.49;77.25;-10.42 
7.817;1.01;0.02;-0.40;-0.07;-1.53;0.90;-172.71;-499.51;108.00;1.09;72.33;77.16;-10.40 
7.847;1.02;0.00;-0.41;0.07;-0.77;0.28;-170.72;-497.59;110.00;1.10;72.14;77.04;-10.42 
7.878;1.01;0.00;-0.39;-0.14;-0.07;0.49;-168.72;-498.55;108.00;1.08;72.03;76.94;-10.50 
7.908;1.01;0.00;-0.39;0.14;0.21;0.35;-169.72;-500.47;107.00;1.08;71.92;76.85;-10.59 
7.938;1.02;0.01;-0.38;0.07;-0.90;0.28;-170.72;-500.47;109.00;1.09;71.78;76.77;-10.58 
7.969;1.02;0.01;-0.43;-0.35;-1.53;0.56;-169.72;-499.51;110.00;1.11;71.60;76.65;-10.58 
7.999;1.01;0.00;-0.40;-0.49;-1.88;0.63;-171.72;-497.59;110.00;1.09;71.46;76.54;-10.66 
8.029;0.99;0.00;-0.42;-0.42;-1.32;0.35;-171.72;-497.59;111.00;1.08;71.26;76.41;-10.65 
8.059;1.04;0.00;-0.40;-0.77;0.77;-0.77;-170.72;-499.51;111.00;1.11;71.12;76.33;-10.59 
8.089;1.00;0.00;-0.38;-0.07;1.32;0.28;-169.72;-496.63;109.00;1.07;71.11;76.30;-10.69 
8.119;1.02;0.00;-0.39;0.00;-2.64;0.56;-172.71;-498.55;111.00;1.09;71.01;76.22;-10.76 
8.149;0.99;0.00;-0.46;0.07;-4.66;1.04;-171.72;-495.67;109.00;1.09;70.80;76.05;-10.90 
8.180;0.98;0.00;-0.42;0.00;-1.95;0.49;-172.71;-497.59;111.00;1.07;70.59;75.89;-11.01 
8.210;1.00;0.00;-0.44;-0.14;0.77;0.14;-172.71;-498.55;112.00;1.09;70.50;75.80;-11.13 
8.240;0.99;0.00;-0.41;0.07;0.35;0.49;-171.72;-494.71;111.00;1.07;70.42;75.74;-11.21 
8.270;1.02;0.00;-0.41;-0.07;-1.39;0.77;-174.71;-496.63;109.00;1.10;70.34;75.66;-11.31 
8.300;1.00;0.00;-0.38;-0.14;-2.37;0.83;-169.72;-497.59;112.00;1.07;70.19;75.54;-11.43 
8.330;1.02;0.00;-0.43;-0.07;-1.74;0.49;-171.72;-494.71;112.00;1.11;70.04;75.41;-11.55 
8.360;1.00;-0.02;-0.38;-0.21;-0.90;0.42;-170.72;-498.55;111.00;1.07;69.92;75.31;-11.67 
8.391;1.02;-0.03;-0.41;-0.07;-1.53;0.00;-170.72;-496.63;113.00;1.10;69.78;75.21;-11.64 
8.421;1.02;-0.02;-0.43;-0.28;-2.16;0.63;-173.71;-495.67;118.00;1.11;69.60;75.10;-11.62 
8.451;1.02;0.00;-0.43;-0.14;-1.11;0.07;-174.71;-494.71;117.00;1.11;69.47;74.99;-11.73 
8.482;1.00;0.00;-0.43;-0.07;-0.14;0.42;-169.72;-494.71;117.00;1.09;69.34;74.91;-11.67 
8.512;1.00;0.00;-0.41;-0.14;0.21;0.07;-167.72;-492.80;113.00;1.08;69.25;74.83;-11.74 
8.542;1.02;0.00;-0.40;-0.07;0.07;0.00;-174.71;-497.59;116.00;1.10;69.16;74.75;-11.82 
8.572;1.02;0.00;-0.42;-0.35;-0.35;0.07;-170.72;-495.67;114.00;1.10;69.07;74.68;-11.89 
8.603;1.02;0.00;-0.46;-0.14;-0.56;0.21;-174.71;-494.71;113.00;1.12;68.94;74.59;-11.87 
8.633;1.00;0.02;-0.40;-0.07;-0.21;0.42;-173.71;-492.80;116.00;1.08;68.86;74.51;-11.97 
8.663;1.01;0.00;-0.42;-0.21;0.35;0.28;-174.71;-495.67;115.00;1.09;68.77;74.43;-12.08 
8.694;1.02;-0.01;-0.40;-0.35;1.04;-0.28;-172.71;-491.84;113.00;1.10;68.71;74.37;-12.17 
8.724;1.02;0.00;-0.42;-0.21;1.60;-0.21;-170.72;-496.63;118.00;1.10;68.63;74.33;-12.12 
8.754;1.01;0.00;-0.42;-0.63;2.71;-0.49;-172.71;-493.75;115.00;1.09;68.62;74.30;-12.21 
8.784;1.00;-0.01;-0.42;-0.28;2.02;-0.63;-170.72;-496.63;115.00;1.08;68.61;74.31;-12.14 
8.814;1.02;0.00;-0.43;-0.28;2.78;-0.35;-172.71;-494.71;114.00;1.11;68.58;74.30;-12.06 
8.844;1.02;0.00;-0.43;-0.49;3.20;-0.63;-168.72;-496.63;113.00;1.11;68.59;74.30;-12.11 
8.874;0.98;0.00;-0.42;-0.70;3.06;-0.77;-172.71;-495.67;116.00;1.07;68.60;74.29;-12.19 
8.905;1.02;-0.02;-0.42;-0.70;4.59;-1.25;-168.72;-498.55;113.00;1.10;68.63;74.31;-12.27 
8.935;1.01;0.00;-0.38;-0.42;4.03;-0.42;-169.72;-498.55;114.00;1.08;68.71;74.35;-12.30 
8.965;1.01;0.00;-0.40;-0.63;0.90;0.07;-171.72;-496.63;110.00;1.09;68.71;74.34;-12.38 
8.995;1.01;0.00;-0.46;-0.14;1.32;-0.49;-169.72;-496.63;110.00;1.11;68.62;74.28;-12.34 
9.025;1.02;0.00;-0.41;-0.35;4.17;-0.56;-172.71;-497.59;111.00;1.10;68.64;74.31;-12.27 
9.054;1.02;0.00;-0.38;-0.07;4.73;-0.42;-170.72;-497.59;110.00;1.09;68.71;74.36;-12.20 
9.084;1.02;0.01;-0.39;-0.56;3.97;-0.90;-169.72;-496.63;112.00;1.09;68.74;74.39;-12.15 
9.115;1.02;0.00;-0.42;-0.63;2.92;-0.35;-169.72;-496.63;111.00;1.10;68.76;74.39;-12.23 
9.145;1.02;-0.02;-0.42;-0.49;1.53;-0.42;-170.72;-495.67;111.00;1.10;68.75;74.37;-12.31 
9.175;1.02;0.02;-0.39;-0.63;1.46;-0.63;-171.72;-497.59;109.00;1.09;68.73;74.34;-12.39 
9.206;1.02;-0.02;-0.39;-0.56;1.88;-0.35;-171.72;-497.59;109.00;1.09;68.70;74.31;-12.48 
9.236;1.02;0.00;-0.38;-0.49;1.60;-0.28;-170.72;-499.51;107.00;1.09;68.67;74.28;-12.53 
9.266;0.98;0.00;-0.42;-0.35;2.02;-0.70;-166.72;-497.59;107.00;1.07;68.64;74.24;-12.58 
9.296;1.02;-0.02;-0.40;-0.56;4.73;-1.04;-171.72;-498.55;111.00;1.10;68.66;74.25;-12.61 
9.325;1.02;-0.02;-0.38;-0.21;4.66;-1.04;-170.72;-498.55;109.00;1.09;68.73;74.28;-12.68 
9.355;1.00;-0.02;-0.38;-0.28;2.99;-0.49;-169.72;-501.42;106.00;1.07;68.78;74.30;-12.74 
9.385;1.00;0.09;-0.39;-0.49;1.46;-0.63;-170.72;-501.42;108.00;1.08;68.78;74.28;-12.81 
9.416;0.98;0.02;-0.39;-0.49;2.57;-0.63;-170.72;-501.42;109.00;1.05;68.75;74.28;-12.75 
9.446;1.02;0.00;-0.41;-0.35;3.13;-0.83;-172.71;-501.42;107.00;1.10;68.76;74.27;-12.82 
9.476;1.01;0.00;-0.36;-0.14;4.52;-1.32;-169.72;-500.47;106.00;1.07;68.81;74.29;-12.88 
9.507;1.02;0.00;-0.40;0.00;2.99;-0.90;-168.72;-503.34;108.00;1.10;68.86;74.29;-12.95 
9.536;1.02;0.00;-0.40;-0.21;3.06;-0.56;-168.72;-500.47;102.00;1.10;68.89;74.33;-12.86 
9.566;1.01;0.02;-0.39;0.07;2.50;-0.70;-166.72;-502.38;105.00;1.08;68.91;74.33;-12.93 
9.595;1.02;0.00;-0.39;0.00;2.16;-0.42;-174.71;-499.51;106.00;1.09;68.91;74.31;-13.00 
9.625;1.02;0.00;-0.39;-0.63;3.34;-0.56;-165.73;-501.42;103.00;1.09;68.93;74.34;-12.91 
9.655;1.02;0.01;-0.37;-0.42;5.22;-0.56;-167.72;-500.47;105.00;1.09;68.99;74.36;-12.97 
9.685;1.02;0.02;-0.36;-0.28;3.76;-0.97;-167.72;-503.34;104.00;1.08;69.07;74.40;-12.99 
9.716;1.01;0.00;-0.34;-0.63;0.49;-0.49;-169.72;-503.34;102.00;1.07;69.08;74.40;-13.02 
9.746;1.02;0.00;-0.38;-0.83;2.16;-1.04;-168.72;-504.30;105.00;1.09;69.03;74.35;-13.09 
9.776;1.00;0.02;-0.34;-0.28;4.31;-1.11;-170.72;-505.26;104.00;1.06;69.11;74.44;-12.95 
9.806;1.01;0.00;-0.35;-0.14;-0.83;0.21;-169.72;-503.34;100.00;1.07;69.14;74.49;-12.83 
9.836;1.02;0.00;-0.41;-0.28;-2.09;0.21;-168.72;-502.38;102.00;1.10;69.02;74.43;-12.73 
9.865;1.03;0.00;-0.38;-0.14;2.99;0.21;-167.72;-503.34;101.00;1.10;68.93;74.39;-12.68 
9.895;1.02;0.01;-0.37;-0.35;4.31;-0.35;-169.72;-504.30;99.00;1.09;68.99;74.44;-12.60 
9.926;1.02;0.00;-0.34;-0.21;2.16;-0.28;-170.72;-503.34;99.00;1.08;69.01;74.45;-12.64 
9.956;1.02;0.00;-0.35;0.00;0.14;0.00;-167.72;-502.38;100.00;1.08;69.02;74.47;-12.52 
9.986;1.02;0.01;-0.36;-0.14;-1.88;0.28;-170.72;-502.38;99.00;1.08;68.92;74.38;-12.62 
10.017;1.03;0.00;-0.37;0.00;-0.90;0.35;-166.72;-504.30;101.00;1.09;68.79;74.27;-12.73 
10.047;1.02;0.02;-0.36;0.00;-1.74;0.56;-166.72;-503.34;101.00;1.08;68.71;74.23;-12.63 
10.077;1.02;0.00;-0.38;-0.07;-2.99;0.56;-164.73;-498.55;102.00;1.09;68.56;74.12;-12.72 
10.107;1.02;0.00;-0.38;-0.07;-1.88;0.49;-169.72;-504.30;102.00;1.09;68.42;74.00;-12.82 
10.137;1.05;0.02;-0.38;0.21;-0.42;0.35;-165.73;-501.42;103.00;1.12;68.31;73.90;-12.92 
10.167;1.02;-0.02;-0.34;0.21;-0.28;0.42;-165.73;-498.55;105.00;1.08;68.23;73.86;-12.86 
10.197;1.01;0.00;-0.36;-0.21;-0.21;0.35;-170.72;-502.38;105.00;1.07;68.17;73.82;-12.77 
10.228;1.01;0.00;-0.36;-0.28;-0.35;0.42;-168.72;-503.34;103.00;1.07;68.09;73.76;-12.82 
10.258;1.02;0.00;-0.41;-0.07;-0.56;0.14;-168.72;-500.47;103.00;1.10;68.02;73.69;-12.92 
10.288;1.01;0.01;-0.38;-0.21;-0.70;0.70;-171.72;-502.38;102.00;1.08;67.97;73.66;-12.85 
10.318;1.01;0.00;-0.39;0.00;-1.32;0.49;-166.72;-499.51;101.00;1.08;67.85;73.56;-12.96 
10.347;1.02;0.00;-0.38;-0.07;-1.88;0.63;-167.72;-496.63;102.00;1.09;67.72;73.45;-13.07 
10.377;1.02;0.02;-0.37;0.07;-1.81;0.63;-171.72;-499.51;106.00;1.09;67.60;73.35;-13.13 
10.407;1.02;0.00;-0.40;0.07;-1.81;0.42;-167.72;-500.47;106.00;1.10;67.47;73.24;-13.23 
10.438;1.02;0.00;-0.37;-0.07;-0.77;0.28;-169.72;-501.42;105.00;1.09;67.36;73.15;-13.29 
10.468;1.02;0.00;-0.38;-0.14;-0.42;0.14;-169.72;-500.47;103.00;1.09;67.28;73.08;-13.35 
10.498;1.02;0.00;-0.39;-0.14;-0.28;0.42;-169.72;-501.42;104.00;1.09;67.20;73.00;-13.43 
10.529;1.02;0.00;-0.40;-0.42;0.63;0.28;-169.72;-502.38;102.00;1.10;67.15;72.96;-13.48 
10.559;1.02;0.00;-0.38;-0.42;-0.49;0.21;-167.72;-503.34;105.00;1.09;67.10;72.93;-13.42 
10.589;1.02;0.00;-0.39;-0.70;1.11;-1.11;-170.72;-500.47;105.00;1.09;67.08;72.93;-13.33 
10.619;1.02;0.00;-0.35;0.07;0.90;-0.07;-167.72;-500.47;107.00;1.08;67.10;72.95;-13.24 
10.649;0.98;0.02;-0.39;0.00;-2.92;0.56;-168.72;-500.47;106.00;1.05;67.03;72.89;-13.32 
10.679;1.02;0.00;-0.42;-0.14;-3.41;0.56;-170.72;-500.47;106.00;1.10;66.86;72.74;-13.42 
10.709;1.00;0.00;-0.44;-0.28;0.00;-0.21;-169.72;-498.55;103.00;1.09;66.74;72.64;-13.51 
10.740;1.02;0.00;-0.40;-0.28;0.35;0.07;-167.72;-496.63;109.00;1.10;66.73;72.65;-13.39 
10.770;1.02;0.00;-0.41;0.07;-0.07;0.35;-172.71;-497.59;107.00;1.10;66.65;72.57;-13.49 
10.800;1.02;0.00;-0.39;-0.42;-0.49;0.35;-169.72;-500.47;107.00;1.09;66.64;72.56;-13.42 
10.830;1.00;0.00;-0.41;-0.07;-1.88;0.56;-170.72;-496.63;105.00;1.08;66.55;72.49;-13.47 
10.860;1.01;0.00;-0.40;-0.21;-0.70;0.21;-169.72;-499.51;106.00;1.09;66.44;72.39;-13.57 
10.890;1.02;0.01;-0.36;-0.14;-0.35;0.35;-169.72;-500.47;108.00;1.08;66.38;72.34;-13.61 
10.919;0.99;-0.02;-0.42;-0.14;-2.16;0.35;-174.71;-499.51;108.00;1.08;66.33;72.31;-13.50 
10.948;1.02;0.00;-0.40;-0.21;-2.30;0.77;-169.72;-498.55;108.00;1.10;66.22;72.22;-13.56 
10.978;1.02;0.00;-0.38;-0.14;-0.90;0.21;-175.71;-495.67;111.00;1.09;66.14;72.16;-13.46 
11.008;1.01;0.00;-0.37;-0.21;-0.49;0.42;-171.72;-497.59;109.00;1.08;66.09;72.12;-13.41 
11.039;1.02;-0.02;-0.41;0.21;-0.21;0.21;-168.72;-501.42;110.00;1.10;66.03;72.06;-13.46 
11.069;1.02;0.00;-0.37;-0.14;-0.83;0.28;-176.71;-496.63;111.00;1.09;65.99;72.03;-13.36 
11.099;1.00;0.00;-0.38;0.07;-1.32;0.49;-170.72;-497.59;110.00;1.07;65.91;71.95;-13.45 
11.129;1.02;0.00;-0.40;0.14;-1.67;0.49;-172.71;-498.55;106.00;1.10;65.88;71.93;-13.33 
11.159;1.00;0.00;-0.37;0.07;-1.81;0.35;-171.72;-501.42;110.00;1.07;65.81;71.87;-13.28 
11.188;1.02;0.00;-0.42;0.07;-2.37;0.70;-172.71;-497.59;108.00;1.10;65.73;71.80;-13.24 
11.218;1.02;0.00;-0.42;0.21;-2.23;0.63;-172.71;-498.55;111.00;1.10;65.67;71.74;-13.16 
11.249;1.02;0.00;-0.41;0.14;-2.02;0.49;-170.72;-498.55;108.00;1.10;65.57;71.65;-13.26 
11.278;1.00;-0.02;-0.43;-0.07;-2.09;0.49;-170.72;-499.51;113.00;1.09;65.47;71.56;-13.35 
11.308;1.01;0.00;-0.41;0.14;-1.04;0.63;-169.72;-496.63;111.00;1.09;65.39;71.48;-13.44 
11.339;1.02;0.00;-0.39;0.14;-0.97;0.63;-171.72;-496.63;114.00;1.09;65.33;71.43;-13.38 
11.369;1.00;0.00;-0.42;0.07;-2.30;0.83;-169.72;-497.59;113.00;1.08;65.25;71.35;-13.34 
11.399;1.01;0.00;-0.41;-0.28;-3.06;0.63;-170.72;-495.67;111.00;1.09;65.14;71.25;-13.43 
11.429;1.01;0.00;-0.42;-0.49;-2.57;0.77;-173.71;-495.67;115.00;1.09;65.01;71.14;-13.52 
11.459;1.00;-0.02;-0.42;-0.63;0.83;-1.32;-171.72;-493.75;111.00;1.08;64.98;71.11;-13.39 
11.489;0.98;0.00;-0.41;-0.14;0.70;0.14;-173.71;-493.75;114.00;1.06;65.02;71.13;-13.28 
11.519;0.98;-0.02;-0.43;0.07;-3.34;0.56;-173.71;-495.67;116.00;1.07;64.94;71.07;-13.35 
11.550;1.03;0.00;-0.44;-0.42;-2.02;-0.42;-169.72;-497.59;114.00;1.12;64.89;71.01;-13.23 
11.580;0.99;0.00;-0.42;-0.42;1.18;-1.18;-173.71;-493.75;114.00;1.08;64.85;70.96;-13.28 
11.610;1.02;0.00;-0.42;0.07;3.69;-0.07;-173.71;-494.71;113.00;1.10;64.89;71.00;-13.34 
11.640;1.02;0.02;-0.36;-1.46;3.48;-0.21;-171.72;-494.71;116.00;1.08;64.96;71.06;-13.39 
11.670;1.01;0.00;-0.38;-0.90;0.97;0.21;-171.72;-493.75;117.00;1.08;65.05;71.13;-13.29 
11.700;0.98;-0.02;-0.40;-1.60;-2.30;-0.83;-170.72;-495.67;113.00;1.06;65.06;71.14;-13.20 
11.730;0.94;0.00;-0.38;-1.81;-6.26;-2.16;-172.71;-493.75;117.00;1.01;64.98;71.06;-13.19 
