Time(s) acc_x(g) acc_y(g) acc_z(g) gyr_x(°/s) gyr_y(°/s) gyr_z(°/s) mag_x(G) mag_y(G) mag_z(G) SVM(g) yaw(°) pitch(°) roll(°)
0.000;-1.01;0.12;-0.43;4.10;5.98;-1.60;-70.88;0.00;83.00;1.10;105.53;-70.16;7.89 
0.030;-1.03;0.11;-0.37;4.24;4.03;-2.64;-73.88;2.87;79.00;1.10;105.91;-70.09;7.73 
0.060;-1.02;0.10;-0.40;2.57;3.69;-0.35;-74.87;0.96;82.00;1.10;106.29;-70.05;7.60 
0.089;-1.03;0.08;-0.41;1.81;3.97;3.41;-75.87;1.91;75.00;1.11;106.66;-69.95;7.56 
0.119;-1.04;0.11;-0.38;1.04;0.28;10.09;-74.87;0.96;81.00;1.11;106.71;-69.86;7.67 
0.148;-0.93;0.14;-0.34;3.20;-3.41;2.50;-73.88;1.91;78.00;1.00;106.63;-69.83;7.79 
0.178;-0.98;0.12;-0.38;2.37;2.64;1.25;-72.88;3.83;79.00;1.06;106.74;-69.80;7.80 
0.209;-1.00;0.14;-0.40;0.14;0.63;0.83;-71.88;4.79;81.00;1.09;106.90;-69.77;7.81 
0.239;-0.98;0.14;-0.34;-0.83;0.21;0.56;-71.88;2.87;78.00;1.05;107.06;-69.77;7.84 
0.268;-1.01;0.14;-0.39;-1.60;0.00;0.28;-72.88;4.79;81.00;1.09;107.22;-69.81;7.82 
0.299;-1.02;0.08;-0.42;-1.04;0.42;0.21;-70.88;1.91;79.00;1.11;107.40;-69.86;7.80 
0.329;-0.99;0.11;-0.38;-0.28;0.42;-0.07;-70.88;1.91;81.00;1.07;107.61;-69.88;7.75 
0.359;-0.99;0.10;-0.41;0.07;-0.49;0.28;-70.88;4.79;79.00;1.08;107.75;-69.93;7.71 
0.389;-1.01;0.11;-0.38;0.56;-1.53;0.21;-69.88;3.83;78.00;1.08;107.84;-70.02;7.65 
0.420;-0.99;0.07;-0.41;1.67;-0.77;0.42;-68.88;2.87;81.00;1.07;107.94;-70.09;7.60 
0.450;-1.01;0.08;-0.39;2.78;-0.49;0.42;-69.88;4.79;77.00;1.09;108.05;-70.14;7.52 
0.479;-0.98;0.10;-0.38;3.41;-0.97;0.49;-69.88;4.79;79.00;1.06;108.14;-70.19;7.46 
0.510;-0.96;0.12;-0.41;4.03;-0.42;0.83;-70.88;6.70;77.00;1.05;108.21;-70.23;7.39 
0.540;-0.98;0.12;-0.38;3.13;0.49;0.21;-70.88;6.70;80.00;1.06;108.32;-70.24;7.34 
0.570;-1.01;0.13;-0.42;2.23;-0.14;0.21;-69.88;5.74;79.00;1.10;108.44;-70.27;7.27 
0.600;-1.00;0.17;-0.38;0.49;-0.83;-0.63;-71.88;7.66;77.00;1.08;108.54;-70.30;7.22 
0.630;-1.02;0.12;-0.42;-1.53;0.35;-1.39;-71.88;6.70;77.00;1.11;108.67;-70.34;7.20 
0.660;-1.02;0.10;-0.40;-1.18;-1.81;-0.83;-70.88;5.74;74.00;1.10;108.80;-70.41;7.14 
0.690;-0.98;0.10;-0.38;-1.32;-2.99;-0.77;-71.88;3.83;76.00;1.06;108.86;-70.55;7.09 
0.721;-0.99;0.12;-0.37;-0.56;-0.42;-0.63;-72.88;5.74;78.00;1.06;108.94;-70.65;7.03 
0.750;-1.02;0.12;-0.38;-1.53;-0.56;-0.35;-69.88;4.79;77.00;1.10;109.03;-70.72;6.99 
0.780;-1.01;0.12;-0.38;-2.30;-0.90;-0.28;-68.88;2.87;78.00;1.09;109.09;-70.81;6.99 
0.811;-1.02;0.10;-0.36;-1.25;0.56;0.14;-73.88;5.74;76.00;1.09;109.24;-70.85;6.97 
0.841;-1.01;0.11;-0.41;0.83;-0.28;0.07;-70.88;4.79;76.00;1.10;109.39;-70.89;6.91 
0.871;-0.98;0.09;-0.40;1.60;0.63;0.49;-69.88;2.87;78.00;1.06;109.47;-70.94;6.84 
0.901;-1.02;0.14;-0.37;1.32;0.83;0.21;-72.88;6.70;77.00;1.09;109.58;-70.95;6.79 
0.932;-1.01;0.13;-0.35;0.21;-0.14;0.35;-69.88;5.74;77.00;1.08;109.66;-70.98;6.74 
0.961;-0.98;0.10;-0.34;0.07;-0.07;0.28;-73.88;5.74;76.00;1.04;109.71;-71.03;6.71 
0.991;-0.98;0.10;-0.38;-0.14;0.97;0.14;-70.88;3.83;75.00;1.06;109.83;-71.04;6.67 
1.022;-1.01;0.11;-0.35;0.56;0.35;0.35;-71.88;6.70;76.00;1.07;109.94;-71.07;6.62 
1.052;-0.98;0.13;-0.38;0.77;0.21;0.21;-70.88;5.74;74.00;1.06;110.04;-71.09;6.57 
1.081;-1.00;0.12;-0.38;1.32;1.32;0.28;-72.88;4.79;77.00;1.08;110.13;-71.10;6.53 
1.111;-1.02;0.12;-0.37;1.46;1.60;0.42;-68.88;5.74;76.00;1.09;110.29;-71.09;6.48 
1.141;-1.00;0.11;-0.38;1.60;0.07;1.04;-71.88;4.79;78.00;1.08;110.38;-71.09;6.45 
1.171;-1.02;0.11;-0.40;1.74;0.35;0.77;-70.88;4.79;75.00;1.10;110.45;-71.11;6.41 
1.200;-1.02;0.13;-0.41;0.77;-0.28;0.35;-70.88;5.74;75.00;1.11;110.51;-71.13;6.38 
1.231;-1.02;0.12;-0.42;0.14;-3.34;0.70;-72.88;7.66;74.00;1.11;110.58;-71.16;6.35 
1.261;-0.99;0.11;-0.38;0.00;-6.26;0.28;-67.89;5.74;73.00;1.07;110.51;-71.31;6.31 
1.291;-1.02;0.10;-0.38;1.60;-5.98;1.25;-71.88;8.62;71.00;1.09;110.35;-71.48;6.28 
1.321;-1.00;0.12;-0.40;3.34;-5.63;0.83;-71.88;4.79;72.00;1.08;110.16;-71.65;6.22 
1.351;-0.99;0.14;-0.42;3.06;-5.43;0.97;-71.88;6.70;68.00;1.08;109.96;-71.78;6.19 
1.381;-1.01;0.12;-0.50;2.30;-8.70;0.83;-69.88;5.74;71.00;1.13;109.75;-71.93;6.15 
1.411;-0.96;0.14;-0.46;2.78;-11.06;-0.07;-67.89;7.66;67.00;1.07;109.43;-72.19;6.09 
1.441;-0.99;0.12;-0.43;2.64;-8.70;0.07;-67.89;6.70;63.00;1.09;109.14;-72.43;6.01 
1.471;-0.97;0.13;-0.43;2.02;-12.24;-0.63;-68.88;8.62;65.00;1.07;108.82;-72.69;5.93 
1.501;-0.98;0.11;-0.43;2.30;-14.47;-1.04;-68.88;9.57;57.00;1.08;108.36;-73.04;5.85 
1.532;-0.97;0.12;-0.47;-1.11;-16.70;-0.35;-72.88;10.53;56.00;1.08;107.83;-73.47;5.74 
1.562;-0.94;0.14;-0.43;-1.11;-17.25;-0.49;-70.88;7.66;50.00;1.04;107.25;-73.89;5.69 
1.592;-0.93;0.12;-0.42;-2.92;-17.25;-2.57;-69.88;8.62;49.00;1.03;106.65;-74.35;5.62 
1.622;-0.91;0.10;-0.44;-3.48;-17.25;-2.85;-68.88;7.66;45.00;1.02;106.13;-74.79;5.53 
1.651;-0.90;0.09;-0.46;-1.88;-18.37;-2.57;-70.88;9.57;42.00;1.01;105.62;-75.23;5.39 
1.681;-0.85;0.11;-0.46;1.11;-21.08;-2.99;-71.88;2.87;40.00;0.97;105.03;-75.70;5.23 
1.711;-0.77;0.11;-0.44;0.70;-25.46;-2.78;-70.88;5.74;34.00;0.89;104.28;-76.23;5.11 
1.742;-0.74;0.14;-0.34;-0.14;-28.03;1.11;-72.88;5.74;29.00;0.83;103.29;-76.84;5.04 
1.772;-0.74;0.06;-0.34;-0.83;-29.50;2.30;-71.88;5.74;25.00;0.82;102.06;-77.53;5.02 
1.801;-0.78;0.07;-0.40;-1.88;-22.89;0.28;-72.88;3.83;19.00;0.88;101.07;-78.11;4.96 
1.832;-0.89;0.14;-0.42;-2.16;-29.01;1.81;-69.88;3.83;13.00;0.99;100.14;-78.56;4.98 
1.862;-0.76;0.11;-0.28;-6.68;-40.28;2.37;-74.87;5.74;6.00;0.82;98.57;-79.37;5.07 
1.892;-0.63;0.05;-0.36;-8.42;-24.00;0.49;-70.88;2.87;7.00;0.73;97.24;-80.07;5.14 
1.921;-0.77;0.10;-0.40;-4.10;-6.40;0.00;-70.88;1.91;2.00;0.87;96.99;-80.19;5.09 
1.951;-0.84;0.13;-0.37;-7.51;-16.35;2.64;-72.88;1.91;-3.00;0.93;96.78;-80.13;5.18 
1.981;-0.62;0.02;-0.26;-7.58;-28.17;-0.42;-71.88;-1.91;-2.00;0.67;96.02;-80.47;5.23 
2.011;-0.43;0.05;-0.18;-3.55;-20.38;-0.56;-73.88;0.00;-9.00;0.47;95.35;-80.82;5.20 
2.042;-0.54;0.07;-0.14;-11.48;-12.73;3.55;-75.87;-4.79;-13.00;0.56;94.87;-81.00;5.27 
2.071;-0.52;0.00;-0.08;0.14;-29.08;-2.30;-76.87;-1.91;-13.00;0.53;94.19;-81.24;5.35 
2.101;-0.52;-0.10;-0.26;7.58;-28.24;-2.50;-78.87;-5.74;-17.00;0.59;93.20;-81.98;5.13 
2.132;-1.38;0.26;-0.21;11.90;-85.36;-21.91;-79.87;-5.74;-24.00;1.42;92.53;-82.69;4.76 
2.162;-0.67;0.25;-0.06;-9.88;-136.63;-14.75;-84.86;-16.27;-46.00;0.72;89.14;-85.25;4.10 
2.192;-0.88;0.10;-0.15;-15.44;-118.89;-41.39;-90.85;-25.85;-65.00;0.90;85.81;-86.62;3.21 
2.222;-1.04;-0.05;-0.26;-1.67;-172.73;-13.77;-97.84;-37.34;-78.00;1.07;82.14;-84.54;2.30 
2.252;-0.82;-0.07;-0.42;-3.34;-199.65;11.90;-96.84;-50.74;-106.00;0.92;76.73;-79.69;2.11 
2.282;-0.42;0.04;-0.63;-9.53;-225.67;33.39;-92.84;-74.67;-148.00;0.76;70.90;-74.25;2.57 
2.312;0.47;-0.08;-0.52;-6.26;-215.30;33.32;-92.84;-89.03;-175.00;0.71;65.17;-68.53;3.18 
2.343;-0.72;0.40;0.62;-20.31;-164.03;9.60;-90.85;-97.65;-198.00;1.03;60.29;-63.05;4.03 
2.373;-9.42;1.74;9.06;-139.20;-604.73;-93.63;-90.85;-121.58;-217.00;13.19;55.05;-55.20;3.31 
2.403;-2.74;0.49;-2.67;-98.71;-416.90;213.77;-112.81;-184.76;-260.00;3.86;50.53;-49.97;4.75 
2.433;0.36;-0.02;-0.94;-145.67;-569.32;-132.38;-139.77;-240.29;-296.00;1.01;42.67;-38.54;2.93 
2.463;2.78;0.36;0.38;-37.84;-86.12;-267.34;-155.74;-310.17;-306.00;2.83;45.69;-28.62;-1.22 
2.492;2.08;-0.79;0.73;-42.64;-80.14;8.97;-175.71;-348.47;-300.00;2.34;50.17;-23.32;-5.53 
2.521;0.98;-0.45;1.50;10.09;-27.76;22.96;-183.69;-354.21;-304.00;1.85;49.18;-21.14;-5.52 
2.551;0.46;0.64;0.91;1.81;-27.20;-10.23;-183.69;-362.83;-304.00;1.20;49.90;-18.86;-5.27 
2.581;0.05;-0.16;1.59;-59.27;-49.74;28.17;-190.68;-368.57;-303.00;1.60;49.90;-17.29;-5.53 
2.611;0.41;-0.88;0.48;-35.55;-77.08;31.44;-202.66;-370.48;-291.00;1.08;48.85;-14.33;-7.21 
2.642;1.01;-0.29;0.45;16.63;-22.89;1.11;-205.66;-377.18;-289.00;1.14;49.13;-11.42;-7.94 
2.672;0.78;-0.06;0.67;6.96;45.57;5.36;-203.66;-378.14;-293.00;1.03;49.75;-10.26;-7.66 
2.702;0.21;-0.17;0.61;-8.83;70.19;-0.35;-202.66;-371.44;-296.00;0.67;50.68;-10.78;-7.73 
2.732;-0.10;-0.28;0.89;2.02;51.62;-0.42;-201.66;-360.91;-291.00;0.94;51.72;-11.97;-7.89 
2.762;0.04;-0.22;0.96;10.99;46.33;3.69;-199.67;-356.12;-294.00;0.99;52.83;-12.76;-7.80 
2.792;0.04;-0.23;0.90;13.01;60.17;7.65;-196.67;-343.68;-299.00;0.93;53.72;-13.56;-7.53 
2.822;-0.04;-0.20;0.91;12.87;69.36;9.53;-196.67;-334.11;-301.00;0.93;54.64;-14.70;-7.18 
2.853;-0.20;-0.14;0.88;11.13;64.14;10.02;-191.68;-320.70;-302.00;0.91;55.60;-16.13;-6.83 
2.883;-0.08;-0.16;0.88;19.41;54.54;7.93;-192.68;-313.04;-300.00;0.90;56.45;-17.22;-6.34 
2.913;0.06;-0.08;0.96;19.48;67.83;4.66;-184.69;-296.77;-304.00;0.97;57.42;-18.12;-5.75 
2.944;-0.05;-0.04;0.97;7.30;88.21;7.58;-184.69;-285.28;-306.00;0.97;58.51;-19.63;-5.23 
2.974;-0.17;-0.07;1.01;5.63;97.04;3.20;-182.69;-269.96;-307.00;1.03;59.70;-21.63;-5.04 
3.004;-0.51;-0.08;1.11;8.00;95.17;7.93;-180.70;-256.56;-301.00;1.22;61.01;-23.87;-4.78 
3.034;-1.02;0.14;0.66;-24.35;24.14;25.39;-177.70;-243.16;-299.00;1.22;61.71;-25.38;-4.37 
3.065;-0.94;-0.11;-0.13;-8.70;7.65;15.86;-180.70;-236.46;-293.00;0.96;61.86;-26.15;-4.78 
3.095;-0.77;-0.08;0.83;2.92;-90.30;-17.53;-180.70;-238.37;-297.00;1.13;62.62;-25.37;-4.70 
3.125;0.26;-0.23;0.77;9.18;-28.59;-16.14;-183.69;-246.99;-296.00;0.84;63.31;-22.72;-5.05 
3.156;-0.27;-0.14;1.18;14.61;38.19;-5.15;-179.70;-256.56;-302.00;1.22;64.41;-21.77;-4.94 
3.186;-0.66;0.02;0.64;2.43;18.64;-2.78;-176.70;-248.90;-301.00;0.92;65.53;-22.26;-4.71 
3.215;-0.54;0.02;0.76;9.39;-9.04;-0.49;-177.70;-246.99;-302.00;0.93;66.37;-22.17;-4.43 
3.244;-0.36;0.06;0.79;2.71;-13.98;3.34;-175.71;-250.82;-303.00;0.87;66.96;-21.43;-4.12 
3.273;-0.25;0.00;0.82;-2.23;-13.29;3.41;-174.71;-250.82;-306.00;0.86;67.45;-20.46;-3.96 
3.302;-0.42;-0.10;0.94;-4.73;-9.60;-0.07;-179.70;-253.69;-305.00;1.03;68.05;-19.71;-3.97 
3.332;-0.25;-0.12;0.93;-9.39;-22.82;-2.02;-179.70;-258.48;-306.00;0.97;68.65;-18.64;-4.19 
3.362;-0.10;-0.14;0.93;-4.38;-7.44;0.97;-179.70;-261.35;-303.00;0.95;69.31;-17.39;-4.43 
3.392;-0.19;-0.14;0.86;0.21;6.33;1.11;-179.70;-261.35;-303.00;0.89;69.99;-16.69;-4.49 
3.422;-0.33;-0.13;0.80;1.67;8.35;0.97;-179.70;-258.48;-303.00;0.88;70.72;-16.35;-4.48 
3.453;-0.34;-0.12;0.90;0.90;1.11;0.14;-177.70;-257.52;-305.00;0.97;71.48;-16.01;-4.40 
3.483;-0.29;-0.10;0.83;-0.07;1.60;-1.04;-179.70;-256.56;-302.00;0.88;72.25;-15.50;-4.37 
3.513;-0.32;-0.09;0.81;-0.21;2.02;-0.97;-178.70;-261.35;-305.00;0.88;73.00;-15.07;-4.32 
3.542;-0.33;-0.08;0.85;2.64;0.70;0.42;-182.69;-259.43;-302.00;0.92;73.73;-14.65;-4.23 
3.572;-0.32;-0.04;0.86;1.32;-1.04;0.77;-183.69;-256.56;-306.00;0.92;74.46;-14.12;-4.07 
3.602;-0.27;-0.06;0.86;0.42;-1.04;0.63;-181.70;-254.65;-306.00;0.90;75.14;-13.60;-3.92 
3.632;-0.30;-0.07;0.84;-0.90;0.35;0.42;-175.71;-261.35;-302.00;0.89;75.84;-13.08;-3.84 
3.663;-0.30;-0.10;0.85;-0.49;-0.21;0.77;-178.70;-257.52;-305.00;0.91;76.55;-12.58;-3.77 
3.693;-0.30;-0.11;0.88;0.21;0.90;0.35;-178.70;-256.56;-305.00;0.94;77.29;-12.08;-3.70 
3.723;-0.30;-0.09;0.87;-0.28;0.83;0.21;-180.70;-257.52;-301.00;0.92;78.00;-11.64;-3.61 
3.754;-0.30;-0.09;0.86;-0.70;0.63;-0.49;-179.70;-257.52;-304.00;0.92;78.75;-11.20;-3.55 
3.783;-0.29;-0.09;0.84;0.14;1.18;-0.70;-178.70;-258.48;-301.00;0.89;79.53;-10.77;-3.48 
3.813;-0.32;-0.07;0.83;0.70;1.46;0.00;-178.70;-256.56;-304.00;0.89;80.26;-10.38;-3.38 
3.843;-0.32;-0.06;0.81;0.49;-1.60;-0.56;-179.70;-257.52;-305.00;0.87;80.99;-10.01;-3.25 
3.873;-0.27;-0.09;0.84;-0.63;0.63;-0.21;-177.70;-259.43;-302.00;0.89;81.74;-9.54;-3.13 
3.903;-0.33;-0.07;0.82;-1.74;1.60;-0.42;-176.70;-256.56;-303.00;0.89;82.47;-9.20;-3.06 
3.933;-0.29;-0.10;0.82;-0.49;-1.60;-0.21;-179.70;-257.52;-306.00;0.88;83.19;-8.81;-2.99 
3.964;-0.30;-0.07;0.85;-0.14;0.97;0.14;-180.70;-256.56;-303.00;0.90;83.94;-8.39;-2.92 
3.994;-0.30;-0.07;0.83;0.35;0.42;0.28;-181.70;-257.52;-305.00;0.89;84.66;-8.03;-2.81 
4.024;-0.31;-0.07;0.86;0.28;0.35;0.42;-179.70;-256.56;-303.00;0.92;85.39;-7.66;-2.72 
4.054;-0.30;-0.10;0.86;-1.46;0.21;-0.42;-179.70;-257.52;-301.00;0.92;86.10;-7.32;-2.63 
4.084;-0.34;-0.09;0.90;-2.37;-1.95;-0.56;-179.70;-258.48;-303.00;0.97;86.83;-6.96;-2.57 
4.114;-0.35;-0.10;0.74;-9.81;-10.78;-3.69;-180.70;-259.43;-302.00;0.82;87.58;-6.56;-2.63 
4.144;-0.16;-0.14;0.74;1.25;-12.73;-1.60;-180.70;-262.31;-303.00;0.77;88.37;-5.84;-2.75 
4.175;-0.12;-0.09;0.85;5.98;5.50;0.77;-180.70;-263.26;-303.00;0.86;89.10;-5.25;-2.53 
4.204;-0.39;-0.06;0.86;5.29;7.37;1.60;-178.70;-258.48;-304.00;0.95;89.78;-5.17;-2.23 
4.234;-0.41;-0.04;0.90;2.99;-5.22;0.70;-177.70;-260.39;-305.00;0.99;90.44;-5.01;-1.95 
4.265;-0.22;-0.09;0.90;1.25;-4.03;0.63;-175.71;-260.39;-305.00;0.93;91.13;-4.53;-1.75 
4.295;-0.26;-0.09;0.84;-0.14;2.57;0.63;-177.70;-261.35;-309.00;0.88;91.82;-4.16;-1.60 
4.325;-0.28;-0.09;0.83;0.14;1.74;0.56;-178.70;-260.39;-305.00;0.88;92.49;-3.94;-1.49 
4.355;-0.28;-0.06;0.86;1.25;1.46;0.21;-176.70;-260.39;-309.00;0.91;93.15;-3.71;-1.37 
4.385;-0.37;-0.07;0.82;-2.37;0.90;-0.70;-180.70;-261.35;-307.00;0.90;93.87;-3.49;-1.27 
4.414;-0.31;-0.09;0.87;-2.43;-5.43;-1.39;-177.70;-260.39;-304.00;0.93;94.57;-3.21;-1.22 
4.444;-0.26;-0.11;0.81;-1.04;-2.99;-0.70;-179.70;-264.22;-306.00;0.86;95.28;-2.83;-1.20 
4.475;-0.28;-0.10;0.84;0.14;2.43;0.21;-174.71;-261.35;-307.00;0.89;95.97;-2.55;-1.11 
4.505;-0.29;-0.10;0.84;0.90;1.32;0.49;-177.70;-262.31;-306.00;0.89;96.65;-2.38;-1.02 
4.535;-0.29;-0.07;0.88;-1.11;-0.35;-0.77;-180.70;-264.22;-306.00;0.93;97.31;-2.22;-0.88 
4.565;-0.26;-0.10;0.81;0.83;-0.56;0.70;-177.70;-261.35;-302.00;0.86;97.98;-2.02;-0.81 
4.595;-0.27;-0.06;0.84;1.81;1.32;-0.14;-177.70;-262.31;-303.00;0.88;98.65;-1.84;-0.68 
4.625;-0.28;-0.09;0.83;1.18;2.50;0.63;-182.69;-260.39;-307.00;0.88;99.30;-1.71;-0.55 
4.654;-0.30;-0.06;0.83;1.95;-1.18;0.42;-177.70;-260.39;-306.00;0.88;99.93;-1.58;-0.41 
4.684;-0.23;-0.07;0.91;1.39;-0.28;1.39;-175.71;-262.31;-310.00;0.94;100.57;-1.33;-0.25 
4.714;-0.38;-0.02;0.94;-3.55;-1.53;-1.39;-177.70;-262.31;-305.00;1.01;101.21;-1.16;-0.11 
4.744;-0.29;-0.11;0.73;-6.26;-7.86;-3.90;-181.70;-262.31;-304.00;0.79;101.95;-0.89;-0.18 
4.775;-0.20;-0.10;0.78;2.85;-2.30;0.70;-180.70;-267.09;-311.00;0.81;102.66;-0.54;-0.16 
4.805;-0.28;-0.07;0.90;2.30;1.67;1.11;-175.71;-266.14;-303.00;0.95;103.29;-0.34;0.02 
4.835;-0.30;-0.06;0.84;3.34;4.17;2.23;-177.70;-262.31;-308.00;0.89;103.86;-0.26;0.19 
4.865;-0.38;-0.02;0.99;0.56;-3.55;0.49;-176.70;-264.22;-307.00;1.06;104.42;-0.24;0.38 
4.895;-0.21;-0.06;0.80;-4.03;-4.10;-2.71;-174.71;-265.18;-308.00;0.83;105.12;0.05;0.45 
4.925;-0.28;-0.11;0.82;0.21;0.35;0.21;-175.71;-265.18;-307.00;0.87;105.79;0.22;0.42 
4.954;-0.32;-0.06;0.87;-3.34;-3.76;-2.02;-178.70;-267.09;-303.00;0.93;106.43;0.32;0.46 
4.983;-0.26;-0.12;0.77;0.70;-2.71;-0.35;-175.71;-269.96;-306.00;0.82;107.10;0.51;0.43 
5.012;-0.27;-0.07;0.85;0.90;1.18;0.70;-175.71;-265.18;-306.00;0.89;107.69;0.65;0.50 
5.042;-0.27;-0.10;0.81;2.85;2.57;1.53;-179.70;-263.26;-309.00;0.86;108.27;0.65;0.64 
5.073;-0.27;-0.09;0.90;0.42;0.63;1.04;-176.70;-267.09;-308.00;0.94;108.86;0.71;0.78 
5.103;-0.30;-0.02;0.88;-1.11;3.62;0.00;-177.70;-263.26;-304.00;0.93;109.48;0.73;0.86 
5.133;-0.29;-0.08;0.81;-0.77;0.97;0.07;-177.70;-263.26;-309.00;0.86;110.08;0.75;0.91 
5.163;-0.28;-0.07;0.84;0.35;2.23;0.56;-176.70;-265.18;-309.00;0.89;110.68;0.78;0.97 
5.193;-0.29;-0.07;0.86;0.35;2.92;-0.28;-175.71;-263.26;-310.00;0.91;111.29;0.75;1.03 
5.223;-0.30;-0.08;0.81;1.67;1.04;0.00;-178.70;-263.26;-305.00;0.87;111.90;0.72;1.10 
5.253;-0.26;-0.05;0.82;1.11;1.04;-0.14;-179.70;-264.22;-307.00;0.86;112.49;0.75;1.19 
5.284;-0.29;-0.07;0.88;0.42;2.50;0.28;-179.70;-263.26;-312.00;0.93;113.11;0.74;1.27 
5.313;-0.30;-0.06;0.85;0.07;1.81;0.63;-178.70;-263.26;-308.00;0.90;113.70;0.72;1.33 
5.342;-0.29;-0.08;0.86;0.21;0.90;0.21;-177.70;-264.22;-310.00;0.91;114.26;0.67;1.40 
5.373;-0.27;-0.06;0.83;0.21;1.18;-0.07;-175.71;-262.31;-309.00;0.87;114.87;0.65;1.44 
5.403;-0.29;-0.09;0.81;0.42;1.04;0.14;-177.70;-262.31;-309.00;0.87;115.47;0.64;1.48 
5.433;-0.27;-0.07;0.88;0.14;1.04;-0.07;-175.71;-265.18;-305.00;0.92;116.05;0.61;1.53 
5.463;-0.27;-0.09;0.86;-0.14;0.90;0.07;-174.71;-260.39;-305.00;0.91;116.63;0.59;1.58 
5.493;-0.29;-0.06;0.84;0.42;1.39;0.14;-176.70;-258.48;-310.00;0.89;117.23;0.56;1.63 
5.523;-0.30;-0.07;0.82;0.28;0.14;0.42;-176.70;-263.26;-304.00;0.88;117.79;0.52;1.69 
5.553;-0.28;-0.09;0.84;0.14;0.35;0.00;-178.70;-261.35;-309.00;0.89;118.35;0.51;1.71 
5.583;-0.29;-0.10;0.86;0.56;0.42;-0.14;-177.70;-264.22;-307.00;0.91;118.93;0.47;1.74 
5.612;-0.29;-0.04;0.86;0.14;0.97;-0.07;-175.71;-260.39;-308.00;0.91;119.50;0.45;1.76 
5.642;-0.29;-0.08;0.83;0.21;0.90;0.14;-173.71;-261.35;-307.00;0.88;120.07;0.39;1.80 
5.673;-0.29;-0.06;0.87;0.97;1.04;0.14;-172.71;-260.39;-310.00;0.92;120.65;0.33;1.82 
5.703;-0.29;-0.08;0.88;0.49;0.49;0.56;-178.70;-263.26;-309.00;0.93;121.22;0.27;1.85 
5.733;-0.29;-0.09;0.86;0.49;-0.49;-0.28;-177.70;-263.26;-306.00;0.91;121.77;0.22;1.90 
5.763;-0.30;-0.08;0.87;-0.77;-1.32;-0.70;-175.71;-262.31;-307.00;0.92;122.35;0.20;1.93 
5.793;-0.30;-0.08;0.81;-0.14;0.00;0.00;-174.71;-261.35;-307.00;0.87;122.91;0.15;1.93 
5.822;-0.29;-0.07;0.86;0.35;-0.14;-0.14;-178.70;-263.26;-310.00;0.91;123.46;0.12;1.97 
5.852;-0.32;-0.08;0.79;-0.90;1.53;0.07;-174.71;-263.26;-308.00;0.86;124.00;0.06;1.97 
5.883;-0.30;-0.08;0.85;0.83;0.07;-0.07;-174.71;-260.39;-308.00;0.90;124.56;-0.05;1.96 
5.913;-0.33;-0.06;0.86;-2.16;-2.16;-1.32;-176.70;-264.22;-310.00;0.92;125.13;-0.13;1.97 
5.943;-0.26;-0.06;0.77;-2.09;-6.47;-1.32;-177.70;-260.39;-307.00;0.81;125.71;-0.07;1.88 
5.973;-0.23;-0.07;0.82;2.09;1.11;0.77;-175.71;-266.14;-306.00;0.85;126.26;-0.01;1.85 
6.002;-0.34;-0.05;0.86;0.83;3.69;1.04;-176.70;-260.39;-311.00;0.93;126.77;-0.19;1.92 
6.031;-0.30;-0.07;0.89;1.81;-3.27;0.35;-173.71;-266.14;-307.00;0.94;127.28;-0.29;1.98 
6.061;-0.22;-0.06;0.90;-0.97;0.70;0.21;-172.71;-262.31;-308.00;0.93;127.79;-0.24;1.99 
6.091;-0.32;-0.08;0.84;-0.49;2.50;-0.35;-175.71;-264.22;-308.00;0.90;128.33;-0.41;1.95 
6.121;-0.32;-0.07;0.87;-0.70;-1.74;-1.25;-173.71;-261.35;-308.00;0.93;128.88;-0.52;1.94 
6.151;-0.30;-0.10;0.80;-3.48;-3.48;-1.39;-174.71;-267.09;-307.00;0.86;129.44;-0.55;1.86 
6.182;-0.26;-0.05;0.81;0.28;-4.10;-0.56;-175.71;-265.18;-309.00;0.85;130.02;-0.50;1.78 
6.212;-0.26;-0.06;0.88;0.00;3.06;0.77;-178.70;-264.22;-310.00;0.92;130.53;-0.53;1.77 
6.241;-0.33;-0.07;0.85;1.88;0.56;0.70;-173.71;-265.18;-306.00;0.91;131.01;-0.69;1.76 
6.270;-0.26;-0.07;0.95;0.28;-3.34;0.97;-176.70;-262.31;-308.00;0.99;131.49;-0.71;1.79 
6.300;-0.26;-0.08;0.86;-1.04;4.10;-0.14;-174.71;-263.26;-306.00;0.90;132.00;-0.76;1.74 
6.330;-0.30;-0.06;0.84;0.42;0.14;-0.21;-176.70;-266.14;-310.00;0.89;132.51;-0.94;1.69 
6.360;-0.26;-0.10;0.86;0.21;2.85;0.28;-172.71;-262.31;-310.00;0.90;133.02;-1.10;1.66 
6.390;-0.30;-0.07;0.83;0.28;2.09;0.07;-174.71;-264.22;-307.00;0.89;133.53;-1.30;1.63 
6.420;-0.29;-0.07;0.84;1.04;0.00;0.21;-176.70;-264.22;-309.00;0.89;134.03;-1.44;1.63 
6.449;-0.27;-0.07;0.85;0.28;0.90;0.00;-173.71;-263.26;-310.00;0.89;134.53;-1.54;1.64 
6.480;-0.30;-0.06;0.85;1.18;-0.28;0.42;-173.71;-266.14;-308.00;0.90;135.03;-1.67;1.61 
6.510;-0.26;-0.07;0.90;-0.35;0.21;0.21;-173.71;-262.31;-307.00;0.94;135.52;-1.75;1.59 
6.540;-0.29;-0.08;0.83;-0.63;1.25;-0.07;-174.71;-263.26;-308.00;0.88;136.00;-1.87;1.53 
6.571;-0.26;-0.06;0.84;0.63;1.46;0.14;-173.71;-264.22;-306.00;0.88;136.49;-2.01;1.46 
6.601;-0.30;-0.04;0.86;0.14;2.50;0.14;-173.71;-263.26;-309.00;0.91;136.98;-2.17;1.43 
6.631;-0.33;-0.06;0.82;-0.28;1.60;0.00;-175.71;-263.26;-309.00;0.89;137.46;-2.36;1.37 
6.661;-0.31;-0.05;0.83;0.00;-0.14;-0.07;-175.71;-261.35;-309.00;0.89;137.95;-2.51;1.32 
6.692;-0.27;-0.08;0.86;0.35;0.21;0.28;-174.71;-264.22;-305.00;0.90;138.44;-2.62;1.28 
6.722;-0.34;-0.10;0.86;0.21;-0.63;0.07;-178.70;-261.35;-306.00;0.93;138.92;-2.74;1.24 
6.752;-0.26;-0.08;0.82;0.00;-0.83;-0.28;-171.71;-265.18;-308.00;0.86;139.39;-2.83;1.17 
6.782;-0.29;-0.11;0.86;0.00;0.42;0.07;-175.71;-265.18;-306.00;0.91;139.87;-2.95;1.10 
6.812;-0.26;-0.08;0.90;0.00;0.00;0.00;-172.71;-267.09;-308.00;0.94;140.35;-3.05;1.05 
6.842;-0.30;-0.06;0.78;-1.32;1.39;0.07;-173.71;-264.22;-307.00;0.84;140.81;-3.17;0.95 
6.872;-0.29;-0.12;0.82;0.21;0.07;0.21;-173.71;-266.14;-306.00;0.88;141.26;-3.34;0.86 
6.902;-0.28;-0.10;0.86;-0.14;2.23;0.07;-173.71;-266.14;-308.00;0.91;141.73;-3.48;0.80 
6.932;-0.32;-0.06;0.85;-0.21;0.90;0.07;-177.70;-265.18;-306.00;0.91;142.18;-3.68;0.75 
6.962;-0.27;-0.06;0.83;-0.70;-1.46;-0.35;-176.70;-265.18;-305.00;0.87;142.64;-3.79;0.65 
6.992;-0.27;-0.07;0.87;-0.21;0.35;-0.14;-174.71;-263.26;-306.00;0.91;143.11;-3.89;0.54 
7.022;-0.30;-0.10;0.85;-0.21;0.42;0.00;-172.71;-267.09;-304.00;0.91;143.57;-4.02;0.47 
7.052;-0.27;-0.06;0.86;-0.14;0.90;0.21;-175.71;-264.22;-310.00;0.90;144.01;-4.14;0.38 
7.083;-0.30;-0.07;0.86;-0.14;2.02;-0.07;-174.71;-267.09;-306.00;0.91;144.47;-4.29;0.29 
7.113;-0.30;-0.07;0.86;-0.21;0.28;0.00;-176.70;-266.14;-309.00;0.91;144.92;-4.45;0.20 
7.143;-0.30;-0.07;0.83;-0.07;1.46;-0.14;-174.71;-267.09;-308.00;0.89;145.35;-4.59;0.11 
7.173;-0.28;-0.07;0.84;0.28;2.09;0.14;-175.71;-268.05;-305.00;0.89;145.80;-4.77;0.02 
7.204;-0.30;-0.07;0.82;0.28;0.42;0.56;-177.70;-265.18;-307.00;0.88;146.22;-4.96;-0.08 
7.234;-0.28;-0.08;0.86;0.07;0.63;-0.21;-176.70;-265.18;-309.00;0.91;146.65;-5.09;-0.17 
7.264;-0.29;-0.06;0.85;0.00;0.83;0.21;-173.71;-265.18;-308.00;0.90;147.08;-5.23;-0.27 
7.295;-0.29;-0.05;0.85;0.07;0.00;0.35;-174.71;-269.01;-307.00;0.90;147.51;-5.36;-0.35 
7.324;-0.28;-0.09;0.86;-0.63;0.49;0.14;-175.71;-267.09;-306.00;0.91;147.93;-5.49;-0.47 
7.353;-0.27;-0.06;0.88;-0.42;-0.28;0.14;-174.71;-265.18;-308.00;0.92;148.33;-5.60;-0.59 
7.382;-0.28;-0.06;0.86;-0.21;0.35;0.07;-179.70;-264.22;-308.00;0.91;148.73;-5.70;-0.71 
7.412;-0.28;-0.07;0.87;-0.28;0.35;-0.21;-174.71;-266.14;-305.00;0.92;149.16;-5.83;-0.83 
7.442;-0.28;-0.08;0.83;-0.21;1.18;-0.28;-176.70;-265.18;-309.00;0.88;149.57;-5.95;-0.94 
7.472;-0.29;-0.06;0.85;0.07;0.21;0.42;-175.71;-267.09;-307.00;0.90;149.96;-6.09;-1.04 
7.503;-0.27;-0.10;0.85;-0.35;0.70;0.14;-175.71;-264.22;-308.00;0.90;150.38;-6.22;-1.14 
7.533;-0.29;-0.07;0.83;-0.07;0.42;0.21;-174.71;-265.18;-307.00;0.88;150.79;-6.37;-1.26 
7.563;-0.29;-0.08;0.83;-0.28;-0.56;0.28;-174.71;-265.18;-306.00;0.88;151.18;-6.49;-1.38 
7.594;-0.28;-0.07;0.83;-0.49;0.56;0.14;-174.71;-266.14;-307.00;0.88;151.59;-6.60;-1.51 
7.624;-0.29;-0.06;0.85;-0.28;0.70;-0.42;-177.70;-262.31;-306.00;0.90;152.01;-6.72;-1.63 
7.653;-0.26;-0.10;0.85;0.28;0.14;0.35;-177.70;-266.14;-307.00;0.89;152.39;-6.85;-1.72 
7.683;-0.28;-0.06;0.86;0.00;0.77;-0.07;-174.71;-263.26;-310.00;0.91;152.76;-6.96;-1.82 
7.713;-0.31;-0.08;0.86;-0.83;-0.28;-0.21;-176.70;-264.22;-308.00;0.92;153.15;-7.08;-1.93 
7.743;-0.28;-0.07;0.85;0.00;-0.63;0.14;-176.70;-263.26;-306.00;0.90;153.53;-7.19;-2.07 
7.773;-0.30;-0.06;0.89;0.14;-0.35;0.28;-176.70;-265.18;-304.00;0.94;153.90;-7.30;-2.20 
7.804;-0.26;-0.07;0.83;-0.07;0.56;-0.07;-173.71;-262.31;-303.00;0.87;154.29;-7.39;-2.31 
7.833;-0.30;-0.08;0.83;0.21;0.63;0.42;-174.71;-266.14;-306.00;0.89;154.66;-7.54;-2.42 
7.862;-0.29;-0.05;0.82;0.00;-0.70;-0.07;-172.71;-265.18;-310.00;0.87;155.00;-7.67;-2.53 
7.893;-0.26;-0.06;0.86;0.00;2.16;0.35;-174.71;-266.14;-303.00;0.90;155.38;-7.77;-2.64 
7.923;-0.30;-0.08;0.84;0.14;0.21;0.28;-174.71;-266.14;-304.00;0.90;155.74;-7.94;-2.77 
7.953;-0.26;-0.06;0.86;-0.28;0.14;-0.14;-173.71;-268.05;-301.00;0.90;156.11;-8.04;-2.89 
7.983;-0.28;-0.08;0.84;-0.14;0.90;-0.07;-176.70;-265.18;-302.00;0.89;156.48;-8.15;-3.01 
8.014;-0.27;-0.05;0.86;-0.21;-0.21;0.21;-173.71;-268.05;-304.00;0.90;156.84;-8.27;-3.12 
8.044;-0.27;-0.08;0.84;-0.28;0.90;0.14;-172.71;-265.18;-303.00;0.89;157.20;-8.38;-3.25 
8.073;-0.30;-0.07;0.82;-0.07;-0.14;0.07;-176.70;-267.09;-302.00;0.88;157.55;-8.51;-3.38 
8.104;-0.30;-0.05;0.90;0.14;-0.14;0.35;-171.71;-265.18;-304.00;0.95;157.90;-8.59;-3.53 
8.134;-0.28;-0.06;0.85;-0.07;0.70;0.00;-174.71;-267.09;-307.00;0.90;158.25;-8.71;-3.66 
8.164;-0.27;-0.06;0.83;-0.28;0.49;0.14;-172.71;-267.09;-308.00;0.87;158.60;-8.80;-3.80 
8.194;-0.30;-0.06;0.83;-0.14;0.21;0.21;-176.70;-268.05;-307.00;0.88;158.93;-8.91;-3.92 
8.224;-0.28;-0.06;0.84;0.14;0.49;-0.49;-173.71;-267.09;-309.00;0.89;159.29;-8.98;-4.05 
8.253;-0.32;-0.06;0.84;-0.56;0.56;0.00;-176.70;-269.96;-309.00;0.90;159.62;-9.09;-4.18 
8.283;-0.29;-0.06;0.84;-0.42;0.00;0.07;-172.71;-269.01;-304.00;0.89;159.95;-9.20;-4.30 
8.314;-0.28;-0.08;0.86;-0.42;0.28;0.35;-175.71;-271.88;-303.00;0.91;160.28;-9.28;-4.44 
8.344;-0.28;-0.06;0.85;-0.77;0.07;0.28;-176.70;-271.88;-304.00;0.90;160.61;-9.37;-4.55 
8.374;-0.29;-0.08;0.84;-0.83;-0.70;-0.49;-178.70;-269.01;-306.00;0.89;160.94;-9.47;-4.71 
8.405;-0.28;-0.06;0.88;-1.04;-1.32;-0.14;-174.71;-269.01;-303.00;0.93;161.28;-9.51;-4.87 
8.435;-0.27;-0.07;0.82;-1.53;0.35;-0.28;-174.71;-271.88;-309.00;0.87;161.61;-9.57;-5.05 
8.464;-0.31;-0.05;0.86;-1.11;-0.49;0.00;-179.70;-268.05;-306.00;0.92;161.92;-9.64;-5.23 
8.494;-0.26;-0.07;0.85;-2.50;-1.18;-0.83;-176.70;-270.92;-305.00;0.89;162.24;-9.70;-5.40 
8.524;-0.28;-0.08;0.84;-0.77;-0.35;0.00;-175.71;-268.05;-306.00;0.89;162.57;-9.78;-5.60 
8.554;-0.26;-0.09;0.88;-0.49;-0.28;-0.21;-176.70;-269.96;-305.00;0.92;162.87;-9.84;-5.75 
8.584;-0.26;-0.10;0.85;-1.32;0.49;-0.14;-175.71;-270.92;-300.00;0.89;163.18;-9.90;-5.93 
8.615;-0.26;-0.06;0.86;-0.83;0.35;0.00;-175.71;-270.92;-308.00;0.90;163.48;-10.00;-6.09 
8.645;-0.28;-0.08;0.84;-0.63;0.35;0.00;-180.70;-269.01;-302.00;0.89;163.77;-10.10;-6.24 
8.675;-0.28;-0.07;0.83;-0.83;-0.07;-0.07;-175.71;-270.92;-304.00;0.88;164.07;-10.17;-6.40 
8.704;-0.27;-0.07;0.86;-0.42;0.42;0.21;-180.70;-270.92;-304.00;0.90;164.36;-10.22;-6.55 
8.733;-0.26;-0.05;0.86;-0.77;0.70;0.28;-175.71;-269.96;-303.00;0.90;164.64;-10.35;-6.71 
8.762;-0.28;-0.06;0.85;-0.97;-0.77;-0.42;-177.70;-269.96;-302.00;0.90;164.92;-10.42;-6.85 
8.791;-0.27;-0.04;0.86;-1.04;1.18;0.14;-177.70;-271.88;-304.00;0.90;165.20;-10.48;-7.02 
8.820;-0.30;-0.06;0.82;-0.35;0.00;-0.07;-178.70;-270.92;-303.00;0.88;165.49;-10.55;-7.17 
8.850;-0.26;-0.08;0.83;0.07;0.70;-0.14;-174.71;-271.88;-302.00;0.87;165.77;-10.59;-7.33 
8.880;-0.30;-0.08;0.83;0.21;0.42;0.00;-182.69;-271.88;-302.00;0.89;166.04;-10.69;-7.47 
8.911;-0.28;-0.06;0.84;-0.14;0.21;-0.07;-178.70;-272.84;-304.00;0.89;166.33;-10.76;-7.60 
8.941;-0.29;-0.09;0.83;-0.21;0.21;0.14;-177.70;-271.88;-303.00;0.88;166.60;-10.86;-7.74 
8.971;-0.27;-0.08;0.80;-0.42;-0.07;0.14;-179.70;-270.92;-303.00;0.85;166.86;-10.91;-7.87 
9.002;-0.26;-0.06;0.86;-0.56;1.18;-0.35;-178.70;-271.88;-301.00;0.90;167.15;-10.96;-7.99 
9.032;-0.31;-0.06;0.85;0.00;0.97;0.07;-179.70;-269.96;-303.00;0.91;167.41;-11.08;-8.13 
9.062;-0.26;-0.06;0.89;-0.07;0.00;0.14;-175.71;-272.84;-301.00;0.93;167.67;-11.15;-8.26 
9.092;-0.28;-0.06;0.86;-0.28;0.83;0.00;-178.70;-274.75;-303.00;0.91;167.93;-11.21;-8.40 
9.121;-0.30;-0.05;0.85;-0.42;-0.56;0.28;-178.70;-271.88;-301.00;0.90;168.19;-11.29;-8.48 
9.151;-0.29;-0.09;0.84;-0.28;0.63;0.28;-179.70;-270.92;-302.00;0.89;168.45;-11.32;-8.63 
9.181;-0.34;-0.06;0.82;-0.21;-0.28;-0.35;-183.69;-271.88;-302.00;0.89;168.69;-11.41;-8.79 
9.212;-0.26;-0.10;0.86;-0.42;0.49;0.28;-181.70;-270.92;-305.00;0.90;168.95;-11.44;-8.95 
9.242;-0.30;-0.08;0.83;0.28;-0.07;0.07;-179.70;-269.01;-300.00;0.89;169.21;-11.51;-9.07 
9.272;-0.26;-0.06;0.85;0.07;0.14;0.21;-179.70;-270.92;-306.00;0.89;169.45;-11.54;-9.20 
9.302;-0.27;-0.08;0.86;-0.90;1.04;-0.56;-181.70;-273.79;-303.00;0.90;169.69;-11.60;-9.33 
9.332;-0.31;-0.07;0.81;-0.35;-1.74;-0.21;-179.70;-269.96;-302.00;0.87;169.94;-11.66;-9.50 
9.362;-0.23;-0.08;0.89;-0.14;0.28;-0.21;-179.70;-270.92;-304.00;0.92;170.19;-11.62;-9.62 
9.392;-0.30;-0.08;0.82;-0.42;2.37;0.14;-178.70;-269.96;-304.00;0.88;170.43;-11.71;-9.77 
9.423;-0.28;-0.10;0.84;-0.35;-0.35;0.21;-178.70;-269.96;-305.00;0.89;170.67;-11.79;-9.94 
9.453;-0.29;-0.06;0.84;-0.35;0.90;0.21;-176.70;-269.96;-304.00;0.89;170.91;-11.84;-10.08 
9.483;-0.29;-0.09;0.87;-0.28;0.00;0.07;-177.70;-269.01;-304.00;0.92;171.14;-11.91;-10.20 
9.514;-0.26;-0.06;0.86;-0.28;0.35;-0.14;-179.70;-271.88;-304.00;0.90;171.38;-11.94;-10.35 
9.544;-0.29;-0.08;0.86;-0.28;0.97;-0.14;-177.70;-270.92;-304.00;0.91;171.62;-12.00;-10.50 
9.574;-0.26;-0.09;0.82;-0.35;-0.28;0.00;-179.70;-268.05;-305.00;0.86;171.85;-12.05;-10.63 
9.604;-0.26;-0.06;0.87;-0.70;1.18;0.14;-177.70;-271.88;-303.00;0.91;172.07;-12.09;-10.76 
9.633;-0.34;-0.11;0.81;-0.14;-0.83;-0.07;-181.70;-269.96;-304.00;0.89;172.29;-12.15;-10.90 
9.662;-0.26;-0.10;0.86;-0.49;0.21;0.00;-183.69;-270.92;-301.00;0.90;172.50;-12.15;-11.03 
9.692;-0.26;-0.09;0.84;-0.28;0.97;-0.49;-178.70;-273.79;-303.00;0.88;172.71;-12.21;-11.19 
9.723;-0.30;-0.06;0.86;0.49;0.49;0.07;-180.70;-270.92;-301.00;0.91;172.94;-12.28;-11.31 
9.753;-0.32;-0.09;0.84;1.11;0.35;-0.28;-179.70;-270.92;-303.00;0.90;173.16;-12.33;-11.41 
9.783;-0.27;-0.09;0.83;-0.07;1.60;0.21;-178.70;-269.01;-301.00;0.88;173.37;-12.39;-11.50 
9.813;-0.30;-0.10;0.84;0.14;0.35;-0.14;-181.70;-269.96;-301.00;0.90;173.57;-12.47;-11.62 
9.843;-0.27;-0.07;0.85;1.04;0.28;0.42;-178.70;-269.96;-305.00;0.89;173.77;-12.50;-11.75 
9.873;-0.29;-0.06;0.85;1.18;0.49;0.14;-178.70;-270.92;-301.00;0.90;173.97;-12.55;-11.83 
9.903;-0.26;-0.10;0.86;1.18;-0.49;0.07;-175.71;-269.96;-304.00;0.90;174.17;-12.57;-11.91 
9.934;-0.28;-0.06;0.82;0.49;0.63;0.21;-178.70;-269.01;-302.00;0.87;174.38;-12.59;-11.99 
9.964;-0.27;-0.08;0.86;-0.49;1.60;0.00;-177.70;-269.96;-304.00;0.90;174.58;-12.63;-12.11 
9.994;-0.28;-0.06;0.87;0.49;0.70;0.00;-175.71;-269.01;-303.00;0.92;174.78;-12.68;-12.21 
10.025;-0.30;-0.06;0.84;0.35;0.77;0.00;-176.70;-269.01;-304.00;0.89;174.99;-12.71;-12.30 
10.055;-0.30;-0.06;0.86;0.14;0.49;0.14;-177.70;-269.01;-302.00;0.91;175.17;-12.76;-12.42 
10.084;-0.29;-0.07;0.84;0.21;0.35;-0.07;-178.70;-269.96;-303.00;0.89;175.36;-12.80;-12.53 
10.113;-0.29;-0.02;0.74;-11.20;-0.97;-0.14;-178.70;-272.84;-304.00;0.80;175.54;-12.82;-12.66 
10.143;-0.28;-0.17;0.86;-6.26;1.39;6.68;-176.70;-271.88;-304.00;0.92;175.65;-12.76;-12.98 
10.173;-0.23;-0.08;0.86;-4.94;0.00;4.24;-183.69;-269.01;-304.00;0.89;175.54;-12.83;-13.38 
10.203;-0.30;0.03;0.87;3.20;3.27;-3.06;-181.70;-266.14;-300.00;0.92;175.74;-12.89;-13.44 
10.234;-0.28;-0.12;0.75;13.57;-0.21;0.00;-177.70;-267.09;-303.00;0.81;176.13;-12.93;-13.48 
10.264;-0.40;0.04;0.94;2.78;-12.10;0.42;-174.71;-271.88;-305.00;1.02;176.44;-13.06;-13.19 
10.294;-0.18;-0.33;1.01;14.96;-9.25;-2.30;-176.70;-269.01;-309.00;1.08;176.75;-12.81;-12.98 
10.325;-0.30;0.00;0.86;11.90;11.83;4.66;-174.71;-271.88;-306.00;0.91;176.97;-12.79;-12.72 
10.355;-0.34;-0.08;0.97;9.95;-3.41;2.85;-171.71;-272.84;-309.00;1.03;177.11;-12.93;-12.55 
10.385;-0.20;-0.04;0.77;6.33;-3.13;-6.26;-166.72;-268.05;-313.00;0.80;177.37;-12.79;-12.45 
10.415;-0.22;-0.02;0.78;3.34;15.93;-3.20;-166.72;-272.84;-314.00;0.81;177.84;-12.77;-12.12 
10.444;-0.42;0.00;0.80;21.36;2.37;2.99;-166.72;-270.92;-310.00;0.90;178.05;-13.21;-12.19 
10.473;-0.28;-0.10;1.01;14.75;-8.83;3.48;-162.73;-270.92;-317.00;1.05;178.77;-12.95;-11.31 
10.503;-0.20;0.14;0.67;35.83;-3.27;35.27;-155.74;-269.01;-320.00;0.71;179.06;-12.84;-11.80 
10.534;-0.24;0.08;0.91;-20.80;3.97;10.64;-163.73;-267.09;-317.00;0.94;178.78;-13.04;-12.93 
10.564;-0.36;-0.46;0.63;26.99;-0.56;-26.30;-162.73;-264.22;-313.00;0.86;179.17;-13.35;-13.45 
10.594;-0.18;-0.07;0.84;15.10;-24.28;-14.47;-158.73;-269.96;-319.00;0.86;-179.97;-12.81;-12.81 
10.624;0.01;0.23;0.90;-25.74;14.75;-26.43;-158.73;-275.71;-321.00;0.93;-179.84;-12.38;-13.31 
10.653;-0.24;0.23;1.06;-12.17;-34.71;-24.49;-165.72;-284.32;-316.00;1.11;-178.85;-11.43;-13.94 
10.683;-0.30;-0.05;0.89;-25.81;-7.65;1.60;-166.72;-285.28;-314.00;0.94;-178.56;-10.75;-14.49 
10.713;-0.32;-0.13;0.84;-83.27;-41.74;36.24;-175.71;-290.07;-311.00;0.91;-178.84;-10.25;-16.06 
10.743;-0.22;-0.49;0.58;-87.93;-10.02;24.28;-186.69;-291.03;-300.00;0.79;179.95;-9.59;-19.12 
10.773;-0.28;-0.43;0.85;-33.39;-17.39;-2.57;-203.66;-291.98;-285.00;0.99;179.16;-9.50;-21.28 
10.803;-0.18;-0.14;0.86;-14.12;3.48;15.23;-211.65;-291.03;-282.00;0.89;179.03;-9.23;-22.25 
10.834;-0.35;-0.15;0.77;-23.51;3.62;21.98;-207.65;-289.11;-280.00;0.86;178.71;-9.54;-22.63 
10.863;-0.29;-0.15;0.86;-25.95;-19.06;2.92;-213.64;-287.20;-278.00;0.92;178.35;-9.32;-23.08 
10.893;-0.08;-0.14;0.83;-25.95;-12.38;-10.78;-217.64;-290.07;-273.00;0.85;178.43;-8.83;-23.75 
10.923;0.53;-0.38;1.12;-20.59;80.00;2.02;-221.63;-292.94;-269.00;1.30;179.00;-8.51;-24.52 
10.953;-0.99;-0.30;0.63;-25.53;16.90;1.04;-224.62;-279.54;-261.00;1.21;178.93;-10.53;-25.59 
10.983;-0.26;0.00;0.68;-12.59;-24.83;21.77;-223.63;-279.54;-261.00;0.73;178.71;-10.54;-25.59 
11.013;-0.22;-0.38;0.84;-7.10;-17.60;-2.09;-224.62;-280.50;-264.00;0.95;178.57;-9.83;-26.03 
