Time(s) acc_x(g) acc_y(g) acc_z(g) gyr_x(°/s) gyr_y(°/s) gyr_z(°/s) mag_x(G) mag_y(G) mag_z(G) SVM(g) yaw(°) pitch(°) roll(°)
0.000;0.02;0.06;0.92;-0.70;4.17;8.14;348.23;-286.87;-383.00;0.92;-49.20;28.76;17.58 
0.030;0.02;0.07;0.86;-0.07;5.57;3.20;348.23;-289.74;-387.00;0.86;-49.52;28.93;17.57 
0.059;0.00;0.06;0.86;0.90;3.20;-1.18;349.23;-285.91;-389.00;0.86;-49.62;28.69;17.48 
0.089;0.00;0.08;0.85;0.70;-1.11;-5.63;349.23;-287.82;-387.00;0.85;-49.61;28.57;17.51 
0.120;0.02;0.04;0.93;-0.42;-2.09;-8.35;349.23;-286.87;-386.00;0.93;-49.49;28.44;17.53 
0.149;0.04;0.04;0.90;-1.60;2.30;-7.37;349.23;-286.87;-387.00;0.90;-49.35;28.24;17.51 
0.179;0.03;0.04;0.92;-1.60;5.84;-8.42;347.24;-286.87;-386.00;0.92;-49.21;27.96;17.47 
0.210;0.00;0.06;0.90;-1.39;8.14;-9.39;347.24;-284.00;-384.00;0.90;-49.01;27.53;17.44 
0.240;0.02;0.00;0.84;-0.90;5.63;-8.14;347.24;-280.18;-385.00;0.84;-48.87;27.48;17.63 
0.270;0.00;0.00;0.88;-0.83;1.25;-7.30;344.25;-280.18;-383.00;0.88;-48.78;27.55;17.80 
0.300;0.00;0.01;0.89;-1.04;0.70;-8.00;345.25;-277.31;-385.00;0.89;-48.70;27.70;17.96 
0.330;-0.02;0.00;0.86;-0.97;1.60;-8.14;347.24;-274.44;-384.00;0.86;-48.59;27.83;18.14 
0.359;0.00;0.01;0.90;-0.97;0.14;-6.61;346.24;-277.31;-382.00;0.90;-48.52;27.96;18.30 
0.389;0.00;0.00;0.89;-1.39;-0.97;-3.97;348.23;-275.39;-387.00;0.89;-48.49;28.15;18.43 
0.420;-0.02;0.00;0.85;-1.95;-2.30;-0.70;344.25;-275.39;-386.00;0.85;-48.55;28.42;18.52 
0.450;-0.05;0.00;0.87;-2.85;-3.55;3.13;343.26;-275.39;-385.00;0.87;-48.73;28.76;18.54 
0.480;-0.02;0.00;0.88;-3.69;-2.99;4.87;345.25;-275.39;-385.00;0.88;-48.93;28.72;18.24 
0.511;-0.02;0.02;0.91;-4.80;-0.90;5.08;346.24;-281.13;-388.00;0.91;-49.18;28.73;17.96 
0.541;-0.04;0.02;0.89;-4.80;2.85;2.99;342.26;-278.26;-385.00;0.89;-49.44;28.98;17.85 
0.571;-0.03;0.00;0.91;-3.13;7.58;0.14;341.27;-276.35;-388.00;0.91;-49.55;28.67;17.58 
0.601;0.01;0.07;0.88;-0.21;9.11;-5.63;340.27;-277.31;-387.00;0.88;-49.59;28.56;17.61 
0.632;0.09;0.09;0.85;0.21;5.57;-13.15;341.27;-270.61;-387.00;0.86;-49.39;28.19;17.68 
0.662;0.08;0.00;0.95;2.85;-2.16;-18.16;343.26;-271.57;-388.00;0.95;-49.02;27.91;17.88 
0.692;0.11;-0.16;0.92;0.77;1.25;-9.74;340.27;-271.57;-385.00;0.94;-48.73;27.81;17.98 
0.722;0.06;-0.12;0.88;-2.09;3.13;0.56;339.28;-269.66;-385.00;0.89;-48.75;27.62;17.76 
0.752;0.06;-0.08;0.90;-6.05;-1.67;3.20;340.27;-269.66;-389.00;0.91;-48.99;27.58;17.38 
0.782;0.05;0.00;0.85;-4.94;-3.55;0.70;337.29;-268.70;-391.00;0.85;-49.18;27.59;17.02 
0.812;0.05;-0.05;0.83;-3.48;-6.61;-1.88;339.28;-272.53;-385.00;0.83;-49.30;27.62;16.75 
0.842;0.02;-0.02;0.97;-3.48;-9.25;-0.90;339.28;-272.53;-385.00;0.97;-49.40;27.74;16.50 
0.872;0.02;0.02;0.97;-3.97;-0.28;-2.85;336.29;-272.53;-389.00;0.97;-49.50;27.79;16.27 
0.902;0.02;-0.04;0.87;-1.74;6.82;-3.41;333.31;-269.66;-388.00;0.87;-49.51;27.65;16.14 
0.933;-0.05;-0.10;0.84;0.97;3.20;0.07;333.31;-269.66;-387.00;0.85;-49.58;27.36;15.96 
0.963;-0.09;-0.08;0.88;0.90;3.06;8.49;336.29;-270.61;-388.00;0.89;-49.84;27.24;15.76 
0.993;-0.14;0.02;0.91;-1.18;9.39;13.36;336.29;-271.57;-387.00;0.92;-50.26;26.99;15.47 
1.023;-0.12;0.00;0.85;-7.93;12.94;13.22;335.30;-268.70;-386.00;0.86;-50.76;26.93;15.20 
1.052;-0.05;0.00;0.82;-6.47;5.84;17.32;336.29;-268.70;-387.00;0.82;-51.32;26.67;14.65 
1.082;0.03;0.05;0.93;1.32;-8.70;18.09;333.31;-268.70;-387.00;0.93;-51.99;27.09;14.41 
1.112;0.05;0.09;0.98;2.99;-8.56;15.37;337.29;-272.53;-390.00;0.99;-52.63;27.42;14.18 
1.141;0.03;0.08;0.99;10.09;0.63;10.78;338.28;-275.39;-388.00;0.99;-53.19;27.56;14.08 
1.171;0.03;0.12;0.88;14.12;4.73;7.23;342.26;-276.35;-390.00;0.89;-53.61;27.47;14.22 
1.201;0.00;0.13;0.83;12.45;3.62;1.39;344.25;-278.26;-385.00;0.84;-53.94;27.57;14.56 
1.232;0.00;0.11;0.82;9.53;-0.21;-7.65;344.25;-277.31;-388.00;0.83;-53.97;27.40;14.92 
1.262;0.00;0.09;0.82;9.81;-5.50;-13.77;351.22;-275.39;-384.00;0.82;-53.82;27.65;15.40 
1.292;0.00;0.10;0.94;9.53;-5.63;-15.65;348.23;-275.39;-380.00;0.95;-53.58;27.92;15.92 
1.323;-0.02;-0.05;0.91;5.15;-2.85;-9.25;350.22;-276.35;-379.00;0.91;-53.36;28.17;16.38 
1.352;0.00;0.00;0.90;4.10;-0.21;-4.52;350.22;-273.48;-385.00;0.90;-53.34;28.31;16.60 
1.382;-0.05;0.07;0.85;6.47;0.83;-6.68;351.22;-275.39;-381.00;0.85;-53.31;28.17;16.74 
1.411;-0.03;0.09;0.84;3.27;1.95;-7.17;353.21;-272.53;-378.00;0.85;-53.18;27.88;16.92 
1.440;-0.09;0.09;0.86;-1.32;4.66;-6.82;352.21;-271.57;-380.00;0.87;-53.06;27.52;16.97 
1.470;-0.12;0.02;0.86;-4.38;6.75;-7.72;348.23;-270.61;-380.00;0.87;-52.91;27.08;16.94 
1.500;-0.14;0.00;0.88;-5.43;2.37;-5.77;353.21;-266.79;-380.00;0.89;-52.78;26.63;16.80 
1.531;-0.08;-0.04;0.96;-5.91;-1.04;-2.02;348.23;-266.79;-383.00;0.96;-52.79;26.48;16.58 
1.561;-0.06;0.00;0.94;-12.80;5.36;0.49;348.23;-266.79;-380.00;0.94;-52.89;26.26;16.19 
1.591;-0.10;0.12;0.97;-18.09;13.15;-4.24;346.24;-262.96;-379.00;0.98;-52.98;25.87;15.65 
1.621;-0.05;0.18;0.94;-11.27;22.96;-21.84;341.27;-262.01;-383.00;0.96;-52.69;25.11;15.35 
1.651;0.06;0.14;0.77;1.39;33.11;-34.64;336.29;-251.49;-383.00;0.78;-51.91;23.91;15.57 
1.681;0.13;-0.18;0.72;10.30;16.63;-30.89;340.27;-242.88;-380.00;0.75;-51.03;22.82;16.03 
1.711;0.17;-0.26;0.86;2.16;-13.36;-4.24;340.27;-239.06;-379.00;0.91;-50.76;22.75;16.08 
1.742;-0.04;-0.09;1.05;4.10;-4.17;4.17;342.26;-240.97;-379.00;1.05;-51.05;23.37;16.11 
1.772;-0.08;0.14;1.02;3.55;23.23;-8.35;338.28;-241.93;-378.00;1.03;-51.13;23.02;16.20 
1.802;-0.10;0.00;0.84;-0.77;21.22;-7.03;342.26;-236.19;-374.00;0.85;-51.02;22.19;16.29 
1.833;-0.10;-0.15;0.76;-1.18;10.71;4.80;340.27;-235.23;-375.00;0.78;-51.15;21.55;15.98 
1.863;-0.07;-0.03;0.77;3.41;1.32;12.03;341.27;-232.36;-376.00;0.77;-51.65;21.38;15.64 
1.893;-0.04;0.02;0.88;1.88;-1.32;10.71;342.26;-231.41;-375.00;0.88;-52.19;21.42;15.44 
1.922;-0.05;0.02;0.85;0.90;0.42;8.97;341.27;-235.23;-377.00;0.85;-52.67;21.45;15.25 
1.952;-0.07;-0.02;0.77;-0.07;-2.85;9.88;340.27;-233.32;-376.00;0.77;-53.14;21.47;15.03 
1.982;-0.04;-0.04;0.79;-2.02;-8.00;16.07;344.25;-239.06;-375.00;0.79;-53.73;21.76;14.72 
2.012;0.00;0.02;0.85;-1.95;-8.07;20.94;344.25;-241.93;-373.00;0.85;-54.49;22.08;14.29 
2.042;-0.03;0.02;0.82;-1.95;-9.95;21.29;344.25;-245.75;-376.00;0.82;-55.35;22.45;13.85 
2.072;-0.08;0.10;0.81;-1.88;-7.79;16.70;344.25;-250.53;-378.00;0.82;-56.14;22.82;13.45 
2.102;-0.11;0.06;0.80;-1.04;-2.99;12.10;346.24;-248.62;-377.00;0.81;-56.75;22.95;13.15 
2.133;-0.12;0.02;0.80;0.97;0.21;11.76;349.23;-253.40;-377.00;0.81;-57.28;22.91;12.91 
2.163;-0.10;0.02;0.77;0.14;-0.77;12.03;349.23;-253.40;-380.00;0.78;-57.83;22.86;12.70 
2.193;-0.11;0.08;0.73;-0.63;-3.20;10.16;348.23;-256.27;-377.00;0.74;-58.35;22.84;12.46 
2.223;-0.12;0.10;0.74;-1.53;1.88;4.59;351.22;-258.18;-376.00;0.76;-58.72;22.78;12.35 
2.254;-0.08;0.06;0.66;-4.10;12.66;0.63;350.22;-256.27;-377.00;0.67;-58.98;22.47;12.22 
2.284;-0.07;0.07;0.54;-2.64;20.87;-2.09;350.22;-253.40;-377.00;0.55;-59.17;21.85;12.03 
2.314;-0.06;0.05;0.50;-0.21;23.65;-6.33;351.22;-253.40;-377.00;0.51;-59.20;21.02;12.02 
2.345;-0.05;0.01;0.46;-2.57;18.23;-7.58;347.24;-244.79;-375.00;0.46;-59.20;20.25;12.01 
2.374;-0.04;0.07;0.50;-3.97;3.20;-7.37;351.22;-242.88;-372.00;0.51;-59.20;19.77;11.93 
2.403;0.00;0.09;0.65;-3.90;-15.58;-9.18;352.21;-243.84;-373.00;0.66;-59.16;19.80;11.89 
2.433;0.06;0.02;0.81;-4.10;-36.59;-11.27;348.23;-245.75;-376.00;0.81;-59.10;20.54;11.82 
2.463;0.04;-0.05;1.04;-5.29;-45.63;-7.72;347.24;-253.40;-374.00;1.04;-59.08;21.77;11.62 
2.493;0.02;0.00;1.32;0.07;-32.21;-2.99;347.24;-262.01;-380.00;1.32;-59.21;23.21;11.60 
2.523;0.03;0.05;1.34;-0.28;7.10;-2.23;345.25;-264.88;-379.00;1.34;-59.40;23.60;11.48 
2.554;0.06;0.03;1.05;-2.23;26.99;-3.97;347.24;-261.05;-377.00;1.05;-59.50;23.02;11.42 
2.584;0.10;0.03;0.90;-0.97;7.58;-3.97;347.24;-258.18;-374.00;0.91;-59.61;22.44;11.29 
2.613;0.14;0.02;0.93;1.46;-13.70;-5.08;346.24;-257.23;-375.00;0.94;-59.71;22.58;11.24 
2.643;0.14;0.02;0.99;2.37;-14.47;-3.76;348.23;-257.23;-376.00;1.00;-59.85;23.08;11.23 
2.672;0.22;0.05;1.01;2.37;-8.14;-3.48;346.24;-263.92;-375.00;1.03;-60.01;23.61;11.32 
2.702;0.18;0.06;0.94;4.59;-2.37;-6.75;351.22;-262.96;-378.00;0.96;-60.13;23.86;11.36 
2.732;0.24;0.01;0.92;4.52;1.88;-7.37;349.23;-262.96;-377.00;0.95;-60.18;23.92;11.48 
2.762;0.15;0.00;0.89;0.63;-4.17;-1.95;353.21;-264.88;-378.00;0.90;-60.28;24.15;11.60 
2.792;0.09;-0.02;0.98;-3.06;-0.90;4.80;351.22;-262.96;-376.00;0.98;-60.57;24.36;11.43 
2.822;0.03;0.07;1.03;-6.54;11.83;5.91;351.22;-264.88;-375.00;1.03;-61.00;24.26;11.08 
2.853;-0.06;0.10;1.13;-8.70;21.91;-1.67;352.21;-262.96;-374.00;1.14;-61.26;23.72;10.78 
2.883;-0.23;0.02;1.36;-6.47;36.59;-9.53;350.22;-255.31;-376.00;1.38;-61.28;22.78;10.57 
2.913;-0.51;-0.14;1.74;2.02;51.62;-9.11;350.22;-248.62;-373.00;1.82;-61.18;21.26;10.49 
2.943;-0.32;-0.26;2.31;21.36;89.46;0.28;353.21;-238.10;-367.00;2.35;-61.28;19.24;10.64 
2.973;0.18;0.11;2.04;-12.17;152.28;10.92;353.21;-231.41;-361.00;2.05;-61.85;15.66;10.96 
3.003;0.23;0.18;1.30;-12.73;201.11;-2.92;352.21;-183.60;-342.00;1.33;-62.63;10.66;10.64 
3.033;0.21;0.03;0.75;-17.74;199.03;-5.57;355.20;-152.04;-327.00;0.78;-63.36;5.04;10.23 
3.064;0.11;0.00;0.41;-19.48;166.68;0.14;353.21;-125.27;-309.00;0.42;-64.40;-0.09;9.62 
3.094;-0.05;0.00;0.17;-17.11;139.27;4.59;347.24;-102.32;-292.00;0.18;-65.63;-4.33;9.00 
3.124;-0.22;0.04;0.00;-12.59;113.60;4.66;342.26;-79.37;-270.00;0.22;-66.87;-8.24;8.70 
3.155;-0.33;0.03;0.01;-12.24;76.59;1.88;345.25;-73.63;-263.00;0.33;-68.06;-11.55;8.64 
3.184;-0.36;0.02;0.32;-15.44;42.23;3.90;343.26;-63.11;-251.00;0.48;-69.05;-13.68;8.32 
3.213;-0.45;0.00;0.70;-12.45;24.35;0.83;341.27;-58.33;-245.00;0.83;-69.81;-14.75;7.91 
3.243;-0.35;0.05;1.12;-11.90;48.14;2.23;344.25;-54.51;-239.00;1.17;-70.48;-15.48;7.54 
3.273;-0.18;0.06;1.10;-16.49;134.61;-4.59;340.27;-47.81;-228.00;1.12;-71.47;-17.72;7.13 
3.302;-0.06;0.07;0.60;-19.97;188.03;-9.67;338.28;-32.51;-207.00;0.61;-72.76;-21.91;6.62 
3.331;0.02;0.10;0.22;-18.30;198.61;-19.76;336.29;-12.43;-176.00;0.24;-74.16;-27.18;6.03 
3.361;0.00;-0.11;-0.08;-18.64;190.75;-17.53;329.33;0.00;-148.00;0.14;-75.61;-32.37;5.74 
3.391;-0.54;-0.36;-0.40;-17.60;152.63;9.46;328.33;14.34;-103.00;0.76;-77.08;-37.93;4.89 
3.421;-1.56;-0.48;-0.94;-18.71;90.30;38.26;333.31;15.30;-83.00;1.88;-79.21;-42.29;4.74 
3.452;-1.34;0.22;-0.80;-20.66;30.82;27.41;339.28;9.56;-71.00;1.58;-81.36;-44.67;4.98 
3.481;-1.21;0.06;-0.43;-4.31;2.37;8.83;343.26;14.34;-70.00;1.29;-82.57;-45.87;5.29 
3.511;-1.45;0.04;-0.04;-7.58;-5.29;-2.30;344.25;12.43;-72.00;1.45;-83.08;-45.85;5.38 
3.541;-1.50;0.11;0.22;-2.37;34.09;-26.09;341.27;16.26;-75.00;1.52;-83.23;-46.61;5.09 
3.571;-1.39;-0.14;-0.15;1.88;82.30;-41.32;335.30;18.17;-60.00;1.41;-82.97;-49.04;4.31 
3.601;-1.38;-0.14;-0.59;4.10;80.07;-33.46;330.32;22.95;-45.00;1.51;-82.85;-52.23;3.49 
3.631;-1.28;-0.34;-0.67;12.10;34.85;-32.49;320.37;34.42;-29.00;1.48;-82.57;-54.86;2.72 
3.662;-1.46;-0.35;-0.34;8.35;10.23;-12.31;314.40;34.42;-23.00;1.54;-82.38;-56.20;2.29 
3.692;-1.45;-0.28;-0.21;3.20;29.43;-7.93;312.41;35.38;-21.00;1.49;-82.49;-57.37;2.05 
3.722;-1.34;-0.30;-0.39;6.26;24.70;-4.17;315.40;37.29;-17.00;1.43;-82.80;-58.87;1.87 
3.753;-1.26;-0.25;-0.34;5.91;0.70;3.20;310.42;36.34;-9.00;1.33;-83.12;-59.93;1.85 
3.783;-1.18;-0.21;-0.15;3.34;-8.97;6.96;313.41;38.25;-6.00;1.21;-83.47;-60.34;1.98 
3.812;-1.08;-0.20;-0.12;4.45;-7.93;8.83;311.42;37.29;-11.00;1.10;-83.85;-60.58;2.18 
3.842;-0.99;-0.14;-0.08;3.69;-13.63;9.81;315.40;35.38;-13.00;1.00;-84.28;-60.77;2.44 
3.872;-0.93;-0.12;0.00;2.92;-22.40;7.65;322.36;35.38;-18.00;0.94;-84.65;-60.30;2.80 
3.902;-0.92;-0.10;0.10;3.13;-22.26;10.09;319.38;34.42;-22.00;0.93;-84.95;-59.98;3.04 
3.932;-0.95;-0.03;0.17;1.95;-12.17;8.42;325.35;34.42;-26.00;0.97;-85.32;-59.71;3.33 
3.962;-0.98;-0.04;0.12;1.04;-3.76;5.36;324.35;34.42;-28.00;0.99;-85.72;-59.76;3.56 
3.992;-1.02;-0.05;0.11;-0.21;0.21;2.50;325.35;32.51;-26.00;1.03;-86.06;-60.04;3.67 
4.022;-1.02;-0.05;0.08;-1.67;3.83;2.37;326.34;29.64;-27.00;1.02;-86.39;-60.43;3.73 
4.053;-1.05;-0.07;0.03;-1.53;4.10;1.67;329.33;33.47;-23.00;1.05;-86.73;-60.95;3.77 
4.082;-1.00;-0.10;0.06;-1.53;3.20;2.23;327.34;32.51;-26.00;1.01;-87.04;-61.45;3.80 
4.112;-1.02;-0.08;0.06;-2.37;3.20;0.63;325.35;32.51;-26.00;1.02;-87.32;-61.90;3.80 
4.142;-1.02;-0.09;0.09;-1.60;4.31;-0.83;326.34;33.47;-28.00;1.03;-87.54;-62.39;3.76 
4.172;-1.02;-0.08;0.01;-2.09;4.80;-1.25;326.34;33.47;-22.00;1.02;-87.75;-62.94;3.70 
4.201;-1.02;-0.11;0.00;-2.71;1.67;-1.81;327.34;31.56;-23.00;1.03;-87.95;-63.15;3.71 
4.231;-1.02;-0.10;0.00;-3.06;0.49;-1.81;325.35;31.56;-24.00;1.02;-88.07;-63.51;3.61 
4.262;-1.04;-0.11;0.02;-2.57;1.04;-2.78;327.34;35.38;-20.00;1.05;-88.20;-63.89;3.51 
4.292;-1.06;-0.10;0.02;-1.74;0.90;-2.78;326.34;35.38;-21.00;1.06;-88.35;-63.97;3.52 
4.322;-1.04;-0.11;0.02;-1.53;0.97;-1.46;322.36;34.42;-23.00;1.05;-88.44;-64.42;3.40 
4.352;-1.03;-0.10;0.01;-0.97;0.63;-1.46;324.35;32.51;-24.00;1.03;-88.54;-64.84;3.30 
4.381;-1.00;-0.14;0.04;-0.35;0.90;-1.81;321.37;32.51;-25.00;1.01;-88.65;-65.19;3.23 
4.411;-0.99;-0.18;0.02;0.14;0.83;-0.90;324.35;32.51;-22.00;1.01;-88.74;-65.54;3.16 
4.441;-1.02;-0.12;0.04;-0.56;0.63;-0.77;324.35;33.47;-21.00;1.03;-88.85;-65.93;3.10 
4.470;-1.02;-0.13;0.02;-0.90;2.30;-0.70;323.36;35.38;-24.00;1.03;-88.97;-66.36;3.04 
4.500;-1.02;-0.10;0.02;-1.25;2.23;0.00;325.35;34.42;-23.00;1.03;-89.10;-66.79;2.98 
4.530;-1.03;-0.08;0.05;-0.97;1.67;-0.77;322.36;35.38;-20.00;1.03;-89.23;-67.24;2.93 
4.561;-1.02;-0.11;0.02;-0.63;2.16;-1.11;324.35;35.38;-19.00;1.03;-89.34;-67.69;2.87 
4.591;-1.02;-0.13;0.00;-0.35;1.74;-0.63;323.36;36.34;-21.00;1.03;-89.50;-67.88;2.91 
4.621;-1.02;-0.14;0.02;0.07;0.49;-1.39;322.36;34.42;-22.00;1.03;-89.60;-68.29;2.86 
4.651;-1.02;-0.10;0.03;-0.28;0.90;-1.04;322.36;32.51;-25.00;1.03;-89.65;-68.69;2.78 
4.681;-1.02;-0.14;0.02;-0.28;0.63;-0.83;324.35;33.47;-24.00;1.03;-89.75;-69.11;2.73 
4.711;-1.00;-0.10;0.03;-0.56;0.28;-1.11;325.35;34.42;-22.00;1.01;-89.88;-69.26;2.76 
4.741;-1.01;-0.10;0.02;-0.07;-0.28;-0.83;319.38;37.29;-21.00;1.02;-89.94;-69.64;2.68 
4.772;-1.02;-0.10;0.02;0.07;-0.42;-0.70;323.36;35.38;-19.00;1.03;-90.02;-69.93;2.65 
4.802;-1.02;-0.14;0.05;0.00;-0.07;-0.70;321.37;35.38;-19.00;1.03;-90.08;-70.30;2.59 
4.832;-1.02;-0.14;0.01;-0.07;0.21;-0.77;322.36;36.34;-22.00;1.03;-90.21;-70.44;2.64 
4.863;-1.02;-0.10;0.00;0.14;-0.14;0.21;319.38;35.38;-24.00;1.02;-90.30;-70.75;2.62 
4.893;-1.02;-0.08;0.01;0.00;0.42;-0.21;319.38;35.38;-20.00;1.02;-90.44;-70.87;2.67 
4.923;-1.02;-0.10;0.04;-0.07;0.70;-0.07;322.36;35.38;-18.00;1.03;-90.59;-71.01;2.74 
4.953;-1.01;-0.13;0.01;0.21;0.14;-0.90;319.38;36.34;-23.00;1.02;-90.72;-71.15;2.79 
4.984;-1.01;-0.12;0.02;0.21;-0.21;0.07;321.37;34.42;-21.00;1.02;-90.78;-71.49;2.76 
5.014;-1.00;-0.12;0.00;-0.14;-0.07;-0.49;322.36;35.38;-19.00;1.01;-90.82;-71.83;2.69 
5.043;-1.02;-0.13;0.00;-0.14;0.00;-0.28;321.37;35.38;-21.00;1.03;-90.96;-71.90;2.77 
5.073;-1.01;-0.10;0.02;-0.42;0.42;-0.49;320.37;35.38;-21.00;1.02;-91.02;-72.19;2.74 
5.103;-1.01;-0.12;0.04;-0.63;0.70;-0.77;320.37;34.42;-19.00;1.02;-91.05;-72.53;2.68 
5.133;-1.01;-0.13;0.02;-0.42;0.63;-0.49;322.36;36.34;-20.00;1.02;-91.11;-72.83;2.65 
5.163;-1.02;-0.13;0.00;-0.28;0.83;-0.49;322.36;37.29;-23.00;1.03;-91.23;-72.98;2.70 
5.193;-1.02;-0.12;0.02;-0.56;0.42;-0.21;321.37;36.34;-20.00;1.03;-91.29;-73.28;2.68 
5.222;-1.02;-0.10;0.00;-0.42;0.35;-0.35;322.36;33.47;-20.00;1.02;-91.30;-73.62;2.61 
5.252;-1.01;-0.11;0.02;0.07;0.49;-0.21;321.37;35.38;-19.00;1.02;-91.35;-73.96;2.57 
5.283;-1.02;-0.12;0.01;-0.35;0.35;-0.97;321.37;37.29;-23.00;1.03;-91.44;-74.11;2.60 
5.312;-1.02;-0.12;0.02;-0.21;0.63;-0.35;316.39;37.29;-18.00;1.03;-91.55;-74.26;2.65 
5.342;-1.02;-0.12;0.02;-0.14;0.63;-0.42;322.36;36.34;-21.00;1.03;-91.69;-74.37;2.73 
5.373;-1.02;-0.12;0.00;-0.42;0.42;-0.56;319.38;39.21;-19.00;1.03;-91.70;-74.72;2.67 
5.403;-1.02;-0.09;0.01;-0.21;0.28;0.14;319.38;37.29;-18.00;1.02;-91.84;-74.83;2.76 
5.433;-1.02;-0.13;0.02;0.00;0.42;-0.42;321.37;35.38;-20.00;1.03;-91.95;-74.96;2.82 
5.463;-1.01;-0.12;0.03;-0.07;0.14;0.00;321.37;38.25;-19.00;1.02;-91.97;-75.20;2.78 
5.493;-1.01;-0.13;0.02;-0.14;0.49;0.00;318.38;38.25;-19.00;1.02;-91.99;-75.52;2.73 
5.522;-1.02;-0.12;0.01;-0.21;-0.14;0.21;321.37;36.34;-22.00;1.03;-92.03;-75.77;2.72 
5.552;-1.02;-0.11;0.01;-0.28;-0.21;0.07;321.37;35.38;-21.00;1.03;-92.04;-76.06;2.67 
5.583;-1.02;-0.12;0.02;-0.07;-0.56;-0.21;320.37;36.34;-24.00;1.03;-92.14;-76.19;2.74 
5.612;-1.02;-0.10;0.00;0.00;-0.07;0.00;321.37;36.34;-22.00;1.02;-92.14;-76.48;2.68 
5.642;-1.02;-0.10;0.02;0.07;-0.14;0.07;316.39;37.29;-21.00;1.03;-92.24;-76.61;2.74 
5.672;-1.01;-0.13;0.00;0.00;-0.21;-0.21;322.36;36.34;-18.00;1.02;-92.26;-76.90;2.70 
5.702;-1.02;-0.12;0.02;0.21;-0.49;-0.28;322.36;37.29;-19.00;1.03;-92.36;-77.03;2.77 
5.732;-1.02;-0.11;0.02;0.07;-0.70;-0.42;318.38;35.38;-24.00;1.03;-92.48;-77.11;2.85 
5.762;-1.02;-0.12;0.00;0.35;-0.42;-0.42;316.39;36.34;-21.00;1.03;-92.45;-77.38;2.78 
5.792;-1.02;-0.10;0.01;0.35;-0.21;-0.70;319.38;36.34;-20.00;1.02;-92.42;-77.65;2.71 
5.822;-1.02;-0.14;0.05;0.14;-0.42;-0.63;318.38;38.25;-20.00;1.03;-92.42;-77.88;2.68 
5.851;-1.02;-0.13;0.02;-0.07;0.00;-0.56;321.37;37.29;-20.00;1.03;-92.39;-78.15;2.61 
5.882;-1.01;-0.13;0.02;-0.14;-0.49;-0.70;320.37;33.47;-21.00;1.02;-92.39;-78.37;2.57 
5.912;-1.01;-0.12;0.02;0.07;0.14;-0.28;317.39;36.34;-19.00;1.02;-92.51;-78.47;2.66 
5.942;-1.01;-0.13;0.01;0.07;0.49;-0.14;318.38;38.25;-20.00;1.02;-92.49;-78.70;2.61 
5.973;-1.01;-0.14;0.02;-0.07;0.56;-0.07;320.37;36.34;-21.00;1.02;-92.47;-78.97;2.55 
6.002;-1.02;-0.11;0.01;-0.21;0.56;0.07;322.36;35.38;-23.00;1.03;-92.45;-79.26;2.50 
6.032;-1.00;-0.11;0.03;-0.07;1.11;-0.07;319.38;37.29;-22.00;1.01;-92.56;-79.38;2.58 
6.062;-1.00;-0.13;0.02;0.07;0.77;0.07;319.38;38.25;-24.00;1.01;-92.52;-79.68;2.52 
6.092;-1.00;-0.13;0.02;-0.35;0.77;0.49;315.40;35.38;-19.00;1.01;-92.54;-79.93;2.51 
6.121;-1.02;-0.12;0.03;-0.14;0.90;-0.28;317.39;36.34;-18.00;1.03;-92.62;-80.08;2.56 
6.151;-1.01;-0.10;0.01;-0.28;0.56;-0.63;320.37;37.29;-21.00;1.01;-92.65;-80.33;2.57 
6.182;-1.02;-0.10;0.00;0.00;0.49;-0.42;319.38;37.29;-17.00;1.02;-92.64;-80.56;2.54 
6.212;-1.01;-0.14;0.02;-0.14;0.77;-0.56;316.39;37.29;-19.00;1.02;-92.71;-80.72;2.58 
6.242;-1.01;-0.12;0.01;0.14;0.35;-0.07;318.38;37.29;-17.00;1.02;-92.68;-80.98;2.53 
6.271;-1.02;-0.14;0.00;-0.28;0.42;-0.28;320.37;38.25;-20.00;1.03;-92.74;-81.14;2.58 
6.301;-1.01;-0.14;0.02;-0.21;0.14;-0.21;317.39;38.25;-20.00;1.02;-92.81;-81.27;2.62 
6.331;-1.01;-0.14;0.00;-0.28;0.28;-0.56;320.37;39.21;-17.00;1.02;-92.78;-81.49;2.57 
6.361;-1.02;-0.14;0.06;-0.14;0.42;-0.63;317.39;39.21;-21.00;1.03;-92.87;-81.59;2.65 
6.392;-1.00;-0.14;0.02;-0.21;0.56;-0.14;318.38;38.25;-20.00;1.01;-92.94;-81.74;2.70 
6.422;-1.01;-0.15;-0.02;-0.21;0.83;-0.42;319.38;38.25;-22.00;1.02;-92.89;-81.99;2.64 
6.452;-1.01;-0.14;0.01;-0.14;0.70;-0.49;317.39;38.25;-21.00;1.02;-92.95;-82.12;2.68 
6.483;-1.01;-0.13;0.02;-0.28;1.04;-0.42;316.39;37.29;-20.00;1.02;-92.88;-82.40;2.60 
6.513;-1.02;-0.13;0.00;-0.42;0.42;-0.35;317.39;33.47;-18.00;1.03;-92.96;-82.52;2.67 
6.543;-1.01;-0.14;0.00;-0.07;0.83;0.14;319.38;40.16;-19.00;1.02;-92.93;-82.74;2.63 
6.573;-1.00;-0.11;0.02;-0.21;0.63;-0.63;318.38;36.34;-16.00;1.01;-92.90;-82.96;2.60 
6.603;-1.00;-0.15;0.00;-0.07;0.14;-0.28;317.39;39.21;-17.00;1.01;-92.96;-83.09;2.65 
6.633;-1.02;-0.13;0.01;0.07;0.42;-0.35;315.40;39.21;-19.00;1.03;-93.05;-83.19;2.73 
6.662;-1.02;-0.15;-0.02;0.14;0.49;-0.28;319.38;39.21;-20.00;1.03;-92.99;-83.42;2.66 
6.693;-1.01;-0.14;0.01;-0.07;-0.14;0.35;317.39;38.25;-21.00;1.02;-92.94;-83.64;2.61 
6.723;-1.02;-0.11;0.01;-0.21;0.21;0.35;315.40;37.29;-20.00;1.03;-92.89;-83.88;2.55 
6.752;-0.99;-0.13;0.00;-0.14;0.14;0.14;319.38;37.29;-20.00;1.00;-92.98;-83.96;2.63 
6.783;-1.01;-0.10;0.00;-0.07;0.00;-0.21;319.38;36.34;-18.00;1.01;-92.91;-84.17;2.57 
6.813;-1.02;-0.14;0.00;0.28;0.14;-0.35;313.41;39.21;-18.00;1.03;-92.86;-84.37;2.51 
6.843;-1.01;-0.11;0.00;0.00;-0.14;0.00;318.38;38.25;-20.00;1.02;-92.85;-84.54;2.50 
6.873;-1.02;-0.12;0.02;0.14;-0.21;-0.21;317.39;39.21;-19.00;1.03;-92.95;-84.61;2.59 
6.904;-1.02;-0.14;0.02;0.21;-0.42;-0.35;317.39;36.34;-20.00;1.03;-92.90;-84.79;2.54 
6.934;-1.02;-0.10;0.01;0.49;-0.07;-0.21;315.40;38.25;-20.00;1.02;-92.88;-84.95;2.52 
6.964;-1.02;-0.11;0.02;0.28;-0.14;-0.63;315.40;37.29;-19.00;1.03;-92.95;-85.04;2.59 
6.995;-1.02;-0.12;0.01;0.56;-0.49;-0.49;318.38;38.25;-17.00;1.03;-92.93;-85.20;2.57 
7.025;-1.02;-0.14;0.00;0.28;-0.28;-0.77;320.37;39.21;-17.00;1.03;-92.87;-85.38;2.52 
7.055;-1.02;-0.14;0.06;-0.42;-0.70;-1.25;318.38;40.16;-18.00;1.03;-92.93;-85.45;2.58 
7.085;-0.99;-0.14;0.04;-0.70;-0.77;-0.90;321.37;35.38;-21.00;1.00;-92.84;-85.62;2.49 
7.115;-1.02;-0.14;0.00;-0.35;-0.77;-0.83;317.39;40.16;-19.00;1.03;-92.90;-85.68;2.54 
7.145;-1.00;-0.15;0.02;-0.35;-0.07;-0.35;315.40;39.21;-20.00;1.01;-92.93;-85.77;2.58 
7.175;-1.01;-0.13;0.00;-0.49;0.21;-0.77;315.40;36.34;-19.00;1.02;-92.87;-85.94;2.52 
7.206;-1.01;-0.13;0.01;-0.56;-0.42;-0.49;314.40;39.21;-18.00;1.02;-92.90;-86.03;2.56 
7.236;-1.02;-0.14;0.04;-0.56;-0.07;-0.28;315.40;41.12;-21.00;1.03;-92.83;-86.20;2.49 
7.266;-1.01;-0.15;0.00;-0.35;0.56;-0.21;314.40;37.29;-20.00;1.02;-92.76;-86.37;2.42 
7.295;-1.01;-0.14;0.01;0.00;0.07;0.00;318.38;39.21;-20.00;1.02;-92.80;-86.46;2.46 
7.325;-1.01;-0.14;0.00;-0.07;-0.28;0.21;314.40;39.21;-21.00;1.02;-92.84;-86.53;2.50 
7.355;-1.01;-0.14;0.03;0.14;0.00;0.14;316.39;36.34;-19.00;1.02;-92.77;-86.66;2.44 
7.385;-1.02;-0.13;0.00;-0.14;0.49;0.42;317.39;38.25;-19.00;1.03;-92.82;-86.72;2.49 
7.416;-1.02;-0.12;0.00;0.00;-0.28;0.28;318.38;39.21;-18.00;1.03;-92.78;-86.85;2.46 
7.446;-1.01;-0.12;0.00;-0.14;0.07;-0.07;316.39;38.25;-23.00;1.02;-92.71;-87.00;2.40 
7.475;-1.00;-0.15;0.02;0.07;0.07;0.00;315.40;39.21;-20.00;1.01;-92.62;-87.16;2.33 
7.506;-1.02;-0.14;0.01;-0.14;0.14;-0.63;312.41;40.16;-17.00;1.03;-92.66;-87.20;2.37 
7.535;-1.02;-0.15;0.02;-0.07;0.83;0.07;315.40;37.29;-20.00;1.03;-92.61;-87.31;2.33 
7.565;-1.01;-0.14;0.01;0.28;1.74;-0.14;315.40;40.16;-21.00;1.02;-92.53;-87.47;2.25 
7.595;-1.01;-0.15;0.02;0.56;0.70;0.07;317.39;37.29;-19.00;1.02;-92.42;-87.63;2.16 
7.624;-1.02;-0.15;0.00;0.28;0.14;0.35;316.39;39.21;-22.00;1.03;-92.49;-87.62;2.24 
7.654;-1.02;-0.14;0.00;0.21;-0.07;-0.21;315.40;40.16;-19.00;1.03;-92.52;-87.63;2.28 
7.684;-1.02;-0.13;0.04;-0.07;-0.07;0.42;319.38;38.25;-17.00;1.03;-92.45;-87.72;2.21 
7.715;-0.99;-0.12;0.01;-0.07;1.04;0.49;319.38;37.29;-20.00;1.00;-92.39;-87.79;2.17 
7.745;-1.01;-0.14;0.00;0.42;0.90;0.49;314.40;39.21;-20.00;1.02;-92.44;-87.76;2.23 
7.775;-1.03;-0.14;0.02;0.77;0.42;1.04;313.41;35.38;-17.00;1.04;-92.37;-87.83;2.17 
7.806;-1.05;-0.12;0.00;0.14;0.21;0.83;320.37;36.34;-20.00;1.06;-92.32;-87.87;2.13 
7.836;-1.01;-0.14;0.00;0.07;-0.42;0.77;317.39;36.34;-19.00;1.02;-92.26;-87.91;2.08 
7.866;-1.02;-0.14;0.02;0.00;0.28;0.49;316.39;39.21;-19.00;1.03;-92.33;-87.81;2.16 
7.896;-1.02;-0.10;0.01;0.07;0.07;0.49;316.39;40.16;-20.00;1.02;-92.29;-87.81;2.14 
7.926;-1.00;-0.14;0.01;0.14;0.56;0.21;317.39;40.16;-20.00;1.01;-92.23;-87.84;2.08 
7.956;-0.99;-0.14;0.00;-0.21;0.70;-0.28;321.37;38.25;-20.00;1.00;-92.14;-87.86;2.01 
7.985;-1.00;-0.12;0.00;-0.35;0.77;-0.14;319.38;37.29;-16.00;1.01;-92.06;-87.88;1.94 
8.016;-1.02;-0.15;0.02;-0.21;0.97;-0.21;316.39;36.34;-20.00;1.03;-91.95;-87.91;1.84 
8.046;-1.01;-0.14;0.02;-0.21;0.83;-0.49;313.41;37.29;-17.00;1.02;-91.88;-87.89;1.78 
8.076;-1.02;-0.14;0.01;-0.14;0.83;-0.21;316.39;35.38;-20.00;1.03;-91.83;-87.84;1.74 
8.106;-1.02;-0.13;0.02;-0.28;0.97;-0.28;315.40;40.16;-17.00;1.03;-91.78;-87.78;1.71 
8.135;-1.01;-0.12;0.10;-0.42;1.18;-0.70;317.39;38.25;-18.00;1.02;-91.82;-87.62;1.76 
8.165;-1.02;-0.11;0.00;-0.42;0.97;-0.42;317.39;38.25;-18.00;1.03;-91.72;-87.60;1.68 
8.195;-1.02;-0.11;0.00;-0.21;0.70;-0.49;316.39;37.29;-19.00;1.03;-91.64;-87.56;1.61 
8.225;-1.02;-0.14;0.02;0.00;0.21;-0.28;316.39;37.29;-18.00;1.03;-91.68;-87.40;1.67 
8.254;-1.01;-0.14;0.01;-0.14;0.14;-0.42;316.39;39.21;-16.00;1.02;-91.60;-87.36;1.60 
8.284;-1.02;-0.14;0.00;-0.07;0.00;-0.49;318.38;39.21;-17.00;1.03;-91.62;-87.24;1.63 
8.315;-1.02;-0.14;0.00;-0.14;-0.28;0.00;315.40;41.12;-17.00;1.03;-91.64;-87.11;1.67 
8.345;-1.01;-0.14;0.02;-0.21;-0.21;0.00;313.41;39.21;-20.00;1.02;-91.66;-86.99;1.71 
8.375;-1.02;-0.13;0.00;0.00;0.07;-0.28;317.39;42.07;-19.00;1.03;-91.59;-86.93;1.65 
8.406;-1.01;-0.14;0.01;-0.14;0.07;0.21;314.40;36.34;-18.00;1.02;-91.65;-86.75;1.73 
8.436;-1.02;-0.12;0.00;-0.14;-0.07;0.14;318.38;36.34;-19.00;1.03;-91.59;-86.70;1.67 
8.466;-1.02;-0.15;0.03;0.00;0.21;-0.14;315.40;37.29;-17.00;1.03;-91.61;-86.56;1.71 
8.496;-1.00;-0.13;0.01;0.00;-0.07;0.00;317.39;37.29;-16.00;1.01;-91.51;-86.53;1.62 
8.527;-0.99;-0.14;0.02;0.00;-0.21;-0.28;317.39;38.25;-20.00;1.00;-91.56;-86.37;1.68 
8.557;-1.03;-0.15;0.05;-0.21;0.00;-0.28;316.39;38.25;-17.00;1.04;-91.58;-86.22;1.72 
8.587;-1.02;-0.10;0.00;-0.21;-0.21;0.21;318.38;39.21;-16.00;1.02;-91.49;-86.17;1.65 
8.618;-1.01;-0.13;0.02;-0.28;0.14;-0.21;318.38;39.21;-19.00;1.02;-91.40;-86.14;1.57 
8.647;-1.02;-0.12;-0.02;0.00;0.35;0.00;313.41;39.21;-18.00;1.03;-91.34;-86.06;1.52 
8.677;-1.00;-0.11;0.02;-0.14;0.42;-0.14;316.39;37.29;-17.00;1.01;-91.39;-85.90;1.58 
8.706;-1.02;-0.11;0.02;-0.21;0.21;0.00;316.39;38.25;-18.00;1.03;-91.40;-85.77;1.61 
8.736;-1.02;-0.12;0.01;-0.28;0.35;-0.14;318.38;40.16;-21.00;1.03;-91.44;-85.60;1.67 
8.766;-1.02;-0.15;-0.03;-0.28;0.28;-0.14;320.37;42.07;-19.00;1.03;-91.39;-85.53;1.63 
8.795;-1.02;-0.14;0.02;-0.21;0.21;-0.35;319.38;42.07;-19.00;1.03;-91.33;-85.46;1.58 
8.826;-1.01;-0.14;0.02;0.00;0.49;0.00;315.40;40.16;-17.00;1.02;-91.28;-85.40;1.55 
8.856;-1.02;-0.14;0.06;0.00;0.83;0.00;317.39;39.21;-16.00;1.03;-91.19;-85.35;1.47 
8.885;-1.02;-0.13;0.00;-0.21;0.63;-0.28;317.39;38.25;-16.00;1.03;-91.10;-85.31;1.39 
8.916;-1.02;-0.14;0.03;-0.63;0.14;-0.42;317.39;41.12;-18.00;1.03;-91.05;-85.24;1.35 
8.946;-1.02;-0.13;0.04;-0.35;0.21;-0.35;315.40;38.25;-16.00;1.03;-90.98;-85.17;1.29 
8.976;-1.02;-0.13;0.00;-0.28;-0.21;0.00;314.40;40.16;-17.00;1.03;-91.01;-85.02;1.34 
9.006;-1.02;-0.14;0.02;-0.07;-0.07;-0.21;315.40;39.21;-19.00;1.03;-90.94;-84.97;1.28 
9.035;-1.02;-0.12;0.02;-0.21;-0.21;-0.28;316.39;37.29;-18.00;1.03;-90.86;-84.89;1.21 
9.065;-1.02;-0.12;0.00;-0.07;-0.14;-0.35;316.39;38.25;-19.00;1.03;-90.89;-84.74;1.26 
9.095;-1.02;-0.13;0.01;-0.07;0.00;-0.63;315.40;36.34;-17.00;1.03;-90.83;-84.69;1.20 
9.126;-1.00;-0.14;0.00;-0.21;-0.28;-0.42;314.40;37.29;-17.00;1.01;-90.75;-84.66;1.14 
9.156;-1.02;-0.13;0.01;-0.07;-0.63;-1.67;315.40;40.16;-19.00;1.03;-90.65;-84.62;1.05 
9.186;-1.02;-0.14;0.02;-0.28;-0.49;-1.74;315.40;41.12;-19.00;1.03;-90.65;-84.49;1.06 
9.215;-1.02;-0.11;0.01;0.07;-1.81;-2.09;316.39;38.25;-17.00;1.03;-90.54;-84.49;0.96 
9.245;-1.04;-0.13;0.00;-0.21;-1.74;-4.24;314.40;37.29;-16.00;1.05;-90.47;-84.44;0.90 
9.275;-1.02;-0.13;0.00;-1.67;-2.85;-4.73;315.40;38.25;-17.00;1.03;-90.37;-84.40;0.80 
9.305;-0.98;-0.13;0.00;-1.46;-2.92;-4.10;312.41;39.21;-19.00;0.99;-90.29;-84.36;0.74 
9.336;-1.02;-0.14;0.00;-1.25;-1.95;-3.06;307.44;43.03;-20.00;1.03;-90.14;-84.40;0.59 
9.366;-1.02;-0.15;-0.05;-0.21;-3.62;-3.41;311.42;39.21;-19.00;1.03;-90.09;-84.34;0.56 
9.396;-1.01;-0.07;0.02;-0.49;-4.52;-4.03;310.42;42.07;-24.00;1.01;-90.02;-84.33;0.50 
9.427;-0.98;-0.17;0.04;-0.42;-2.92;-3.69;312.41;43.03;-22.00;1.00;-89.85;-84.42;0.32 
9.457;-0.98;-0.21;0.01;-0.77;-3.76;-1.39;308.43;42.07;-22.00;1.00;-89.69;-84.50;0.16 
9.487;-1.04;-0.15;0.06;-0.07;-4.73;-2.50;307.44;43.03;-23.00;1.05;-89.57;-84.62;0.02 
9.516;-1.05;-0.18;0.01;-1.04;-1.74;-1.74;307.44;44.94;-25.00;1.07;-89.44;-84.67;-0.11 
9.546;-1.02;-0.18;0.00;0.14;-1.11;-1.81;309.43;41.12;-26.00;1.04;-89.28;-84.63;-0.27 
9.576;-0.97;-0.14;0.04;0.07;-3.76;-1.60;305.45;43.03;-25.00;0.98;-89.27;-84.58;-0.27 
9.606;-0.98;-0.17;0.06;-1.18;-0.97;0.97;306.44;44.94;-25.00;1.00;-89.19;-84.65;-0.35 
9.637;-0.99;-0.17;0.07;-0.28;-0.42;0.21;308.43;41.12;-26.00;1.01;-89.14;-84.68;-0.40 
9.667;-1.01;-0.14;0.00;0.00;-2.23;-1.18;306.44;44.94;-25.00;1.02;-89.15;-84.59;-0.37 
9.697;-0.98;-0.18;0.06;0.21;0.42;-2.50;305.45;43.03;-28.00;1.00;-89.01;-84.60;-0.51 
9.727;-1.01;-0.18;0.01;-0.07;2.43;-1.95;305.45;44.94;-27.00;1.03;-88.86;-84.51;-0.65 
9.757;-1.05;-0.15;0.03;0.28;-1.60;-2.50;305.45;43.03;-27.00;1.06;-88.69;-84.44;-0.81 
9.787;-0.95;-0.17;0.06;0.97;0.42;-2.02;307.44;41.12;-25.00;0.97;-88.55;-84.45;-0.96 
9.817;-1.02;-0.17;0.00;0.07;5.70;-2.43;307.44;43.99;-21.00;1.03;-88.39;-84.33;-1.10 
9.848;-1.02;-0.16;0.00;0.77;-1.67;-1.18;303.46;45.90;-23.00;1.03;-88.36;-84.15;-1.11 
9.877;-1.02;-0.17;0.04;0.77;0.56;-1.53;302.46;45.90;-23.00;1.03;-88.26;-84.12;-1.21 
9.907;-1.01;-0.18;0.00;0.42;0.63;-1.25;303.46;44.94;-27.00;1.03;-88.13;-84.07;-1.33 
9.938;-1.01;-0.19;0.00;1.04;-0.90;-1.25;305.45;43.99;-24.00;1.03;-88.10;-83.96;-1.35 
9.968;-1.02;-0.18;0.04;0.83;-2.92;-1.53;304.45;43.03;-23.00;1.04;-88.00;-83.96;-1.46 
9.998;-1.00;-0.18;0.07;0.63;-1.32;-0.42;305.45;46.86;-27.00;1.02;-87.89;-84.01;-1.57 
10.028;-1.02;-0.14;0.01;-0.21;0.35;0.00;305.45;45.90;-25.00;1.03;-87.83;-83.99;-1.63 
10.057;-1.02;-0.16;0.02;-0.83;-0.90;-0.90;303.46;44.94;-25.00;1.03;-87.77;-83.96;-1.69 
10.087;-1.01;-0.17;0.00;-0.07;-0.77;-1.74;304.45;44.94;-26.00;1.02;-87.69;-83.92;-1.76 
10.117;-0.98;-0.18;0.04;0.35;-0.90;-2.09;302.46;43.99;-28.00;1.00;-87.57;-83.90;-1.88 
10.147;-1.01;-0.19;0.02;1.32;-0.90;-2.16;300.47;43.99;-26.00;1.03;-87.44;-83.86;-2.01 
10.177;-1.01;-0.18;0.05;1.18;-0.21;-1.53;300.47;43.99;-26.00;1.03;-87.30;-83.83;-2.16 
10.207;-1.02;-0.19;0.05;0.97;0.56;-0.90;300.47;42.07;-24.00;1.04;-87.20;-83.79;-2.25 
10.238;-0.98;-0.23;0.02;1.04;0.42;-0.97;297.49;45.90;-26.00;1.01;-87.10;-83.73;-2.35 
10.267;-1.00;-0.19;0.02;0.00;-0.07;0.21;300.47;42.07;-26.00;1.02;-87.01;-83.68;-2.44 
10.297;-1.01;-0.17;0.02;-0.77;-0.21;0.77;302.46;43.99;-25.00;1.02;-86.96;-83.65;-2.49 
10.327;-1.01;-0.13;0.03;-1.32;0.21;1.11;299.48;43.03;-26.00;1.02;-86.92;-83.63;-2.53 
10.357;-1.02;-0.13;0.05;-1.04;-0.07;0.28;303.46;45.90;-27.00;1.03;-86.87;-83.62;-2.57 
10.386;-1.02;-0.15;0.01;0.07;0.70;-0.35;303.46;46.86;-26.00;1.03;-86.81;-83.59;-2.62 
10.416;-1.01;-0.18;0.03;0.35;0.77;-0.90;299.48;43.99;-28.00;1.03;-86.79;-83.49;-2.63 
10.447;-1.00;-0.18;0.02;0.56;0.56;-0.83;302.46;46.86;-26.00;1.02;-86.68;-83.44;-2.74 
10.476;-1.01;-0.18;0.05;0.42;0.14;-0.70;301.47;47.81;-25.00;1.03;-86.57;-83.38;-2.85 
10.506;-1.00;-0.18;0.04;0.35;0.00;-0.07;302.46;43.99;-22.00;1.02;-86.49;-83.34;-2.92 
10.537;-1.02;-0.18;0.05;0.14;-0.07;0.21;300.47;43.99;-26.00;1.04;-86.40;-83.30;-3.02 
10.567;-1.00;-0.16;0.06;-0.07;0.14;0.35;301.47;48.77;-23.00;1.01;-86.34;-83.25;-3.07 
10.596;-0.98;-0.19;0.02;-0.14;0.97;0.42;301.47;46.86;-25.00;1.00;-86.28;-83.21;-3.13 
10.626;-1.02;-0.16;0.02;-0.21;0.97;1.18;303.46;43.99;-22.00;1.03;-86.24;-83.19;-3.16 
10.656;-1.01;-0.16;0.03;-0.70;0.70;0.00;302.46;44.94;-23.00;1.02;-86.21;-83.15;-3.19 
10.686;-1.00;-0.15;0.03;-1.11;0.63;-0.21;303.46;44.94;-23.00;1.01;-86.14;-83.10;-3.26 
10.715;-1.01;-0.14;0.02;-0.83;1.04;-1.18;300.47;44.94;-23.00;1.02;-86.06;-83.04;-3.33 
10.746;-0.98;-0.19;0.01;-0.28;0.42;-1.11;302.46;45.90;-23.00;1.00;-85.95;-82.98;-3.43 
10.776;-0.98;-0.18;0.01;-0.14;0.42;-1.74;300.47;45.90;-29.00;1.00;-85.85;-82.90;-3.53 
10.805;-1.02;-0.17;0.03;0.07;0.49;-1.95;298.48;43.03;-22.00;1.03;-85.73;-82.83;-3.64 
10.836;-0.99;-0.19;0.02;0.14;0.63;-0.77;302.46;46.86;-24.00;1.01;-85.62;-82.74;-3.75 
10.866;-1.01;-0.21;0.04;0.00;0.90;-0.07;297.49;43.03;-25.00;1.03;-85.52;-82.67;-3.84 
10.895;-1.02;-0.18;0.01;-0.28;0.14;-0.07;299.48;43.99;-23.00;1.04;-85.45;-82.61;-3.91 
10.925;-1.00;-0.19;0.01;-0.28;-0.28;-0.35;302.46;44.94;-27.00;1.02;-85.38;-82.59;-3.98 
10.955;-0.99;-0.18;0.03;0.14;0.14;-0.28;300.47;45.90;-22.00;1.01;-85.38;-82.52;-3.97 
10.985;-0.98;-0.17;0.05;0.00;0.14;-0.56;298.48;47.81;-24.00;1.00;-85.32;-82.49;-4.03 
11.015;-0.99;-0.19;0.05;-0.21;-0.14;-0.42;299.48;44.94;-25.00;1.01;-85.25;-82.47;-4.10 
11.046;-1.02;-0.16;0.04;-0.63;-0.49;-0.83;299.48;44.94;-26.00;1.03;-85.16;-82.45;-4.20 
11.076;-1.01;-0.16;0.02;-1.18;-1.25;-1.67;299.48;44.94;-24.00;1.02;-85.13;-82.39;-4.22 
11.106;-1.00;-0.18;0.04;-0.70;-1.74;-2.09;300.47;44.94;-26.00;1.02;-85.02;-82.38;-4.33 
11.136;-1.02;-0.14;0.03;-0.56;-0.28;-2.78;297.49;46.86;-25.00;1.03;-84.90;-82.38;-4.46 
11.166;-1.00;-0.18;0.00;-0.35;-0.14;-2.57;299.48;49.72;-26.00;1.02;-84.78;-82.33;-4.58 
11.196;-0.99;-0.22;0.02;0.97;0.21;-3.27;297.49;45.90;-22.00;1.01;-84.62;-82.26;-4.75 
11.226;-1.01;-0.18;0.02;1.39;0.97;-2.64;294.51;46.86;-25.00;1.03;-84.47;-82.17;-4.90 
11.257;-1.00;-0.18;0.02;0.97;-0.07;-2.57;293.51;44.94;-24.00;1.02;-84.32;-82.07;-5.06 
11.287;-0.98;-0.22;0.04;0.56;-1.95;-1.67;296.49;46.86;-26.00;1.01;-84.18;-82.00;-5.21 
11.317;-1.02;-0.21;0.00;-0.35;-3.27;-0.83;293.51;49.72;-26.00;1.04;-84.11;-82.00;-5.28 
11.347;-1.02;-0.15;0.05;-0.21;-3.55;-1.53;293.51;47.81;-26.00;1.03;-84.09;-82.04;-5.32 
11.377;-1.01;-0.17;0.06;0.14;-3.06;-2.23;295.50;45.90;-27.00;1.03;-84.01;-82.10;-5.41 
11.407;-1.02;-0.22;0.01;0.28;-2.64;-2.50;295.50;46.86;-28.00;1.04;-83.92;-82.10;-5.52 
11.437;-1.02;-0.20;0.02;1.60;-3.48;-2.64;295.50;48.77;-26.00;1.04;-83.83;-82.05;-5.61 
11.467;-1.02;-0.21;0.04;1.88;-5.50;-3.55;292.52;46.86;-31.00;1.04;-83.69;-82.04;-5.78 
11.497;-1.01;-0.24;0.04;3.13;-6.05;-2.57;294.51;48.77;-30.00;1.04;-83.55;-82.05;-5.94 
11.527;-0.94;-0.18;0.05;2.09;-7.10;-0.70;290.53;47.81;-29.00;0.96;-83.46;-82.09;-6.07 
11.558;-0.98;-0.16;0.06;1.67;-6.68;-2.23;288.54;48.77;-33.00;0.99;-83.41;-82.19;-6.15 
11.587;-0.95;-0.20;0.07;1.53;-3.83;-2.37;291.52;45.90;-33.00;0.97;-83.33;-82.23;-6.27 
11.617;-0.95;-0.19;0.09;2.02;-2.02;-1.04;289.53;45.90;-30.00;0.97;-83.22;-82.19;-6.40 
11.647;-0.96;-0.22;0.09;1.53;-0.07;1.25;289.53;45.90;-36.00;0.99;-83.16;-82.19;-6.47 
11.677;-0.98;-0.23;0.08;0.49;1.60;1.74;291.52;47.81;-36.00;1.01;-83.11;-82.15;-6.52 
11.707;-0.98;-0.20;0.10;-1.32;3.48;1.74;290.53;47.81;-36.00;1.01;-83.09;-82.14;-6.53 
11.737;-0.98;-0.20;0.04;-2.30;5.43;1.18;294.51;46.86;-34.00;1.00;-83.07;-82.07;-6.54 
11.768;-0.98;-0.19;0.09;-1.95;5.29;1.95;291.52;47.81;-34.00;1.00;-83.05;-82.02;-6.54 
11.798;-1.01;-0.19;0.06;-1.11;6.33;0.63;290.53;46.86;-30.00;1.03;-83.04;-81.93;-6.53 
11.828;-1.01;-0.20;0.02;-0.56;5.43;0.77;295.50;48.77;-29.00;1.03;-83.00;-81.83;-6.54 
11.859;-1.02;-0.18;0.06;-1.46;5.01;0.56;292.52;44.94;-29.00;1.04;-82.96;-81.72;-6.56 
11.888;-0.98;-0.20;0.05;-1.95;3.90;-0.97;292.52;49.72;-28.00;1.00;-82.89;-81.62;-6.61 
11.918;-0.97;-0.19;0.04;-1.74;4.59;1.39;290.53;47.81;-27.00;0.99;-82.83;-81.53;-6.66 
11.948;-1.01;-0.19;0.02;-1.39;3.97;-0.14;293.51;48.77;-26.00;1.03;-82.79;-81.44;-6.68 
11.978;-1.02;-0.22;0.04;-0.49;3.27;1.46;293.51;47.81;-26.00;1.04;-82.74;-81.35;-6.72 
12.008;-0.99;-0.19;0.02;-0.35;4.24;0.77;291.52;51.64;-25.00;1.01;-82.74;-81.32;-6.70 
12.038;-1.02;-0.20;0.02;-0.42;1.95;0.00;291.52;45.90;-23.00;1.04;-82.68;-81.23;-6.75 
12.069;-1.02;-0.22;0.04;-0.07;0.97;0.56;293.51;47.81;-27.00;1.04;-82.65;-81.17;-6.78 
