Time(s) acc_x(g) acc_y(g) acc_z(g) gyr_x(°/s) gyr_y(°/s) gyr_z(°/s) mag_x(G) mag_y(G) mag_z(G) SVM(g) yaw(°) pitch(°) roll(°)
0.000;-0.15;0.09;0.88;-0.77;1.32;-3.06;368.29;-82.14;-368.00;0.90;-122.77;-10.67;8.89 
0.029;-0.17;0.10;0.87;-1.04;0.63;-2.50;367.30;-86.91;-371.00;0.89;-122.72;-10.73;8.86 
0.059;-0.15;0.06;0.86;-0.97;-0.07;-2.37;367.30;-85.00;-370.00;0.88;-122.69;-10.75;8.84 
0.089;-0.14;0.08;0.88;-0.70;-0.21;-1.32;370.27;-81.18;-372.00;0.89;-122.68;-10.75;8.83 
0.119;-0.14;0.08;0.91;-0.63;-0.35;-0.28;368.29;-83.09;-371.00;0.92;-122.69;-10.73;8.83 
0.149;-0.15;0.09;0.87;-1.53;0.42;0.42;366.31;-84.05;-376.00;0.89;-122.73;-10.72;8.81 
0.179;-0.18;0.11;0.85;-1.53;0.14;0.90;372.25;-83.09;-372.00;0.88;-122.79;-10.74;8.78 
0.210;-0.18;0.10;0.91;-0.90;0.42;0.83;366.31;-85.00;-372.00;0.93;-122.85;-10.75;8.75 
0.240;-0.19;0.09;0.88;-0.28;1.67;0.90;371.26;-83.09;-376.00;0.90;-122.92;-10.79;8.76 
0.270;-0.16;0.10;0.94;-0.42;1.53;1.81;367.30;-85.00;-371.00;0.96;-122.99;-10.85;8.78 
0.301;-0.15;0.12;0.90;-1.04;3.55;1.32;370.27;-83.09;-369.00;0.92;-123.09;-10.93;8.79 
0.330;-0.14;0.06;0.84;-1.04;5.15;2.09;367.30;-85.00;-375.00;0.85;-123.18;-11.07;8.79 
0.359;-0.17;0.08;0.84;-0.83;2.23;2.64;366.31;-84.05;-372.00;0.86;-123.28;-11.19;8.77 
0.388;-0.15;0.12;0.92;-0.63;-2.30;2.16;369.28;-82.14;-375.00;0.94;-123.39;-11.18;8.78 
0.417;-0.13;0.14;0.95;0.14;-0.07;0.90;365.32;-85.96;-370.00;0.97;-123.49;-11.08;8.83 
0.446;-0.15;0.13;0.91;-0.14;8.07;-1.25;368.29;-85.96;-371.00;0.93;-123.52;-11.16;8.88 
0.475;-0.14;0.10;0.86;-1.04;9.04;-1.53;365.32;-82.14;-371.00;0.88;-123.52;-11.42;8.90 
0.504;-0.18;0.06;0.83;-1.11;3.06;0.07;368.29;-81.18;-372.00;0.85;-123.53;-11.64;8.88 
0.533;-0.18;0.07;0.83;-0.21;-1.95;1.39;369.28;-82.14;-368.00;0.85;-123.57;-11.66;8.86 
0.562;-0.16;0.10;0.90;0.21;-1.25;1.53;367.30;-82.14;-368.00;0.92;-123.65;-11.58;8.88 
0.591;-0.14;0.10;0.94;-0.21;2.09;0.63;369.28;-83.09;-373.00;0.96;-123.73;-11.55;8.91 
0.621;-0.18;0.11;0.90;-0.70;4.73;0.21;370.27;-83.09;-372.00;0.92;-123.77;-11.65;8.93 
0.651;-0.15;0.11;0.88;-0.35;5.36;0.07;369.28;-80.23;-372.00;0.90;-123.81;-11.79;8.94 
0.682;-0.20;0.13;0.89;0.00;3.27;-0.42;369.28;-79.27;-371.00;0.92;-123.83;-11.92;8.93 
0.712;-0.17;0.09;0.86;-0.28;0.83;-1.11;368.29;-80.23;-368.00;0.88;-123.84;-12.00;8.92 
0.742;-0.15;0.11;0.91;-0.35;0.07;-1.53;370.27;-83.09;-369.00;0.93;-123.83;-12.02;8.92 
0.772;-0.17;0.09;0.91;-0.21;2.43;-3.06;370.27;-80.23;-369.00;0.93;-123.80;-12.03;8.93 
0.802;-0.17;0.09;0.90;0.14;4.59;-4.10;367.30;-80.23;-367.00;0.92;-123.74;-12.15;8.92 
0.832;-0.18;0.09;0.86;0.21;3.27;-2.92;369.28;-79.27;-373.00;0.88;-123.67;-12.28;8.91 
0.862;-0.17;0.11;0.84;-0.21;0.35;-2.85;366.31;-77.36;-372.00;0.86;-123.61;-12.34;8.90 
0.893;-0.18;0.10;0.90;0.07;-0.42;-2.30;370.27;-75.45;-372.00;0.92;-123.56;-12.33;8.89 
0.922;-0.18;0.10;0.89;-0.14;2.09;-1.88;369.28;-76.41;-372.00;0.91;-123.53;-12.36;8.90 
0.951;-0.18;0.10;0.89;-0.49;3.27;-0.63;367.30;-75.45;-371.00;0.91;-123.52;-12.44;8.90 
0.981;-0.19;0.08;0.86;-0.70;2.23;0.14;369.28;-76.41;-371.00;0.88;-123.53;-12.53;8.89 
1.010;-0.22;0.10;0.89;-0.70;0.83;0.14;368.29;-75.45;-374.00;0.92;-123.56;-12.56;8.88 
1.040;-0.19;0.09;0.86;-0.77;0.83;0.70;367.30;-75.45;-371.00;0.89;-123.61;-12.57;8.87 
1.070;-0.16;0.11;0.90;-0.70;1.32;0.56;369.28;-78.32;-369.00;0.92;-123.66;-12.58;8.87 
1.100;-0.15;0.10;0.87;-0.56;1.95;0.56;366.31;-78.32;-369.00;0.89;-123.71;-12.62;8.88 
1.130;-0.18;0.10;0.86;-0.49;2.85;0.21;370.27;-76.41;-369.00;0.88;-123.76;-12.67;8.90 
1.160;-0.14;0.09;0.91;-0.77;3.06;0.28;366.31;-76.41;-370.00;0.93;-123.80;-12.73;8.91 
1.191;-0.16;0.08;0.87;-0.63;3.27;-0.28;369.28;-75.45;-370.00;0.89;-123.84;-12.80;8.90 
1.221;-0.16;0.09;0.90;-0.28;3.13;-0.90;369.28;-76.41;-368.00;0.92;-123.86;-12.85;8.89 
1.251;-0.15;0.10;0.90;-0.49;3.90;-0.63;367.30;-77.36;-370.00;0.92;-123.87;-12.94;8.90 
1.282;-0.15;0.11;0.85;-0.42;4.73;-0.63;363.34;-72.59;-371.00;0.87;-123.89;-13.06;8.91 
1.312;-0.18;0.10;0.84;-0.49;3.76;-0.56;369.28;-72.59;-367.00;0.86;-123.89;-13.17;8.91 
1.342;-0.18;0.08;0.90;-0.97;3.55;-0.21;367.30;-73.54;-369.00;0.92;-123.91;-13.27;8.91 
1.372;-0.18;0.11;0.90;0.07;3.41;0.35;367.30;-71.63;-368.00;0.92;-123.94;-13.35;8.92 
1.402;-0.16;0.10;0.90;0.00;3.48;-0.21;364.33;-73.54;-368.00;0.92;-123.98;-13.42;8.96 
1.432;-0.14;0.10;0.92;-0.90;5.01;0.35;370.27;-69.72;-370.00;0.94;-124.00;-13.51;8.95 
1.462;-0.17;0.08;0.90;-1.11;7.72;0.70;368.29;-72.59;-371.00;0.92;-124.05;-13.66;8.93 
1.492;-0.18;0.12;0.91;-0.77;9.95;0.63;368.29;-70.68;-367.00;0.94;-124.09;-13.89;8.90 
1.521;-0.18;0.10;0.88;-0.14;8.83;0.07;368.29;-65.90;-367.00;0.90;-124.13;-14.14;8.93 
1.550;-0.18;0.09;0.89;-0.14;6.75;0.63;368.29;-67.81;-368.00;0.91;-124.16;-14.35;8.95 
1.579;-0.18;0.10;0.86;-0.56;6.05;1.04;368.29;-66.86;-365.00;0.88;-124.20;-14.50;8.95 
1.608;-0.15;0.09;0.90;-1.32;6.33;1.67;369.28;-65.90;-369.00;0.92;-124.26;-14.64;8.96 
1.637;-0.14;0.07;0.93;-2.43;7.03;2.78;367.30;-63.03;-365.00;0.94;-124.35;-14.75;8.96 
1.666;-0.14;0.10;0.86;-3.48;9.39;2.64;366.31;-63.03;-364.00;0.88;-124.45;-14.90;8.90 
1.695;-0.17;0.13;0.88;-3.55;9.60;2.99;365.32;-62.08;-364.00;0.91;-124.57;-15.09;8.83 
1.724;-0.17;0.12;0.88;-2.78;9.81;1.88;366.31;-63.99;-365.00;0.90;-124.66;-15.30;8.81 
1.753;-0.17;0.11;0.81;-2.64;9.67;-0.42;367.30;-61.12;-367.00;0.83;-124.71;-15.51;8.79 
1.782;-0.16;0.13;0.78;-3.69;6.89;-1.11;366.31;-59.21;-362.00;0.81;-124.71;-15.71;8.72 
1.811;-0.14;0.11;0.77;-5.43;1.88;-1.32;364.33;-58.26;-361.00;0.79;-124.70;-15.81;8.65 
1.840;-0.13;0.06;0.73;-7.58;-2.85;-2.71;365.32;-57.30;-365.00;0.74;-124.68;-15.75;8.50 
1.869;-0.18;0.04;0.67;-9.11;-10.37;-0.90;363.34;-59.21;-366.00;0.69;-124.65;-15.52;8.27 
1.899;-0.12;0.12;0.69;-8.07;-12.59;1.81;364.33;-64.95;-367.00;0.71;-124.71;-15.12;8.06 
1.929;-0.07;0.10;0.65;-5.43;-13.43;0.07;360.37;-63.99;-368.00;0.66;-124.80;-14.64;7.94 
1.960;-0.08;0.10;0.68;-0.90;-14.33;-1.53;360.37;-64.95;-368.00;0.69;-124.84;-14.12;7.92 
1.990;-0.05;0.07;0.62;7.79;-8.07;-1.11;361.36;-71.63;-370.00;0.63;-124.84;-13.66;8.10 
2.020;-0.06;0.02;0.58;7.17;-7.86;1.53;361.36;-68.77;-370.00;0.58;-124.86;-13.32;8.37 
2.050;-0.09;0.10;0.62;-2.37;-20.52;4.94;367.30;-75.45;-365.00;0.63;-125.00;-12.82;8.52 
2.079;-0.08;0.10;0.64;-4.31;-24.97;5.15;365.32;-79.27;-370.00;0.65;-125.18;-12.02;8.48 
2.108;0.00;0.10;0.63;1.53;-18.92;6.05;364.33;-85.00;-370.00;0.64;-125.37;-11.22;8.49 
2.137;0.07;0.08;0.58;1.74;-13.43;3.20;366.31;-88.82;-368.00;0.59;-125.54;-10.61;8.63 
2.166;0.11;0.14;0.60;-2.37;-26.09;1.39;367.30;-90.73;-371.00;0.63;-125.65;-9.86;8.74 
2.195;0.07;0.10;0.74;-6.54;-41.67;2.09;368.29;-97.42;-371.00;0.75;-125.71;-8.69;8.70 
2.224;0.09;0.14;0.90;-6.82;-36.94;3.20;367.30;-106.01;-373.00;0.92;-125.75;-7.36;8.54 
2.253;0.20;0.19;0.94;5.36;-13.36;-0.63;365.32;-108.88;-373.00;0.98;-125.86;-6.29;8.58 
2.282;0.08;0.12;0.78;7.30;0.56;-10.16;372.25;-112.70;-372.00;0.79;-125.74;-5.91;8.85 
2.311;0.01;0.07;0.80;-4.31;-6.75;-6.47;370.27;-111.74;-373.00;0.80;-125.50;-5.75;8.92 
2.342;-0.06;0.10;0.98;-13.01;1.67;-6.19;373.24;-110.79;-370.00;0.99;-125.30;-5.60;8.68 
2.372;-0.14;0.02;1.16;-8.49;52.31;-12.03;369.28;-110.79;-373.00;1.17;-125.04;-6.25;8.28 
2.402;-0.14;0.05;0.95;-4.94;111.86;-14.89;368.29;-100.28;-367.00;0.96;-124.71;-8.72;8.00 
2.433;-0.69;0.09;1.14;-6.26;104.00;-27.90;368.29;-70.68;-363.00;1.34;-124.14;-12.52;7.76 
2.462;-2.50;-0.53;4.28;-43.34;33.53;-57.60;366.31;-59.21;-359.00;4.98;-122.31;-14.19;7.05 
2.492;-2.48;-1.02;2.70;-45.77;270.12;41.04;355.42;-11.46;-347.00;3.81;-121.63;-26.11;5.75 
2.522;0.04;0.75;1.15;-4.38;252.66;31.03;361.36;12.42;-328.00;1.37;-122.46;-34.02;6.55 
2.552;0.26;0.25;0.74;-22.26;105.88;-18.09;361.36;50.62;-292.00;0.82;-121.58;-39.22;7.14 
2.582;-0.38;-0.26;1.05;-29.15;130.85;-11.62;355.42;70.68;-286.00;1.15;-120.31;-42.00;6.20 
2.612;0.00;0.00;0.61;-21.50;189.08;11.13;355.42;85.00;-267.00;0.61;-119.03;-46.43;5.58 
2.643;0.14;0.16;0.30;-6.47;165.22;-2.09;350.47;96.46;-259.00;0.37;-117.61;-51.22;5.64 
2.673;-0.19;0.03;0.17;-3.97;141.22;-11.55;351.46;127.98;-214.00;0.26;-115.99;-55.26;5.92 
2.703;-0.73;0.05;0.39;-17.04;120.77;-18.43;351.46;132.76;-202.00;0.83;-113.94;-59.15;5.59 
2.733;-0.77;0.11;0.66;-23.17;135.58;-15.58;339.58;144.22;-174.00;1.02;-111.76;-62.80;4.99 
2.763;-0.66;0.06;0.50;-24.90;129.67;-13.36;340.57;151.86;-164.00;0.83;-109.27;-66.98;4.44 
2.793;-0.59;-0.18;0.40;-25.60;91.62;-8.77;335.62;162.36;-125.00;0.74;-106.99;-70.28;3.80 
2.823;-0.41;-0.14;0.54;-33.18;74.92;7.51;336.61;164.27;-114.00;0.69;-105.50;-72.53;3.37 
2.854;-0.26;-0.21;0.63;-36.87;96.97;9.11;335.62;168.09;-105.00;0.71;-104.35;-74.53;3.17 
2.884;-0.21;-0.12;0.54;-33.46;149.01;21.63;334.63;169.05;-90.00;0.59;-102.54;-77.50;3.17 
2.914;-0.41;0.19;0.26;-24.83;191.65;22.61;342.55;170.00;-53.00;0.52;-100.03;-81.38;3.68 
2.945;-0.96;0.81;-0.54;30.47;234.92;0.83;342.55;170.00;-37.00;1.37;-95.70;-85.18;4.74 
2.975;-0.71;0.87;-1.18;107.27;201.04;-33.95;340.57;166.18;24.00;1.63;-90.03;-81.79;4.71 
3.005;-0.62;0.02;-1.66;88.21;164.66;-101.98;331.66;158.54;69.00;1.77;-84.70;-76.38;2.93 
3.035;-0.78;-1.17;-1.89;36.03;-11.41;-58.78;298.00;156.63;107.00;2.36;-79.88;-72.94;-0.52 
3.064;-0.99;-1.29;-1.28;13.63;-186.78;20.73;296.01;166.18;91.00;2.07;-80.30;-74.96;-1.68 
3.094;-0.97;-0.94;-0.41;-7.17;-217.95;78.89;302.95;170.96;56.00;1.41;-84.24;-80.68;-0.96 
3.124;-1.12;0.11;0.05;-20.66;-69.01;67.41;319.78;171.91;22.00;1.13;-89.20;-84.93;1.59 
3.155;-1.14;0.28;-0.24;-25.81;16.70;22.47;334.63;165.23;12.00;1.20;-91.05;-84.72;3.15 
3.185;-1.26;0.10;-0.39;-16.56;-2.09;8.49;338.59;165.23;12.00;1.32;-91.32;-83.79;3.82 
3.215;-1.32;-0.03;-0.32;10.78;-26.09;8.70;337.60;165.23;12.00;1.36;-91.73;-83.67;4.15 
3.245;-1.19;-0.14;-0.22;12.94;5.91;7.03;337.60;161.41;5.00;1.22;-92.15;-83.64;4.38 
3.275;-1.24;-0.46;-0.46;12.38;42.16;14.40;344.53;161.41;11.00;1.40;-91.65;-82.79;4.38 
3.305;-1.11;-0.33;-0.58;4.52;39.10;32.97;347.50;159.50;23.00;1.30;-91.34;-81.11;4.85 
3.335;-1.07;-0.12;-0.48;-17.67;9.25;26.16;354.43;155.68;26.00;1.18;-91.57;-79.64;5.64 
3.366;-1.25;0.02;-0.23;-26.16;-24.63;19.06;358.39;156.63;23.00;1.27;-92.23;-79.21;6.36 
3.395;-1.31;0.10;0.18;-15.03;-4.38;22.19;364.33;149.95;16.00;1.33;-93.25;-79.14;7.16 
3.425;-1.23;0.01;-0.03;-3.76;41.11;16.49;367.30;148.04;19.00;1.23;-93.67;-78.34;7.80 
3.456;-1.14;0.10;-0.35;-5.63;40.97;10.02;371.26;146.13;21.00;1.20;-93.36;-76.92;8.20 
3.486;-1.06;0.18;-0.38;-7.17;0.14;9.32;370.27;144.22;27.00;1.14;-93.32;-75.94;8.59 
3.516;-1.09;0.13;-0.16;-6.75;-11.27;6.68;371.26;142.31;29.00;1.11;-93.73;-75.72;8.95 
3.546;-1.06;0.09;0.00;-6.96;0.35;4.31;377.20;144.22;21.00;1.06;-94.07;-75.72;9.16 
3.576;-1.04;0.13;-0.03;1.18;11.62;4.87;376.21;143.26;22.00;1.05;-94.22;-75.33;9.40 
3.606;-1.04;0.14;-0.18;4.66;13.01;0.07;374.23;143.26;25.00;1.06;-94.19;-74.92;9.48 
3.636;-1.01;0.10;-0.22;3.13;8.21;-4.52;373.24;141.35;23.00;1.04;-94.02;-74.56;9.44 
3.666;-1.02;0.09;-0.17;1.60;2.99;-5.70;373.24;141.35;29.00;1.04;-93.83;-74.39;9.29 
3.695;-1.02;0.05;-0.12;2.92;8.07;-5.70;375.22;141.35;28.00;1.03;-93.63;-74.29;9.11 
3.725;-1.06;0.04;-0.16;4.10;15.86;-7.44;373.24;142.31;29.00;1.07;-93.30;-74.06;8.86 
3.756;-1.02;0.00;-0.24;2.57;13.77;-6.19;370.27;143.26;36.00;1.05;-92.95;-73.62;8.67 
3.786;-1.04;-0.02;-0.26;1.53;5.36;-4.03;373.24;141.35;34.00;1.07;-92.63;-73.34;8.43 
3.816;-1.05;-0.02;-0.22;1.04;6.26;-2.71;368.29;141.35;36.00;1.07;-92.56;-73.09;8.38 
3.846;-1.03;-0.03;-0.26;0.42;7.58;-2.09;369.28;142.31;38.00;1.06;-92.35;-72.85;8.21 
3.876;-1.02;0.00;-0.26;-1.04;3.62;-0.49;370.27;142.31;41.00;1.05;-92.19;-72.64;8.08 
3.906;-1.03;0.00;-0.28;-2.09;-0.42;0.49;370.27;144.22;40.00;1.07;-92.26;-72.45;8.12 
3.935;-1.02;0.00;-0.24;-2.37;0.90;0.28;369.28;143.26;41.00;1.05;-92.35;-72.31;8.18 
3.966;-1.02;0.00;-0.22;-1.88;1.67;1.67;369.28;144.22;43.00;1.04;-92.47;-72.10;8.28 
3.996;-1.03;0.04;-0.20;-1.04;1.67;1.53;371.26;144.22;40.00;1.05;-92.55;-71.95;8.32 
4.026;-1.03;0.03;-0.20;-0.70;2.16;1.32;368.29;141.35;38.00;1.05;-92.61;-71.82;8.34 
4.056;-1.02;0.01;-0.22;-0.56;2.57;1.04;370.27;142.31;42.00;1.04;-92.64;-71.71;8.32 
4.086;-1.03;0.02;-0.22;-0.42;3.41;1.67;370.27;145.17;41.00;1.05;-92.66;-71.56;8.29 
4.115;-1.06;0.01;-0.23;-0.42;2.37;1.11;375.22;143.26;41.00;1.08;-92.70;-71.39;8.30 
4.144;-1.05;0.02;-0.23;-0.49;2.43;1.32;373.24;140.40;42.00;1.08;-92.74;-71.28;8.28 
4.174;-1.02;0.02;-0.22;-0.70;3.41;0.90;369.28;140.40;43.00;1.04;-92.78;-71.14;8.27 
4.204;-1.02;0.02;-0.23;-0.77;2.57;0.70;371.26;138.49;42.00;1.05;-92.80;-71.00;8.25 
4.234;-1.02;0.02;-0.22;-1.11;2.02;0.70;370.27;143.26;45.00;1.04;-92.85;-70.88;8.24 
4.265;-1.02;0.01;-0.22;-0.42;3.55;1.25;371.26;140.40;40.00;1.04;-92.87;-70.79;8.21 
4.295;-1.02;0.04;-0.25;-0.21;2.57;1.18;375.22;140.40;41.00;1.05;-92.91;-70.66;8.19 
4.325;-1.02;0.02;-0.24;0.42;1.39;-0.07;372.25;139.44;40.00;1.05;-92.95;-70.57;8.16 
4.355;-1.02;0.02;-0.22;0.00;1.67;0.28;372.25;139.44;41.00;1.04;-92.97;-70.48;8.11 
4.384;-1.02;0.02;-0.23;-0.42;1.53;0.83;375.22;141.35;45.00;1.05;-93.00;-70.41;8.07 
4.413;-1.02;0.04;-0.23;-0.42;0.77;0.70;372.25;142.31;44.00;1.05;-93.05;-70.34;8.05 
4.443;-1.01;0.00;-0.23;-0.49;0.77;0.70;373.24;139.44;42.00;1.04;-93.08;-70.32;8.00 
4.473;-1.02;0.02;-0.24;-0.77;0.97;0.35;374.23;139.44;37.00;1.05;-93.12;-70.29;7.96 
4.503;-1.04;0.03;-0.24;-0.49;1.11;-0.14;372.25;138.49;44.00;1.07;-93.15;-70.26;7.90 
4.533;-1.03;0.03;-0.22;0.00;2.50;0.00;376.21;140.40;43.00;1.05;-93.16;-70.25;7.84 
4.564;-1.02;0.02;-0.25;-0.42;2.50;0.28;371.26;141.35;44.00;1.05;-93.16;-70.17;7.76 
4.593;-1.02;0.03;-0.26;-0.56;0.83;0.21;373.24;140.40;44.00;1.05;-93.16;-70.11;7.70 
4.623;-1.03;0.02;-0.22;-0.35;0.77;-0.35;374.23;140.40;40.00;1.05;-93.19;-70.10;7.64 
4.653;-1.02;0.02;-0.22;-0.35;2.30;0.00;375.22;138.49;44.00;1.04;-93.21;-70.08;7.58 
4.683;-1.02;0.00;-0.24;-0.63;1.88;0.00;373.24;140.40;43.00;1.05;-93.21;-70.04;7.51 
4.713;-1.02;0.02;-0.23;-0.90;1.04;0.14;374.23;137.53;46.00;1.05;-93.24;-69.99;7.46 
4.743;-1.03;0.04;-0.23;-0.49;0.70;0.77;370.27;142.31;44.00;1.06;-93.25;-69.99;7.39 
4.774;-1.02;0.03;-0.23;-0.49;1.88;1.04;371.26;140.40;46.00;1.05;-93.36;-69.86;7.43 
4.804;-1.01;0.01;-0.26;0.00;2.71;0.14;375.22;140.40;40.00;1.04;-93.39;-69.78;7.39 
4.834;-1.00;0.02;-0.26;-0.97;-0.07;0.21;372.25;138.49;43.00;1.03;-93.40;-69.73;7.33 
4.865;-1.02;0.02;-0.21;-1.32;-0.56;-0.28;368.29;140.40;43.00;1.04;-93.44;-69.77;7.28 
4.894;-1.02;0.03;-0.22;-0.35;3.20;-0.21;373.24;137.53;42.00;1.04;-93.46;-69.81;7.22 
4.923;-1.00;0.02;-0.23;0.28;4.31;0.00;374.23;139.44;46.00;1.03;-93.45;-69.73;7.14 
4.953;-1.02;0.05;-0.29;0.21;2.78;-0.14;374.23;140.40;44.00;1.06;-93.46;-69.66;7.07 
4.983;-1.02;0.03;-0.26;-0.42;1.11;0.28;375.22;139.44;46.00;1.05;-93.46;-69.61;7.01 
5.013;-1.04;0.05;-0.22;-0.56;0.77;0.00;377.20;137.53;44.00;1.06;-93.49;-69.61;6.95 
5.043;-1.02;0.03;-0.20;-0.97;2.57;0.42;372.25;142.31;45.00;1.04;-93.51;-69.60;6.90 
5.074;-1.02;0.03;-0.26;-0.77;2.30;-0.28;375.22;139.44;46.00;1.05;-93.53;-69.58;6.84 
5.103;-1.01;0.03;-0.25;-0.28;1.81;0.42;372.25;136.58;44.00;1.04;-93.54;-69.55;6.79 
5.132;-1.02;0.04;-0.26;0.35;2.43;0.07;374.23;138.49;45.00;1.05;-93.57;-69.54;6.73 
5.163;-1.05;0.05;-0.26;0.14;2.85;-0.63;374.23;140.40;43.00;1.08;-93.58;-69.50;6.67 
5.193;-1.02;0.03;-0.26;-0.42;2.37;-0.83;374.23;143.26;44.00;1.05;-93.57;-69.47;6.58 
5.223;-1.02;0.04;-0.26;-0.35;1.60;0.21;375.22;137.53;43.00;1.05;-93.58;-69.47;6.52 
5.253;-1.03;0.04;-0.26;-0.28;1.46;0.14;375.22;138.49;44.00;1.06;-93.61;-69.47;6.46 
5.283;-1.02;0.02;-0.24;-0.21;1.53;0.14;375.22;138.49;46.00;1.05;-93.61;-69.47;6.39 
5.313;-1.00;0.03;-0.24;-0.49;2.43;-0.07;370.27;138.49;47.00;1.03;-93.62;-69.49;6.31 
5.343;-1.05;0.04;-0.25;-0.35;2.50;-0.35;374.23;140.40;45.00;1.08;-93.63;-69.48;6.25 
5.374;-1.03;0.03;-0.24;-0.21;2.43;-0.49;373.24;139.44;48.00;1.06;-93.64;-69.45;6.19 
5.404;-1.02;0.02;-0.26;-0.28;2.50;-0.28;372.25;139.44;44.00;1.05;-93.64;-69.44;6.12 
5.434;-1.02;0.03;-0.22;-1.18;1.74;-0.49;371.26;139.44;46.00;1.04;-93.65;-69.44;6.06 
5.463;-1.02;0.06;-0.23;-0.63;2.85;-0.97;371.26;138.49;49.00;1.05;-93.68;-69.42;6.02 
5.493;-1.01;0.01;-0.25;0.14;3.62;-0.70;374.23;139.44;47.00;1.04;-93.66;-69.39;5.94 
5.523;-1.02;0.04;-0.26;0.70;2.64;-0.63;372.25;139.44;49.00;1.05;-93.66;-69.36;5.86 
5.553;-1.02;0.04;-0.26;-0.07;2.43;-0.56;372.25;139.44;50.00;1.05;-93.65;-69.33;5.78 
5.583;-1.02;0.00;-0.27;-0.56;1.11;-0.28;373.24;139.44;50.00;1.06;-93.67;-69.33;5.73 
5.613;-1.02;0.02;-0.26;-0.77;0.21;0.77;371.26;138.49;51.00;1.05;-93.69;-69.37;5.67 
5.643;-1.02;0.06;-0.24;-0.63;0.56;0.14;374.23;136.58;46.00;1.05;-93.73;-69.42;5.64 
5.674;-1.02;0.05;-0.26;-0.42;1.53;-0.28;374.23;138.49;49.00;1.05;-93.76;-69.44;5.59 
5.703;-1.02;0.02;-0.26;-0.77;1.11;0.42;369.28;138.49;50.00;1.05;-93.80;-69.47;5.55 
5.732;-1.02;0.05;-0.25;-0.70;1.39;0.49;367.30;139.44;47.00;1.05;-93.83;-69.50;5.52 
5.763;-1.02;0.06;-0.26;-0.42;1.32;-0.42;371.26;139.44;49.00;1.05;-93.86;-69.52;5.48 
5.793;-1.02;0.02;-0.25;0.00;1.46;-1.04;377.20;135.62;49.00;1.05;-93.87;-69.57;5.41 
5.823;-1.02;0.02;-0.25;-0.35;2.16;-0.77;372.25;138.49;50.00;1.05;-93.84;-69.59;5.31 
5.853;-1.02;0.00;-0.26;-0.63;1.46;0.07;372.25;139.44;50.00;1.05;-93.84;-69.60;5.25 
5.884;-1.02;0.03;-0.25;-0.70;1.46;0.56;374.23;137.53;51.00;1.05;-93.86;-69.63;5.20 
5.914;-1.01;0.02;-0.26;-0.56;1.95;-0.07;374.23;136.58;49.00;1.04;-93.88;-69.63;5.15 
5.944;-1.02;0.03;-0.25;-0.35;1.60;-0.49;374.23;138.49;47.00;1.05;-93.89;-69.65;5.10 
5.975;-1.03;0.02;-0.23;-0.14;1.39;-0.56;372.25;138.49;50.00;1.06;-93.89;-69.69;5.02 
6.005;-1.02;0.02;-0.25;-0.21;2.71;-1.18;374.23;139.44;51.00;1.05;-93.88;-69.73;4.95 
6.035;-1.02;0.02;-0.25;-0.21;1.95;-0.21;374.23;137.53;50.00;1.05;-93.89;-69.77;4.88 
6.064;-1.02;0.09;-0.24;-1.04;1.11;0.70;370.27;140.40;47.00;1.05;-93.91;-69.79;4.84 
6.094;-1.02;0.06;-0.24;-0.77;1.67;0.14;371.26;137.53;46.00;1.05;-93.94;-69.86;4.82 
6.124;-1.00;0.02;-0.25;0.07;2.92;-0.07;367.30;138.49;52.00;1.03;-93.97;-69.86;4.79 
6.154;-1.01;0.02;-0.26;0.21;2.78;-0.07;372.25;138.49;50.00;1.04;-93.97;-69.84;4.72 
6.185;-1.02;0.01;-0.25;-0.56;1.11;0.35;373.24;137.53;50.00;1.05;-94.01;-69.78;4.69 
6.215;-1.02;0.02;-0.26;-1.04;-1.11;0.49;369.28;138.49;50.00;1.05;-94.04;-69.84;4.66 
6.245;-1.01;0.02;-0.23;-0.90;-0.49;0.35;374.23;138.49;52.00;1.04;-94.08;-69.95;4.65 
6.275;-1.01;0.04;-0.25;-0.35;2.30;-0.56;371.26;137.53;51.00;1.04;-94.10;-70.03;4.60 
6.305;-1.03;0.03;-0.23;-0.14;3.13;-0.42;369.28;136.58;47.00;1.06;-94.08;-70.05;4.52 
6.335;-1.01;0.03;-0.24;-0.42;1.18;0.21;373.24;138.49;53.00;1.04;-94.09;-70.05;4.48 
6.365;-1.02;0.03;-0.26;-0.83;0.77;0.21;373.24;138.49;54.00;1.05;-94.11;-70.12;4.44 
6.396;-1.05;0.03;-0.25;-0.56;1.81;-0.14;372.25;137.53;53.00;1.08;-94.13;-70.17;4.40 
6.426;-1.01;0.02;-0.27;-0.28;0.90;-0.21;374.23;135.62;52.00;1.05;-94.12;-70.21;4.34 
6.455;-1.02;0.02;-0.26;-0.21;0.35;-0.21;372.25;138.49;51.00;1.05;-94.13;-70.30;4.29 
6.485;-1.02;0.02;-0.27;-0.21;0.56;0.00;372.25;136.58;51.00;1.06;-94.13;-70.38;4.24 
6.515;-1.05;0.03;-0.26;-0.49;-0.28;0.63;376.21;139.44;49.00;1.08;-94.16;-70.44;4.21 
6.545;-1.02;0.03;-0.26;-0.21;-0.14;-0.14;375.22;137.53;50.00;1.05;-94.18;-70.54;4.18 
6.575;-1.02;0.02;-0.25;0.21;0.42;-0.28;375.22;134.67;52.00;1.05;-94.17;-70.63;4.11 
6.605;-1.03;0.03;-0.22;-0.42;0.49;0.00;374.23;141.35;52.00;1.05;-94.17;-70.72;4.06 
6.635;-1.02;0.02;-0.24;-0.42;0.56;0.28;371.26;141.35;48.00;1.05;-94.18;-70.79;4.02 
6.664;-1.03;0.04;-0.26;-0.35;0.77;0.49;372.25;137.53;52.00;1.06;-94.20;-70.85;3.99 
6.694;-1.02;0.04;-0.26;-1.04;0.42;0.49;373.24;137.53;48.00;1.05;-94.22;-70.93;3.96 
6.724;-1.02;0.02;-0.26;-0.35;1.32;-0.14;376.21;137.53;52.00;1.05;-94.24;-71.01;3.93 
6.754;-1.02;0.02;-0.26;0.21;2.30;0.35;373.24;136.58;47.00;1.05;-94.25;-71.04;3.89 
6.785;-1.02;0.02;-0.29;0.14;1.32;0.14;376.21;137.53;49.00;1.06;-94.27;-71.04;3.87 
6.815;-1.01;0.00;-0.26;-0.83;-0.35;-0.14;369.28;137.53;49.00;1.04;-94.29;-71.10;3.83 
6.845;-1.03;0.03;-0.26;-0.83;-1.32;0.49;376.21;139.44;51.00;1.06;-94.29;-71.21;3.79 
6.875;-1.04;0.04;-0.25;-0.35;-0.35;0.42;372.25;139.44;48.00;1.07;-94.32;-71.35;3.78 
6.905;-1.02;0.02;-0.28;0.49;1.18;-0.14;371.26;137.53;48.00;1.06;-94.32;-71.43;3.73 
6.935;-1.01;0.03;-0.26;-0.14;0.42;0.07;374.23;137.53;49.00;1.04;-94.32;-71.49;3.68 
6.965;-1.03;0.03;-0.26;-0.83;-0.14;0.28;370.27;136.58;49.00;1.06;-94.33;-71.58;3.65 
6.995;-1.02;0.01;-0.25;-0.83;1.46;-0.35;372.25;139.44;51.00;1.05;-94.34;-71.68;3.63 
7.025;-1.02;0.03;-0.22;0.28;3.41;-0.77;372.25;137.53;49.00;1.04;-94.34;-71.70;3.58 
7.055;-1.02;0.06;-0.27;0.35;2.99;-0.49;373.24;138.49;50.00;1.06;-94.32;-71.67;3.52 
7.085;-1.02;0.02;-0.26;-0.77;1.81;-0.07;374.23;137.53;53.00;1.05;-94.32;-71.70;3.47 
7.115;-1.02;0.02;-0.25;-0.90;2.02;0.07;373.24;138.49;50.00;1.05;-94.33;-71.74;3.45 
7.145;-1.02;0.02;-0.26;-0.42;2.43;-0.28;372.25;137.53;48.00;1.05;-94.34;-71.79;3.42 
7.175;-1.02;0.03;-0.26;-0.49;2.43;-0.21;373.24;136.58;53.00;1.05;-94.34;-71.82;3.39 
7.206;-1.02;0.02;-0.26;-0.42;1.67;0.14;372.25;140.40;50.00;1.05;-94.35;-71.86;3.36 
7.235;-1.03;0.05;-0.26;-0.83;1.46;0.49;370.27;139.44;49.00;1.06;-94.35;-71.91;3.33 
7.264;-1.02;0.06;-0.26;-0.49;1.32;-0.35;374.23;137.53;52.00;1.05;-94.35;-71.95;3.30 
7.295;-1.02;0.05;-0.24;-0.77;0.83;-0.28;373.24;140.40;50.00;1.05;-94.36;-72.01;3.27 
7.325;-1.02;0.02;-0.23;-0.28;2.30;-0.83;371.26;139.44;51.00;1.05;-94.36;-72.07;3.24 
7.355;-1.02;0.02;-0.26;0.49;4.10;-1.18;374.23;136.58;52.00;1.05;-94.34;-72.07;3.18 
7.385;-1.02;0.03;-0.32;0.42;2.43;0.00;373.24;135.62;50.00;1.07;-94.34;-72.09;3.14 
7.415;-1.01;0.02;-0.28;-0.49;1.32;-0.14;372.25;139.44;53.00;1.05;-94.33;-72.11;3.09 
7.445;-1.02;0.06;-0.26;-0.97;0.70;0.49;371.26;137.53;54.00;1.05;-94.35;-72.13;3.08 
7.475;-1.02;0.05;-0.24;-1.11;-0.21;0.42;375.22;139.44;51.00;1.05;-94.38;-72.21;3.08 
7.506;-1.02;0.03;-0.23;-0.49;1.25;-0.63;373.24;138.49;51.00;1.05;-94.40;-72.30;3.07 
7.536;-1.02;0.02;-0.26;-0.49;1.88;-0.14;375.22;137.53;52.00;1.05;-94.37;-72.37;3.02 
7.566;-1.02;0.02;-0.26;-0.56;0.97;0.07;373.24;138.49;54.00;1.05;-94.37;-72.43;2.98 
7.597;-1.02;0.02;-0.22;-0.21;2.16;-0.07;372.25;136.58;53.00;1.04;-94.38;-72.51;2.96 
7.627;-1.02;0.03;-0.26;0.07;2.50;-0.49;372.25;136.58;55.00;1.05;-94.40;-72.54;2.94 
7.656;-1.02;0.01;-0.28;0.21;1.88;-0.70;369.28;138.49;51.00;1.06;-94.38;-72.58;2.89 
7.685;-1.02;0.01;-0.27;-0.28;1.11;0.07;374.23;138.49;53.00;1.06;-94.38;-72.59;2.86 
7.715;-1.02;0.02;-0.25;-0.49;0.90;0.90;371.26;140.40;50.00;1.05;-94.42;-72.59;2.87 
7.745;-1.02;0.02;-0.27;-0.70;0.63;0.56;373.24;140.40;51.00;1.06;-94.43;-72.67;2.86 
7.775;-1.02;0.02;-0.27;-0.49;1.04;0.28;366.31;137.53;53.00;1.06;-94.45;-72.74;2.85 
7.806;-1.02;0.02;-0.28;-0.42;0.83;0.49;371.26;139.44;51.00;1.06;-94.45;-72.84;2.83 
7.836;-1.02;0.02;-0.25;-0.63;0.70;0.21;374.23;138.49;52.00;1.05;-94.47;-72.90;2.82 
7.866;-1.04;0.02;-0.26;-0.35;0.70;-0.07;374.23;140.40;53.00;1.07;-94.48;-72.98;2.81 
7.896;-1.03;0.06;-0.25;-0.14;0.83;0.28;373.24;137.53;48.00;1.06;-94.49;-73.05;2.80 
7.926;-1.00;0.02;-0.25;-0.49;1.11;-0.21;372.25;136.58;53.00;1.03;-94.49;-73.12;2.77 
7.956;-1.02;0.04;-0.24;-0.77;0.21;-0.21;375.22;138.49;52.00;1.05;-94.48;-73.19;2.75 
7.986;-1.02;0.02;-0.25;-0.21;1.25;0.07;372.25;137.53;49.00;1.05;-94.47;-73.29;2.72 
8.017;-1.02;0.02;-0.24;0.07;2.02;0.83;369.28;139.44;48.00;1.05;-94.48;-73.34;2.70 
8.047;-1.02;0.03;-0.27;-0.14;0.90;-0.14;371.26;136.58;53.00;1.06;-94.50;-73.39;2.70 
8.076;-1.02;0.01;-0.30;-0.49;0.28;0.14;374.23;136.58;51.00;1.06;-94.49;-73.44;2.66 
8.107;-1.01;0.02;-0.27;-1.04;-0.70;0.83;371.26;135.62;53.00;1.05;-94.50;-73.51;2.65 
8.137;-1.02;0.03;-0.22;-0.35;0.07;0.35;374.23;137.53;52.00;1.04;-94.51;-73.62;2.65 
8.167;-1.02;0.02;-0.24;-0.42;1.60;0.28;374.23;135.62;54.00;1.05;-94.52;-73.70;2.64 
8.197;-1.05;0.04;-0.23;-0.83;1.18;0.83;374.23;139.44;49.00;1.08;-94.53;-73.73;2.63 
8.227;-1.02;0.02;-0.29;-0.56;0.97;0.56;371.26;133.71;52.00;1.06;-94.55;-73.80;2.64 
8.257;-1.02;0.03;-0.24;-0.28;1.67;0.21;373.24;137.53;50.00;1.05;-94.57;-73.86;2.64 
8.286;-1.02;0.03;-0.27;-0.35;1.74;0.35;374.23;139.44;53.00;1.06;-94.59;-73.89;2.63 
8.316;-1.01;0.05;-0.26;-0.56;1.39;0.00;373.24;137.53;53.00;1.04;-94.60;-73.92;2.62 
8.346;-1.01;0.02;-0.28;-0.63;1.04;0.35;375.22;136.58;57.00;1.05;-94.60;-73.97;2.61 
8.376;-1.02;0.02;-0.25;-1.11;0.14;0.83;375.22;137.53;55.00;1.05;-94.63;-74.02;2.62 
8.407;-1.01;0.04;-0.26;-0.77;0.35;0.21;375.22;134.67;55.00;1.04;-94.66;-74.10;2.63 
8.437;-1.02;0.05;-0.25;-0.14;0.63;-0.56;376.21;139.44;49.00;1.05;-94.66;-74.18;2.62 
8.467;-1.04;0.04;-0.26;0.21;0.90;-0.97;372.25;136.58;52.00;1.07;-94.63;-74.26;2.58 
8.497;-1.02;0.02;-0.24;-0.14;2.02;-0.90;374.23;137.53;51.00;1.05;-94.63;-74.34;2.57 
8.527;-1.02;0.02;-0.27;-0.42;2.78;-0.14;373.24;133.71;52.00;1.06;-94.62;-74.36;2.54 
8.557;-1.02;0.02;-0.30;0.21;1.74;-0.28;375.22;139.44;54.00;1.06;-94.61;-74.37;2.51 
8.587;-1.02;0.06;-0.24;-0.77;1.60;-0.07;372.25;136.58;48.00;1.05;-94.63;-74.41;2.51 
8.618;-1.03;0.03;-0.25;-0.42;2.78;-1.04;369.28;136.58;48.00;1.06;-94.61;-74.47;2.48 
8.648;-1.02;0.00;-0.25;0.21;3.13;0.07;372.25;138.49;54.00;1.05;-94.61;-74.45;2.46 
8.678;-1.03;0.02;-0.30;-0.14;1.53;0.28;374.23;138.49;51.00;1.07;-94.62;-74.46;2.44 
8.708;-1.01;0.02;-0.25;-0.28;1.39;-0.07;376.21;137.53;55.00;1.04;-94.62;-74.49;2.43 
8.738;-1.02;0.02;-0.28;-0.77;0.42;0.83;370.27;140.40;53.00;1.06;-94.64;-74.53;2.43 
8.768;-1.02;0.03;-0.25;-0.83;-0.63;0.35;373.24;135.62;51.00;1.05;-94.66;-74.61;2.45 
8.798;-1.02;0.00;-0.30;-0.14;1.39;-0.14;375.22;138.49;51.00;1.06;-94.65;-74.69;2.44 
8.829;-1.02;0.02;-0.26;-0.42;1.74;0.42;374.23;136.58;58.00;1.05;-94.67;-74.73;2.44 
8.859;-1.00;0.04;-0.27;-0.56;0.97;-0.49;376.21;134.67;53.00;1.04;-94.68;-74.76;2.44 
8.889;-1.02;0.05;-0.25;-0.28;1.74;-0.56;375.22;136.58;55.00;1.05;-94.69;-74.81;2.45 
8.919;-1.04;0.02;-0.26;-0.21;2.43;-0.42;374.23;138.49;52.00;1.07;-94.68;-74.84;2.42 
8.949;-1.01;0.02;-0.27;-0.35;1.88;-0.35;374.23;136.58;52.00;1.05;-94.66;-74.86;2.39 
8.979;-1.02;0.02;-0.23;-0.63;1.53;0.21;373.24;139.44;54.00;1.05;-94.66;-74.88;2.38 
9.009;-1.02;0.02;-0.23;-0.35;1.74;-0.07;371.26;134.67;54.00;1.05;-94.64;-74.92;2.34 
9.039;-1.03;0.03;-0.26;-0.21;1.74;0.14;370.27;135.62;53.00;1.06;-94.63;-74.95;2.32 
9.069;-1.01;0.00;-0.26;-0.70;1.95;0.28;373.24;136.58;53.00;1.04;-94.63;-74.98;2.31 
9.099;-1.02;0.01;-0.24;-0.21;1.81;0.35;373.24;136.58;53.00;1.05;-94.63;-75.01;2.30 
9.130;-1.02;0.03;-0.26;-0.28;2.16;0.35;371.26;135.62;53.00;1.05;-94.65;-75.01;2.30 
9.160;-1.02;0.02;-0.26;-0.70;2.16;0.28;375.22;136.58;57.00;1.05;-94.66;-75.01;2.30 
9.190;-1.02;0.05;-0.27;-0.97;2.09;0.42;373.24;136.58;53.00;1.06;-94.67;-75.03;2.30 
9.220;-1.02;0.03;-0.27;-0.90;1.46;0.49;376.21;135.62;53.00;1.06;-94.69;-75.04;2.31 
9.250;-1.02;0.03;-0.28;-0.42;1.53;0.56;374.23;137.53;56.00;1.06;-94.70;-75.08;2.31 
9.280;-1.03;0.05;-0.26;-0.70;2.16;0.14;373.24;137.53;55.00;1.06;-94.72;-75.11;2.33 
9.309;-1.02;0.06;-0.26;-0.21;1.81;-0.07;373.24;135.62;55.00;1.05;-94.73;-75.13;2.33 
9.340;-1.02;0.03;-0.26;0.14;1.95;-0.42;374.23;135.62;55.00;1.05;-94.72;-75.17;2.30 
9.370;-1.00;0.02;-0.26;-0.28;2.30;-0.70;375.22;137.53;53.00;1.03;-94.71;-75.18;2.27 
9.400;-1.02;0.02;-0.27;-0.56;3.27;-0.77;375.22;136.58;59.00;1.06;-94.67;-75.18;2.22 
9.431;-1.02;0.05;-0.26;-0.83;1.88;0.07;376.21;136.58;55.00;1.05;-94.69;-75.17;2.23 
9.461;-1.03;0.05;-0.25;-0.35;1.60;-0.07;373.24;135.62;53.00;1.06;-94.71;-75.20;2.24 
9.491;-1.02;0.02;-0.26;-0.14;2.43;-0.35;372.25;136.58;52.00;1.05;-94.72;-75.24;2.24 
9.521;-1.02;0.02;-0.29;-0.49;1.53;-0.56;372.25;136.58;59.00;1.06;-94.74;-75.25;2.26 
9.550;-1.02;0.04;-0.26;-0.63;0.90;-0.77;371.26;138.49;52.00;1.05;-94.74;-75.28;2.26 
9.579;-1.02;0.02;-0.27;-0.42;2.09;-0.28;373.24;137.53;55.00;1.06;-94.74;-75.31;2.25 
9.608;-1.02;0.02;-0.26;-0.21;1.95;-0.63;374.23;135.62;58.00;1.05;-94.72;-75.34;2.22 
9.639;-1.02;0.02;-0.26;-0.42;1.67;-0.35;377.20;135.62;56.00;1.05;-94.70;-75.37;2.19 
9.669;-1.02;0.04;-0.23;-0.28;1.39;0.00;374.23;135.62;56.00;1.05;-94.70;-75.41;2.18 
9.699;-1.02;0.02;-0.27;-0.42;0.83;-0.49;371.26;135.62;55.00;1.06;-94.69;-75.46;2.18 
9.730;-1.02;0.02;-0.26;-0.28;1.95;-0.42;372.25;138.49;57.00;1.05;-94.69;-75.50;2.17 
9.760;-1.04;0.02;-0.27;-0.56;1.18;0.63;372.25;136.58;58.00;1.07;-94.69;-75.55;2.16 
9.789;-1.01;0.07;-0.29;-0.77;0.77;0.49;370.27;134.67;57.00;1.05;-94.69;-75.57;2.16 
9.818;-1.03;0.04;-0.29;0.14;1.46;-0.35;375.22;135.62;55.00;1.07;-94.71;-75.61;2.18 
9.848;-1.02;0.01;-0.28;0.00;1.25;-0.63;372.25;138.49;57.00;1.06;-94.70;-75.64;2.16 
9.878;-1.05;0.02;-0.31;-0.49;-0.77;-0.56;372.25;136.58;57.00;1.09;-94.68;-75.69;2.14 
9.908;-1.06;0.04;-0.31;0.07;-3.69;-0.35;370.27;136.58;57.00;1.11;-94.65;-75.81;2.11 
9.939;-1.02;0.02;-0.29;1.11;-8.00;-0.70;372.25;137.53;57.00;1.06;-94.59;-76.02;2.06 
