Time(s) acc_x(g) acc_y(g) acc_z(g) gyr_x(°/s) gyr_y(°/s) gyr_z(°/s) mag_x(G) mag_y(G) mag_z(G) SVM(g) yaw(°) pitch(°) roll(°)
0.000;-0.19;0.13;0.88;-0.42;2.64;0.49;366.31;-71.63;-371.00;0.91;-119.82;-11.98;8.11 
0.031;-0.19;0.06;0.86;-0.35;2.30;0.28;359.38;-72.59;-369.00;0.88;-119.85;-12.04;8.12 
0.061;-0.17;0.10;0.87;-0.28;2.16;0.21;365.32;-71.63;-374.00;0.89;-119.88;-12.09;8.13 
0.090;-0.18;0.11;0.89;-0.49;2.57;-0.14;366.31;-72.59;-371.00;0.91;-119.90;-12.13;8.14 
0.119;-0.19;0.10;0.87;-0.42;2.71;0.21;367.30;-72.59;-370.00;0.90;-119.93;-12.20;8.15 
0.148;-0.19;0.10;0.89;-0.70;2.09;0.00;364.33;-69.72;-371.00;0.92;-119.96;-12.27;8.16 
0.178;-0.18;0.12;0.86;-0.97;1.67;0.49;364.33;-73.54;-373.00;0.89;-119.98;-12.32;8.16 
0.208;-0.18;0.13;0.86;-0.90;1.39;-0.14;364.33;-70.68;-374.00;0.89;-120.02;-12.34;8.16 
0.238;-0.18;0.10;0.86;-0.70;2.09;-0.42;365.32;-71.63;-371.00;0.88;-120.02;-12.37;8.14 
0.268;-0.20;0.08;0.89;-0.35;2.37;-0.70;367.30;-72.59;-370.00;0.92;-120.03;-12.41;8.14 
0.298;-0.18;0.09;0.90;-0.49;1.74;-0.35;366.31;-72.59;-371.00;0.92;-120.03;-12.47;8.13 
0.329;-0.21;0.10;0.88;-0.70;2.09;-0.21;367.30;-72.59;-370.00;0.91;-120.04;-12.52;8.12 
0.359;-0.20;0.11;0.90;-0.70;3.06;-0.35;364.33;-69.72;-371.00;0.93;-120.05;-12.58;8.08 
0.389;-0.21;0.09;0.87;-1.11;3.62;-0.28;365.32;-69.72;-376.00;0.90;-120.06;-12.68;8.04 
0.419;-0.20;0.10;0.85;-1.11;3.20;0.07;366.31;-68.77;-372.00;0.88;-120.07;-12.77;8.00 
0.449;-0.22;0.09;0.88;-0.90;0.56;-0.07;366.31;-70.68;-371.00;0.91;-120.09;-12.85;8.00 
0.479;-0.21;0.12;0.86;0.00;0.14;-0.07;367.30;-68.77;-368.00;0.89;-120.09;-12.87;7.99 
0.509;-0.20;0.10;0.91;-0.14;2.71;-0.35;364.33;-66.86;-371.00;0.94;-120.10;-12.90;8.01 
0.539;-0.22;0.08;0.84;-0.63;2.71;-0.35;363.34;-71.63;-368.00;0.87;-120.10;-12.99;8.01 
0.568;-0.21;0.12;0.86;-0.63;-0.28;0.07;364.33;-65.90;-371.00;0.89;-120.12;-13.04;7.99 
0.597;-0.21;0.10;0.87;-0.49;-1.32;0.35;366.31;-69.72;-370.00;0.90;-120.14;-13.00;7.97 
0.627;-0.18;0.10;0.88;0.00;-0.63;0.14;365.32;-69.72;-368.00;0.90;-120.16;-12.97;7.97 
0.657;-0.18;0.10;0.88;-0.56;1.74;0.21;366.31;-69.72;-370.00;0.90;-120.18;-12.96;7.97 
0.687;-0.20;0.10;0.87;-0.70;2.71;-0.42;366.31;-71.63;-371.00;0.90;-120.19;-13.02;7.99 
0.717;-0.22;0.11;0.87;-0.14;1.95;-0.28;365.32;-67.81;-367.00;0.90;-120.20;-13.10;8.02 
0.747;-0.21;0.09;0.84;-0.07;0.07;-0.35;367.30;-66.86;-368.00;0.87;-120.19;-13.13;8.02 
0.777;-0.19;0.10;0.89;-0.21;-0.28;-0.28;366.31;-66.86;-370.00;0.92;-120.20;-13.12;8.03 
0.807;-0.21;0.11;0.92;0.00;0.42;0.07;365.32;-68.77;-368.00;0.95;-120.21;-13.12;8.04 
0.838;-0.18;0.11;0.87;0.49;0.97;0.14;367.30;-68.77;-373.00;0.90;-120.24;-13.10;8.05 
0.868;-0.19;0.06;0.87;1.74;2.02;0.00;364.33;-69.72;-370.00;0.89;-120.26;-13.12;8.10 
0.898;-0.18;0.09;0.89;1.95;1.04;0.70;365.32;-69.72;-373.00;0.91;-120.28;-13.15;8.18 
0.929;-0.20;0.14;0.82;2.85;-0.07;0.77;369.28;-70.68;-369.00;0.86;-120.33;-13.18;8.29 
0.959;-0.15;0.10;0.83;4.31;-2.71;0.83;367.30;-68.77;-369.00;0.85;-120.37;-13.09;8.42 
0.989;-0.17;0.10;0.89;3.34;-5.91;2.16;372.25;-68.77;-371.00;0.91;-120.43;-12.90;8.54 
1.019;-0.14;0.11;0.96;0.77;-3.90;3.55;368.29;-71.63;-368.00;0.98;-120.53;-12.67;8.64 
1.049;-0.14;0.12;0.94;-2.02;3.62;3.41;371.26;-73.54;-366.00;0.96;-120.65;-12.55;8.66 
1.079;-0.14;0.12;0.92;-3.13;8.21;1.46;372.25;-71.63;-370.00;0.94;-120.74;-12.65;8.61 
1.109;-0.18;0.12;0.87;-1.46;8.42;0.56;366.31;-71.63;-371.00;0.90;-120.79;-12.85;8.55 
1.140;-0.18;0.11;0.84;0.07;7.03;0.56;370.27;-72.59;-367.00;0.87;-120.82;-13.07;8.55 
1.169;-0.18;0.12;0.88;-0.14;6.40;0.83;368.29;-71.63;-366.00;0.91;-120.86;-13.24;8.59 
1.198;-0.15;0.14;0.89;-0.97;6.26;-0.21;369.28;-69.72;-370.00;0.91;-120.89;-13.36;8.60 
1.227;-0.15;0.10;0.90;-1.11;7.79;-0.77;368.29;-66.86;-368.00;0.92;-120.89;-13.51;8.58 
1.256;-0.14;0.13;0.86;-0.42;9.60;-1.18;370.27;-65.90;-369.00;0.88;-120.89;-13.70;8.57 
1.285;-0.16;0.10;0.88;0.49;9.88;-0.42;368.29;-67.81;-366.00;0.90;-120.88;-13.93;8.59 
1.314;-0.15;0.11;0.88;-0.28;8.77;0.49;370.27;-63.03;-371.00;0.90;-120.90;-14.14;8.62 
1.343;-0.16;0.10;0.86;-1.39;8.28;1.46;370.27;-58.26;-367.00;0.88;-120.94;-14.34;8.61 
1.372;-0.14;0.10;0.86;-2.02;6.26;1.67;370.27;-63.03;-364.00;0.88;-121.00;-14.50;8.59 
1.401;-0.16;0.14;0.82;-2.23;4.03;1.60;370.27;-59.21;-365.00;0.85;-121.07;-14.57;8.58 
1.430;-0.14;0.13;0.82;-2.30;3.27;0.07;367.30;-61.12;-365.00;0.84;-121.12;-14.59;8.56 
1.460;-0.11;0.11;0.83;-4.03;2.64;-2.30;368.29;-61.12;-365.00;0.84;-121.11;-14.57;8.48 
1.490;-0.17;0.13;0.86;-5.91;5.63;-3.20;370.27;-62.08;-368.00;0.89;-121.04;-14.61;8.37 
1.521;-0.16;0.14;0.75;-7.23;8.35;-3.62;366.31;-56.35;-364.00;0.78;-120.97;-14.80;8.18 
1.551;-0.14;0.10;0.66;-8.97;0.63;-3.41;365.32;-58.26;-367.00;0.68;-120.88;-14.92;7.96 
1.581;-0.11;0.08;0.71;-12.66;-12.45;-3.41;364.33;-56.35;-364.00;0.72;-120.78;-14.71;7.63 
1.611;-0.10;0.11;0.76;-9.53;-14.68;-3.48;360.37;-61.12;-369.00;0.77;-120.72;-14.22;7.31 
1.640;-0.10;0.08;0.82;-2.43;-13.22;-3.97;359.38;-63.03;-367.00;0.83;-120.64;-13.69;7.12 
1.669;-0.10;0.10;0.81;-0.90;-9.67;-4.66;357.40;-63.03;-368.00;0.82;-120.55;-13.28;7.06 
1.698;-0.11;0.07;0.77;-0.70;-0.28;-5.29;359.38;-63.99;-369.00;0.78;-120.42;-13.06;7.04 
1.727;-0.12;0.05;0.66;2.09;7.10;-2.50;360.37;-61.12;-370.00;0.67;-120.30;-13.10;7.03 
1.756;-0.14;0.01;0.57;2.78;1.81;2.43;360.37;-61.12;-368.00;0.59;-120.28;-13.21;7.07 
1.786;-0.10;0.06;0.57;0.35;-6.54;5.01;362.35;-65.90;-366.00;0.58;-120.38;-13.12;7.14 
1.816;-0.04;0.10;0.56;0.35;-7.51;6.40;366.31;-67.81;-366.00;0.57;-120.57;-12.83;7.20 
1.846;-0.03;0.14;0.57;2.78;-11.13;3.97;362.35;-70.68;-369.00;0.59;-120.76;-12.43;7.38 
1.876;0.00;0.07;0.56;3.76;-14.54;2.30;365.32;-69.72;-369.00;0.56;-120.86;-12.01;7.55 
1.907;0.02;0.02;0.62;-3.97;-19.83;5.22;367.30;-74.50;-365.00;0.62;-120.96;-11.27;7.58 
1.937;0.10;0.02;0.76;-9.88;-17.04;11.48;366.31;-81.18;-368.00;0.77;-121.22;-10.39;7.36 
1.967;0.18;0.06;0.77;-4.24;-8.14;15.79;366.31;-84.05;-369.00;0.79;-121.65;-9.64;7.18 
1.997;0.09;0.06;0.86;1.04;0.49;10.02;367.30;-87.87;-369.00;0.87;-122.05;-9.18;7.21 
2.027;0.00;0.02;0.95;-0.56;17.32;13.22;369.28;-88.82;-367.00;0.95;-122.40;-9.12;7.27 
2.057;-0.10;0.00;1.04;-4.10;38.68;23.65;373.24;-85.96;-370.00;1.04;-122.92;-9.70;7.21 
2.087;-0.18;0.14;1.00;-8.49;67.34;20.45;375.22;-82.14;-366.00;1.03;-123.58;-11.04;7.19 
2.118;-0.31;0.26;0.86;-14.40;93.50;10.02;374.23;-79.27;-364.00;0.95;-124.02;-13.51;7.06 
2.148;-1.51;0.50;1.66;-26.23;60.38;-34.16;374.23;-55.39;-357.00;2.30;-123.84;-16.50;6.69 
2.178;-1.22;-0.07;3.82;-75.48;313.32;-80.35;363.34;-47.75;-355.00;4.01;-121.43;-18.91;4.46 
2.208;-1.03;-0.60;2.47;-24.28;85.98;-20.87;345.52;23.88;-332.00;2.74;-118.51;-28.72;1.69 
2.238;0.08;-0.28;1.14;19.27;258.50;-40.21;342.55;34.38;-328.00;1.18;-116.04;-35.66;1.73 
2.268;0.19;0.15;0.75;-45.01;177.74;26.85;343.54;91.69;-273.00;0.79;-114.30;-41.71;1.19 
2.298;-0.34;0.35;0.58;-38.89;171.69;-16.56;339.58;106.97;-252.00;0.76;-113.15;-46.72;0.83 
2.328;0.00;-0.02;0.46;-41.11;159.23;-35.83;333.64;126.07;-228.00;0.46;-110.75;-51.55;-0.28 
2.357;0.12;-0.25;0.45;-20.87;153.95;-18.16;325.72;142.31;-207.00;0.53;-108.03;-55.41;-1.78 
2.387;-0.18;-0.20;0.38;-12.17;166.82;-8.14;320.77;154.72;-182.00;0.47;-105.40;-59.89;-2.31 
2.418;-0.53;-0.05;0.39;-18.92;175.79;-10.71;312.85;168.09;-143.00;0.66;-102.31;-64.87;-2.83 
2.448;-0.62;0.02;0.43;-38.26;181.84;-13.08;312.85;174.78;-111.00;0.75;-98.71;-70.34;-3.47 
2.478;-0.61;0.11;0.37;-45.15;147.41;-5.29;310.87;181.46;-87.00;0.72;-95.55;-75.20;-3.88 
2.509;-0.50;0.07;0.46;-28.24;119.44;0.28;308.89;183.37;-60.00;0.68;-93.13;-78.88;-4.01 
2.539;-0.59;0.26;0.34;-18.71;145.39;-9.32;308.89;181.46;-37.00;0.73;-90.77;-82.24;-3.96 
2.569;-0.66;0.73;-0.13;-1.25;209.88;-17.25;306.91;181.46;-7.00;0.99;-87.47;-85.93;-3.78 
2.599;-0.50;1.05;-0.85;92.31;297.25;-68.59;302.95;176.69;37.00;1.44;-82.33;-82.74;-4.20 
2.630;-0.85;-0.78;-1.86;125.57;288.14;-157.22;262.35;164.27;134.00;2.19;-73.49;-71.59;-8.29 
2.659;-0.25;-1.73;-1.69;34.64;15.65;-23.72;237.60;154.72;161.00;2.43;-68.50;-64.94;-12.21 
2.689;-0.33;-1.69;-1.37;-16.00;-85.29;29.01;233.64;158.54;160.00;2.20;-68.03;-64.69;-13.17 
2.720;-0.68;-0.63;-1.11;-38.61;-171.90;128.83;254.43;158.54;140.00;1.45;-71.70;-68.90;-10.61 
2.750;-0.93;0.00;-0.59;-27.27;-175.51;86.54;282.15;166.18;84.00;1.10;-77.02;-74.87;-7.14 
2.780;-1.12;0.14;-0.24;-33.81;-126.26;59.62;300.97;167.14;58.00;1.15;-81.43;-79.86;-4.52 
2.810;-1.12;0.10;0.10;-44.03;-66.99;42.37;313.84;168.09;37.00;1.13;-84.54;-83.30;-2.66 
2.840;-1.12;0.04;0.00;-21.70;11.76;29.91;320.77;168.09;24.00;1.12;-86.28;-84.64;-1.30 
2.870;-1.13;-0.18;-0.38;2.23;49.46;24.83;332.65;160.45;31.00;1.21;-86.61;-83.68;-0.43 
2.900;-1.15;-0.35;-0.74;1.95;44.03;45.43;335.62;156.63;36.00;1.41;-86.62;-81.78;0.43 
2.931;-1.05;-0.26;-0.77;-12.66;-10.78;57.60;350.47;148.99;39.00;1.33;-87.63;-80.43;1.92 
2.960;-1.06;-0.11;-0.50;-22.40;-34.02;61.91;357.40;147.08;36.00;1.18;-89.46;-80.16;3.64 
2.990;-1.17;0.18;-0.28;-20.10;-22.61;50.99;368.29;140.40;28.00;1.22;-91.55;-79.92;5.43 
3.021;-1.28;0.42;-0.23;-20.66;21.50;25.74;377.20;134.67;20.00;1.37;-93.01;-78.95;6.96 
3.051;-1.30;0.37;-0.36;-9.81;35.41;-11.97;381.16;132.76;23.00;1.40;-92.99;-77.80;7.48 
3.081;-1.27;0.20;-0.40;5.43;34.37;-15.10;377.20;131.80;30.00;1.35;-92.17;-76.98;7.21 
3.111;-1.13;0.00;-0.48;12.17;36.94;-5.91;378.19;131.80;37.00;1.23;-91.30;-75.99;6.85 
3.142;-0.98;-0.07;-0.50;8.21;27.90;3.69;379.18;130.85;47.00;1.10;-90.63;-74.83;6.64 
3.172;-0.92;0.06;-0.50;-1.95;-1.95;8.97;376.21;131.80;45.00;1.05;-90.65;-74.11;6.83 
3.202;-1.01;0.17;-0.34;-5.57;-27.13;5.29;378.19;126.07;46.00;1.08;-91.11;-74.12;7.12 
3.233;-1.10;0.22;-0.12;0.21;-23.37;-3.41;376.21;128.94;40.00;1.13;-91.68;-74.66;7.30 
3.263;-1.08;0.12;-0.06;6.05;1.25;-10.71;380.17;131.80;34.00;1.09;-91.80;-75.06;7.15 
3.293;-1.02;0.03;-0.14;9.74;16.14;-13.84;373.24;131.80;38.00;1.03;-91.40;-74.97;6.74 
3.323;-1.04;0.02;-0.25;10.71;11.90;-12.03;373.24;133.71;46.00;1.07;-90.83;-74.64;6.25 
3.352;-1.04;0.02;-0.27;7.30;3.27;-8.21;372.25;132.76;45.00;1.07;-90.50;-74.41;5.90 
3.382;-1.06;-0.02;-0.26;1.81;2.30;-2.50;368.29;134.67;48.00;1.09;-90.31;-74.28;5.67 
3.412;-1.04;0.00;-0.25;-0.63;5.15;-0.90;368.29;137.53;47.00;1.07;-90.30;-74.05;5.64 
3.443;-1.04;0.02;-0.23;0.21;4.38;-2.50;372.25;134.67;49.00;1.07;-90.24;-73.79;5.59 
3.473;-1.02;0.02;-0.26;-0.56;3.20;-3.48;366.31;137.53;50.00;1.05;-90.18;-73.59;5.52 
3.503;-1.02;0.00;-0.30;-0.21;4.59;-2.43;367.30;135.62;48.00;1.06;-90.13;-73.38;5.46 
3.534;-1.00;0.01;-0.30;-0.77;4.10;-1.88;365.32;137.53;50.00;1.04;-90.01;-73.09;5.35 
3.564;-1.02;0.00;-0.31;-1.39;0.90;0.07;365.32;137.53;51.00;1.07;-90.05;-72.88;5.37 
3.593;-1.01;0.00;-0.30;-2.02;-0.21;1.60;365.32;138.49;46.00;1.05;-90.07;-72.77;5.35 
3.623;-1.02;0.02;-0.31;-0.70;1.53;1.04;365.32;136.58;49.00;1.07;-90.20;-72.60;5.43 
3.654;-0.99;0.04;-0.26;0.70;3.13;-0.42;366.31;133.71;48.00;1.02;-90.24;-72.43;5.43 
3.684;-1.02;0.00;-0.28;0.77;2.23;-0.77;366.31;136.58;53.00;1.06;-90.22;-72.25;5.36 
3.714;-1.02;0.01;-0.26;-0.21;-0.35;-0.28;369.28;133.71;51.00;1.05;-90.23;-72.10;5.32 
3.745;-1.03;0.03;-0.26;0.14;0.35;-0.49;366.31;136.58;53.00;1.06;-90.27;-72.04;5.27 
3.775;-1.02;0.00;-0.26;0.00;2.23;-0.21;367.30;138.49;52.00;1.05;-90.29;-71.91;5.23 
3.805;-1.02;0.04;-0.28;-0.90;2.30;0.56;365.32;132.76;52.00;1.06;-90.36;-71.72;5.26 
3.835;-1.02;0.03;-0.26;-0.28;2.09;0.21;367.30;136.58;52.00;1.05;-90.41;-71.60;5.25 
3.865;-1.02;0.03;-0.29;-0.49;3.34;-0.42;365.32;134.67;50.00;1.06;-90.45;-71.45;5.23 
3.895;-1.02;0.02;-0.30;-0.63;2.16;-0.42;366.31;138.49;47.00;1.06;-90.45;-71.32;5.18 
3.925;-1.02;0.00;-0.30;-0.07;0.97;-0.21;370.27;133.71;54.00;1.06;-90.48;-71.20;5.15 
3.956;-1.01;0.01;-0.32;-0.14;1.25;-0.28;364.33;137.53;51.00;1.06;-90.49;-71.07;5.09 
3.985;-1.02;0.02;-0.27;-0.97;-0.14;0.63;367.30;137.53;48.00;1.06;-90.54;-70.96;5.07 
4.015;-1.02;0.02;-0.28;-0.56;-0.56;0.21;366.31;133.71;48.00;1.06;-90.61;-70.93;5.05 
4.045;-1.02;0.02;-0.26;-0.35;2.16;0.21;367.30;134.67;49.00;1.05;-90.69;-70.81;5.07 
4.075;-1.02;0.02;-0.26;-0.49;2.23;-0.07;366.31;135.62;51.00;1.05;-90.75;-70.67;5.06 
4.105;-1.02;0.01;-0.26;-0.35;1.88;-0.42;365.32;135.62;52.00;1.05;-90.76;-70.56;5.02 
4.134;-1.01;0.01;-0.32;-0.21;1.25;0.35;368.29;134.67;50.00;1.06;-90.81;-70.45;4.99 
4.163;-1.02;0.04;-0.30;-0.63;1.11;-0.07;365.32;135.62;50.00;1.06;-90.86;-70.35;4.98 
4.193;-1.01;0.01;-0.28;-0.90;1.88;0.14;368.29;133.71;50.00;1.05;-90.90;-70.28;4.95 
4.223;-1.03;0.03;-0.30;0.07;1.74;0.21;366.31;135.62;53.00;1.07;-90.95;-70.15;4.93 
4.254;-1.02;0.04;-0.30;-0.07;1.32;-0.42;365.32;137.53;50.00;1.06;-91.00;-70.09;4.90 
4.284;-1.02;0.02;-0.30;-0.35;0.83;-0.63;367.30;134.67;53.00;1.06;-91.00;-70.02;4.83 
4.314;-1.03;0.00;-0.29;0.21;0.63;-0.21;364.33;137.53;52.00;1.07;-91.02;-69.98;4.76 
4.344;-1.02;0.01;-0.26;0.28;1.18;0.56;368.29;132.76;49.00;1.05;-91.10;-69.85;4.78 
4.373;-1.02;0.09;-0.29;0.28;1.95;0.14;364.33;135.62;51.00;1.06;-91.16;-69.79;4.75 
4.403;-1.02;0.02;-0.23;-0.14;2.16;0.14;365.32;133.71;53.00;1.05;-91.21;-69.68;4.73 
4.433;-1.03;0.02;-0.28;-0.07;0.97;-0.14;369.28;136.58;51.00;1.07;-91.23;-69.62;4.68 
4.464;-1.01;0.00;-0.32;-0.56;1.95;1.04;365.32;136.58;52.00;1.06;-91.28;-69.55;4.65 
4.494;-1.02;0.00;-0.32;-0.97;0.97;0.97;366.31;134.67;51.00;1.07;-91.34;-69.47;4.63 
4.524;-1.01;0.02;-0.26;-1.04;-1.32;1.60;367.30;135.62;52.00;1.04;-91.41;-69.46;4.63 
4.555;-1.01;0.02;-0.26;-1.32;-1.60;1.74;368.29;137.53;53.00;1.04;-91.52;-69.48;4.65 
4.585;-1.04;0.04;-0.26;-0.83;-0.07;0.56;367.30;133.71;53.00;1.07;-91.63;-69.51;4.67 
4.614;-1.03;0.03;-0.28;0.21;0.21;0.14;370.27;136.58;49.00;1.07;-91.68;-69.51;4.64 
4.644;-1.03;0.02;-0.29;0.28;-0.90;0.83;369.28;134.67;53.00;1.07;-91.73;-69.50;4.60 
4.674;-1.02;0.04;-0.29;-0.56;-1.67;1.18;368.29;134.67;48.00;1.06;-91.83;-69.48;4.61 
4.704;-1.01;0.02;-0.26;-1.60;-1.46;1.60;369.28;132.76;51.00;1.04;-91.92;-69.51;4.63 
4.733;-0.99;0.05;-0.22;-1.53;0.00;1.11;371.26;138.49;50.00;1.02;-92.02;-69.52;4.65 
4.764;-1.02;0.04;-0.26;-0.97;0.90;0.42;369.28;134.67;49.00;1.05;-92.10;-69.50;4.67 
4.794;-1.02;0.03;-0.26;-0.21;1.60;-0.63;368.29;135.62;45.00;1.05;-92.15;-69.47;4.65 
4.824;-1.02;0.04;-0.26;-0.07;1.25;-0.83;366.31;135.62;51.00;1.05;-92.16;-69.47;4.58 
4.855;-1.01;0.00;-0.31;-0.14;1.60;-0.77;367.30;135.62;48.00;1.06;-92.16;-69.45;4.51 
4.885;-1.02;0.01;-0.26;-0.42;1.18;0.28;367.30;138.49;48.00;1.05;-92.17;-69.42;4.45 
4.915;-1.02;0.02;-0.27;-0.56;0.70;0.97;368.29;133.71;52.00;1.06;-92.25;-69.32;4.47 
4.945;-1.04;0.04;-0.28;-1.04;1.81;0.77;365.32;134.67;52.00;1.08;-92.32;-69.31;4.47 
4.976;-1.02;0.03;-0.26;-0.07;2.30;0.63;370.27;132.76;53.00;1.05;-92.40;-69.26;4.48 
5.006;-1.02;0.03;-0.30;0.97;1.88;0.70;369.28;134.67;52.00;1.06;-92.43;-69.22;4.43 
5.036;-1.00;0.00;-0.28;0.28;1.04;1.46;369.28;136.58;49.00;1.04;-92.50;-69.16;4.42 
5.067;-1.01;0.00;-0.28;-1.46;0.07;1.81;369.28;134.67;48.00;1.05;-92.57;-69.13;4.42 
5.097;-0.99;0.02;-0.26;-1.88;-1.88;1.32;364.33;132.76;52.00;1.02;-92.66;-69.14;4.45 
5.127;-1.02;0.05;-0.23;-0.90;0.21;1.25;369.28;134.67;51.00;1.05;-92.76;-69.22;4.48 
5.157;-1.02;0.07;-0.26;-0.28;2.50;0.07;370.27;132.76;48.00;1.05;-92.82;-69.23;4.48 
5.187;-1.02;0.04;-0.26;-0.07;1.88;-0.70;370.27;134.67;50.00;1.05;-92.84;-69.18;4.43 
5.216;-1.02;0.06;-0.29;-0.42;1.25;-0.83;371.26;134.67;47.00;1.06;-92.87;-69.16;4.40 
5.246;-1.03;0.02;-0.28;-0.14;1.04;-0.83;366.31;135.62;50.00;1.07;-92.87;-69.16;4.34 
5.277;-1.02;0.02;-0.28;-0.83;2.92;-0.70;370.27;135.62;48.00;1.06;-92.88;-69.15;4.28 
5.307;-1.01;0.03;-0.30;0.21;2.50;-1.39;367.30;135.62;49.00;1.05;-92.87;-69.10;4.21 
5.337;-1.02;0.00;-0.31;0.63;2.30;-0.97;371.26;134.67;51.00;1.07;-92.85;-69.07;4.13 
5.367;-1.02;0.01;-0.32;-0.35;1.74;-0.90;366.31;135.62;49.00;1.07;-92.84;-69.03;4.05 
5.397;-1.02;0.00;-0.26;-1.04;-0.21;-0.97;368.29;133.71;51.00;1.05;-92.83;-69.05;3.98 
5.427;-1.03;0.03;-0.27;-0.83;0.42;0.07;368.29;133.71;53.00;1.07;-92.84;-69.11;3.93 
5.456;-1.02;0.02;-0.27;0.00;1.95;0.28;368.29;135.62;51.00;1.06;-92.87;-69.13;3.90 
5.486;-1.01;0.05;-0.29;-0.42;1.81;-0.14;366.31;135.62;49.00;1.05;-92.89;-69.12;3.86 
5.516;-1.02;0.06;-0.26;-1.11;1.67;0.00;369.28;131.80;52.00;1.05;-92.91;-69.13;3.82 
5.546;-1.02;0.00;-0.26;-0.90;2.64;-0.07;369.28;133.71;50.00;1.05;-92.92;-69.12;3.77 
5.577;-1.04;0.02;-0.26;-0.97;2.78;-0.07;367.30;132.76;54.00;1.07;-92.93;-69.11;3.73 
5.607;-0.94;0.02;-0.25;-0.42;1.81;0.56;366.31;133.71;52.00;0.97;-92.97;-69.11;3.71 
5.637;-1.01;0.02;-0.30;-0.21;2.23;0.21;368.29;133.71;54.00;1.05;-93.01;-69.09;3.69 
5.667;-1.02;0.02;-0.29;-1.04;0.70;0.56;368.29;132.76;53.00;1.06;-93.04;-69.08;3.67 
5.697;-1.02;0.07;-0.27;-0.90;0.14;0.63;370.27;134.67;52.00;1.06;-93.09;-69.12;3.66 
5.726;-1.03;0.02;-0.27;-0.07;1.60;-0.21;368.29;132.76;49.00;1.06;-93.14;-69.17;3.65 
5.756;-1.04;0.02;-0.28;0.07;2.64;-0.28;370.27;132.76;52.00;1.08;-93.16;-69.18;3.61 
5.787;-1.02;0.02;-0.28;-0.42;1.60;-0.07;370.27;135.62;51.00;1.06;-93.20;-69.12;3.60 
5.817;-1.02;0.02;-0.26;-0.63;1.04;-0.42;367.30;131.80;53.00;1.05;-93.22;-69.14;3.57 
5.847;-1.02;0.03;-0.27;-0.42;1.46;-0.70;372.25;132.76;51.00;1.06;-93.22;-69.17;3.51 
5.878;-1.02;0.03;-0.27;-0.49;2.16;-0.49;368.29;133.71;49.00;1.06;-93.22;-69.19;3.46 
5.907;-1.01;0.03;-0.26;-0.49;2.02;-0.07;368.29;134.67;54.00;1.04;-93.24;-69.18;3.43 
5.937;-1.03;0.04;-0.29;-0.28;0.77;-0.07;368.29;133.71;51.00;1.07;-93.27;-69.17;3.41 
5.967;-1.04;0.06;-0.30;0.70;0.49;-0.35;370.27;134.67;54.00;1.08;-93.28;-69.20;3.36 
5.997;-1.02;0.04;-0.26;0.70;1.67;-0.70;368.29;135.62;51.00;1.05;-93.27;-69.22;3.30 
6.027;-1.03;0.02;-0.29;0.42;2.23;-1.18;367.30;131.80;55.00;1.07;-93.27;-69.24;3.23 
6.057;-1.01;0.00;-0.28;0.00;1.67;-1.46;363.34;133.71;49.00;1.05;-93.24;-69.25;3.15 
6.087;-1.04;0.02;-0.30;-0.42;0.70;-0.35;369.28;134.67;54.00;1.08;-93.23;-69.28;3.09 
6.117;-1.03;0.02;-0.29;-0.35;0.49;0.14;369.28;136.58;55.00;1.07;-93.25;-69.33;3.06 
6.147;-1.00;0.01;-0.32;-1.25;1.46;0.56;369.28;134.67;53.00;1.05;-93.29;-69.38;3.05 
6.178;-1.02;0.02;-0.30;-1.32;2.37;0.14;369.28;134.67;54.00;1.06;-93.34;-69.41;3.06 
6.208;-1.02;0.05;-0.27;-0.07;1.81;-0.42;372.25;133.71;51.00;1.06;-93.35;-69.41;3.02 
6.238;-1.02;0.00;-0.34;0.14;1.81;-0.77;367.30;137.53;51.00;1.08;-93.36;-69.43;2.98 
6.267;-1.02;0.01;-0.31;0.07;1.18;-0.83;367.30;131.80;52.00;1.07;-93.36;-69.45;2.93 
6.296;-1.02;0.01;-0.32;-0.63;0.49;-0.21;367.30;133.71;54.00;1.07;-93.35;-69.49;2.87 
6.326;-1.02;0.03;-0.28;-0.90;-0.07;0.21;369.28;134.67;55.00;1.06;-93.39;-69.54;2.87 
6.356;-1.01;0.05;-0.26;-0.63;0.77;-0.21;367.30;134.67;50.00;1.04;-93.44;-69.62;2.88 
6.387;-1.01;0.01;-0.26;0.28;2.71;-1.18;369.28;132.76;53.00;1.04;-93.45;-69.67;2.85 
6.417;-1.02;0.02;-0.30;0.14;2.37;-1.25;368.29;134.67;56.00;1.06;-93.42;-69.66;2.77 
6.447;-1.04;0.03;-0.29;0.35;0.77;-0.63;369.28;133.71;55.00;1.08;-93.41;-69.68;2.72 
6.477;-1.02;0.00;-0.30;-0.56;0.35;0.00;368.29;134.67;55.00;1.06;-93.44;-69.68;2.69 
6.507;-1.02;0.01;-0.27;-1.60;0.14;1.04;367.30;134.67;53.00;1.06;-93.47;-69.73;2.69 
6.536;-1.02;0.02;-0.27;-1.60;-0.07;1.53;367.30;134.67;53.00;1.06;-93.53;-69.75;2.72 
6.566;-1.02;0.04;-0.30;-1.25;0.42;1.46;368.29;132.76;52.00;1.06;-93.59;-69.83;2.75 
6.596;-1.02;0.05;-0.28;-0.77;0.97;0.70;370.27;133.71;53.00;1.06;-93.65;-69.89;2.78 
6.626;-1.02;0.04;-0.27;-0.63;0.70;0.21;369.28;134.67;51.00;1.06;-93.68;-69.95;2.77 
6.656;-1.02;0.03;-0.28;-0.70;0.70;0.49;368.29;134.67;55.00;1.06;-93.71;-69.99;2.77 
6.687;-1.03;0.03;-0.30;-0.35;0.70;0.42;366.31;133.71;50.00;1.07;-93.73;-70.06;2.75 
6.717;-1.01;0.03;-0.30;0.07;0.70;-0.28;369.28;134.67;55.00;1.05;-93.77;-70.11;2.75 
6.747;-1.02;0.02;-0.27;-0.07;0.35;-0.49;370.27;133.71;51.00;1.06;-93.77;-70.17;2.71 
6.777;-1.03;0.02;-0.28;-0.63;0.28;-1.11;368.29;132.76;52.00;1.07;-93.76;-70.23;2.67 
6.807;-1.02;0.03;-0.30;-1.81;-0.28;-0.14;368.29;132.76;51.00;1.06;-93.74;-70.31;2.62 
6.837;-1.02;0.06;-0.26;-1.25;-0.70;-0.97;366.31;133.71;49.00;1.05;-93.75;-70.38;2.61 
6.867;-1.02;0.03;-0.26;-0.28;0.63;-0.77;366.31;136.58;51.00;1.05;-93.75;-70.48;2.59 
6.898;-1.01;0.02;-0.29;0.49;0.77;0.28;367.30;135.62;51.00;1.05;-93.75;-70.55;2.56 
6.928;-1.02;0.02;-0.27;0.28;0.35;-0.14;367.30;138.49;53.00;1.06;-93.77;-70.61;2.53 
6.958;-1.02;0.00;-0.34;-0.42;0.63;-0.77;367.30;134.67;49.00;1.08;-93.75;-70.68;2.48 
6.989;-1.02;0.01;-0.28;-1.11;-0.21;0.28;369.28;133.71;50.00;1.06;-93.77;-70.71;2.47 
7.019;-1.02;0.03;-0.26;-1.04;-0.63;1.60;368.29;134.67;53.00;1.05;-93.82;-70.74;2.50 
7.049;-1.02;0.05;-0.28;-1.11;0.56;1.18;368.29;133.71;49.00;1.06;-93.87;-70.85;2.53 
7.078;-1.03;0.05;-0.26;-0.63;0.77;0.56;371.26;133.71;53.00;1.06;-93.91;-70.91;2.54 
7.108;-1.02;0.02;-0.28;-0.07;0.70;0.56;368.29;135.62;51.00;1.06;-93.95;-70.95;2.55 
7.138;-1.02;0.02;-0.26;-0.35;0.42;0.70;371.26;135.62;49.00;1.05;-93.99;-71.04;2.56 
7.168;-1.02;0.03;-0.29;-0.42;0.14;1.04;366.31;132.76;49.00;1.06;-94.00;-71.12;2.55 
7.199;-1.03;0.04;-0.30;-0.70;0.83;0.21;369.28;133.71;49.00;1.07;-94.05;-71.16;2.58 
7.228;-1.02;0.02;-0.30;-0.56;0.56;0.63;369.28;135.62;50.00;1.06;-94.06;-71.23;2.57 
7.257;-1.01;0.02;-0.26;-1.46;0.49;1.11;370.27;130.85;48.00;1.04;-94.09;-71.28;2.58 
7.287;-1.01;0.04;-0.22;-0.77;0.35;0.00;369.28;134.67;51.00;1.03;-94.11;-71.34;2.58 
7.317;-1.01;0.05;-0.27;0.28;1.81;-1.95;368.29;137.53;49.00;1.05;-94.09;-71.42;2.55 
7.347;-1.02;0.04;-0.31;0.49;2.71;-2.16;370.27;134.67;50.00;1.07;-94.07;-71.46;2.49 
7.377;-1.02;0.00;-0.26;0.21;1.32;-1.18;371.26;135.62;49.00;1.05;-94.01;-71.50;2.41 
7.408;-1.01;0.02;-0.28;-0.49;2.23;-0.07;370.27;132.76;51.00;1.05;-94.01;-71.49;2.38 
7.438;-1.01;0.03;-0.30;0.28;2.37;-0.21;369.28;133.71;51.00;1.05;-94.00;-71.50;2.34 
7.467;-1.02;0.02;-0.27;0.83;3.69;-1.04;367.30;136.58;50.00;1.06;-93.99;-71.51;2.29 
7.498;-1.02;0.01;-0.29;0.49;3.20;-1.39;369.28;134.67;49.00;1.06;-93.98;-71.46;2.24 
7.528;-1.03;0.02;-0.29;0.21;0.70;-0.28;368.29;135.62;51.00;1.07;-93.97;-71.45;2.21 
7.558;-1.02;0.02;-0.30;-0.35;1.67;0.35;369.28;132.76;52.00;1.06;-93.99;-71.51;2.20 
7.588;-1.01;0.03;-0.27;-0.77;1.53;0.56;369.28;133.71;52.00;1.05;-94.01;-71.51;2.19 
7.618;-1.01;0.06;-0.28;-0.49;-0.56;1.11;368.29;133.71;49.00;1.05;-94.04;-71.52;2.20 
7.648;-1.02;0.05;-0.29;-0.28;0.77;-0.14;368.29;137.53;54.00;1.06;-94.08;-71.60;2.23 
7.678;-1.02;0.06;-0.27;0.07;2.43;-0.14;366.31;136.58;53.00;1.06;-94.09;-71.65;2.22 
7.709;-1.01;0.03;-0.27;-0.35;3.20;-0.49;367.30;134.67;54.00;1.05;-94.10;-71.67;2.20 
7.739;-1.02;0.04;-0.26;-0.14;2.02;-1.32;371.26;131.80;51.00;1.05;-94.10;-71.66;2.17 
7.768;-1.02;0.04;-0.28;0.00;1.81;-0.70;368.29;134.67;51.00;1.06;-94.07;-71.70;2.12 
7.799;-1.02;0.03;-0.29;0.00;2.50;-1.11;368.29;132.76;52.00;1.06;-94.07;-71.74;2.10 
7.829;-1.01;0.02;-0.26;0.35;2.43;-1.88;365.32;134.67;51.00;1.04;-94.02;-71.77;2.03 
7.859;-1.02;0.05;-0.26;0.14;2.43;-0.90;369.28;135.62;55.00;1.05;-93.99;-71.78;1.97 
7.889;-1.03;0.04;-0.30;0.42;2.99;-0.70;368.29;134.67;53.00;1.07;-93.97;-71.77;1.92 
7.920;-1.02;0.02;-0.31;0.00;1.81;-0.83;366.31;136.58;54.00;1.07;-93.95;-71.77;1.88 
7.949;-1.03;0.03;-0.29;0.21;1.46;-1.60;367.30;137.53;58.00;1.07;-93.91;-71.83;1.82 
7.979;-1.02;0.00;-0.28;0.42;2.09;-1.11;366.31;134.67;56.00;1.06;-93.89;-71.84;1.77 
8.010;-1.02;0.02;-0.28;-0.28;1.67;-0.14;367.30;133.71;54.00;1.06;-93.87;-71.87;1.73 
8.040;-1.02;0.02;-0.30;-0.07;1.39;-0.70;367.30;139.44;56.00;1.06;-93.86;-71.89;1.71 
8.069;-1.01;0.02;-0.28;-0.14;2.57;-0.49;367.30;134.67;54.00;1.05;-93.87;-71.91;1.70 
8.099;-1.02;0.02;-0.27;0.77;3.20;-2.09;367.30;134.67;56.00;1.06;-93.85;-71.89;1.66 
8.129;-1.01;0.01;-0.29;1.46;4.31;-2.16;364.33;137.53;57.00;1.05;-93.80;-71.86;1.57 
8.159;-1.01;0.00;-0.30;1.18;3.76;-0.97;362.35;136.58;60.00;1.05;-93.77;-71.82;1.50 
8.189;-1.00;0.00;-0.30;0.77;2.23;-0.70;367.30;135.62;55.00;1.04;-93.76;-71.77;1.46 
8.220;-1.02;0.00;-0.31;-0.14;1.25;-0.21;365.32;135.62;56.00;1.07;-93.76;-71.79;1.43 
8.250;-1.02;0.02;-0.32;-0.70;1.46;0.35;367.30;134.67;60.00;1.07;-93.78;-71.79;1.43 
8.280;-1.02;0.02;-0.27;-0.49;1.11;0.00;364.33;135.62;58.00;1.06;-93.80;-71.82;1.44 
8.311;-1.02;0.03;-0.30;-0.14;2.23;-0.63;364.33;133.71;58.00;1.06;-93.81;-71.85;1.43 
8.341;-1.02;0.02;-0.30;-0.14;2.16;-0.21;365.32;135.62;54.00;1.06;-93.81;-71.87;1.41 
8.371;-1.02;0.02;-0.31;0.42;2.37;-0.90;365.32;136.58;60.00;1.07;-93.81;-71.86;1.39 
8.401;-1.02;0.02;-0.30;0.21;2.43;-1.18;365.32;136.58;55.00;1.06;-93.80;-71.86;1.35 
8.432;-1.02;0.03;-0.30;0.28;2.57;-0.97;362.35;133.71;61.00;1.06;-93.77;-71.84;1.30 
8.462;-1.00;0.02;-0.30;0.21;1.67;-0.83;363.34;133.71;61.00;1.04;-93.76;-71.83;1.26 
8.492;-1.02;0.01;-0.30;-0.21;0.90;0.00;364.33;134.67;58.00;1.06;-93.75;-71.86;1.23 
8.523;-1.04;0.02;-0.30;-0.83;0.14;0.14;365.32;135.62;60.00;1.08;-93.76;-71.90;1.23 
8.553;-1.02;0.02;-0.30;-1.46;-0.14;1.53;361.36;137.53;60.00;1.06;-93.80;-71.95;1.27 
8.583;-1.02;0.01;-0.29;-2.16;-0.07;1.67;367.30;135.62;64.00;1.06;-93.86;-72.00;1.33 
8.613;-1.02;0.02;-0.29;-1.81;-0.49;1.60;365.32;137.53;55.00;1.06;-93.92;-72.06;1.40 
8.643;-1.02;0.03;-0.30;-1.46;-0.07;2.23;365.32;135.62;61.00;1.06;-93.97;-72.15;1.45 
8.672;-1.02;0.02;-0.30;-1.39;0.56;1.81;364.33;134.67;57.00;1.06;-94.05;-72.22;1.53 
8.701;-1.03;0.02;-0.26;-1.25;0.07;1.53;366.31;135.62;59.00;1.06;-94.09;-72.28;1.58 
8.732;-1.02;0.00;-0.28;-1.18;0.56;1.11;365.32;135.62;57.00;1.06;-94.13;-72.38;1.63 
8.762;-1.04;0.02;-0.29;-0.70;1.81;1.25;367.30;132.76;54.00;1.08;-94.18;-72.41;1.66 
8.792;-1.01;0.01;-0.30;-0.70;2.43;1.46;369.28;132.76;58.00;1.05;-94.22;-72.42;1.70 
8.823;-1.01;0.02;-0.35;-0.28;1.11;1.60;366.31;133.71;60.00;1.07;-94.27;-72.42;1.73 
8.853;-0.99;0.01;-0.31;-0.42;-0.35;1.18;369.28;133.71;58.00;1.04;-94.32;-72.47;1.77 
8.883;-1.01;0.03;-0.31;-0.90;-0.77;0.00;367.30;133.71;59.00;1.06;-94.34;-72.53;1.79 
8.913;-1.02;0.01;-0.30;-1.46;-2.37;-0.21;366.31;134.67;57.00;1.06;-94.33;-72.62;1.78 
8.944;-1.02;0.02;-0.26;-1.88;-3.34;-0.21;367.30;134.67;56.00;1.05;-94.35;-72.78;1.83 
8.974;-1.02;0.06;-0.27;-1.81;-3.27;1.60;367.30;133.71;52.00;1.06;-94.35;-72.97;1.85 
9.004;-1.04;0.06;-0.28;-0.83;-0.90;1.32;369.28;133.71;54.00;1.08;-94.41;-73.12;1.93 
9.035;-0.99;-0.02;-0.28;-1.18;2.64;0.56;366.31;130.85;53.00;1.03;-94.44;-73.16;1.96 
9.065;-1.02;0.03;-0.30;-2.23;2.02;1.67;370.27;133.71;52.00;1.06;-94.49;-73.15;2.01 
9.095;-1.01;0.05;-0.27;-1.88;1.81;2.50;370.27;132.76;55.00;1.05;-94.56;-73.19;2.09 
9.125;-1.03;0.04;-0.28;-0.63;3.69;2.30;368.29;132.76;54.00;1.07;-94.66;-73.19;2.19 
9.155;-1.00;0.05;-0.30;-0.42;3.55;1.11;373.24;133.71;56.00;1.05;-94.72;-73.14;2.23 
9.184;-0.99;0.02;-0.30;-1.39;1.46;1.32;373.24;133.71;56.00;1.03;-94.76;-73.10;2.25 
9.213;-0.98;0.02;-0.31;-1.95;-0.83;1.18;369.28;131.80;55.00;1.03;-94.80;-73.14;2.30 
9.244;-1.01;0.05;-0.28;-0.90;0.14;0.63;373.24;133.71;54.00;1.05;-94.83;-73.23;2.35 
9.274;-1.02;0.05;-0.28;0.77;1.53;-0.49;373.24;131.80;57.00;1.06;-94.86;-73.27;2.36 
9.304;-1.00;0.02;-0.30;0.70;0.07;-0.83;368.29;130.85;56.00;1.04;-94.85;-73.30;2.34 
9.335;-1.00;0.03;-0.30;-0.77;-0.63;-0.14;372.25;134.67;54.00;1.04;-94.83;-73.38;2.32 
9.365;-1.01;0.04;-0.27;-1.04;0.42;0.35;369.28;131.80;55.00;1.05;-94.82;-73.48;2.32 
9.394;-1.02;0.03;-0.25;0.42;1.88;-0.70;370.27;130.85;49.00;1.05;-94.82;-73.54;2.32 
9.423;-1.02;0.03;-0.29;0.90;2.37;-0.56;369.28;133.71;55.00;1.06;-94.80;-73.58;2.30 
9.453;-1.02;0.02;-0.31;0.07;2.37;-0.35;373.24;129.89;54.00;1.07;-94.78;-73.59;2.26 
9.483;-1.02;0.02;-0.30;-0.42;2.02;0.07;370.27;130.85;54.00;1.06;-94.77;-73.58;2.24 
9.513;-1.04;0.02;-0.30;-0.56;0.83;0.90;370.27;133.71;54.00;1.08;-94.78;-73.60;2.25 
9.544;-1.06;0.03;-0.31;-0.49;0.35;3.06;369.28;131.80;56.00;1.10;-94.84;-73.67;2.31 
9.574;-1.06;0.00;-0.33;0.70;0.14;4.10;371.26;132.76;55.00;1.11;-94.93;-73.73;2.39 
9.604;-1.07;-0.06;-0.36;0.77;-4.45;3.83;372.25;130.85;54.00;1.13;-94.99;-73.82;2.44 
