Time(s) acc_x(g) acc_y(g) acc_z(g) gyr_x(°/s) gyr_y(°/s) gyr_z(°/s) mag_x(G) mag_y(G) mag_z(G) SVM(g) yaw(°) pitch(°) roll(°)
0.000;0.02;0.24;0.70;-16.56;5.29;-8.83;369.84;-346.97;-378.00;0.74;-150.82;3.60;7.57 
0.031;0.12;0.14;0.81;5.70;-26.16;-6.12;366.85;-349.84;-377.00;0.83;-150.30;3.99;7.75 
0.061;0.18;0.13;0.91;15.17;-20.24;1.53;371.83;-353.68;-375.00;0.94;-150.00;4.86;8.38 
0.091;0.10;0.00;0.84;16.56;-9.11;3.06;374.81;-359.43;-375.00;0.85;-149.90;5.41;9.04 
0.122;0.04;0.07;0.77;8.35;-19.41;3.27;377.79;-361.34;-372.00;0.77;-149.82;5.83;9.56 
0.152;0.02;0.09;0.86;15.37;-30.40;-2.30;379.78;-367.09;-370.00;0.86;-149.59;6.57;10.10 
0.182;0.02;0.16;0.91;24.97;-27.69;2.71;381.77;-371.89;-368.00;0.92;-149.43;7.41;10.93 
0.212;0.02;0.11;0.94;23.86;-24.00;-4.45;390.72;-376.68;-360.00;0.95;-149.33;8.12;11.89 
0.242;0.10;-0.07;0.96;20.17;-32.35;-11.48;391.71;-379.55;-359.00;0.97;-148.91;8.90;12.83 
0.272;0.18;-0.19;1.09;24.21;-18.78;-4.03;396.68;-383.39;-359.00;1.12;-148.50;9.66;13.52 
0.302;0.12;-0.06;1.12;-4.03;-3.48;3.41;399.66;-384.35;-354.00;1.13;-148.33;10.03;13.84 
0.333;0.11;-0.04;1.02;-7.79;12.24;-2.23;396.68;-386.26;-353.00;1.03;-148.08;9.86;13.73 
0.363;0.19;-0.03;0.94;-9.18;20.80;-1.81;398.67;-380.51;-355.00;0.96;-147.86;9.42;13.51 
0.393;0.19;-0.02;0.82;-9.25;25.32;-1.60;393.70;-374.76;-358.00;0.84;-147.67;8.75;13.42 
0.423;0.16;-0.02;0.75;-6.12;22.05;1.53;393.70;-371.89;-357.00;0.77;-147.53;8.14;13.19 
0.453;0.17;-0.05;0.75;0.90;4.73;8.42;393.70;-371.89;-359.00;0.77;-147.51;7.78;13.05 
0.483;0.08;0.01;0.95;2.92;-5.84;11.55;394.69;-371.89;-360.00;0.95;-147.64;7.95;13.09 
0.513;0.10;0.13;1.14;1.11;12.66;8.14;395.69;-374.76;-359.00;1.15;-147.78;8.03;13.21 
0.544;0.04;0.10;0.96;-5.98;25.25;9.88;393.70;-370.93;-359.00;0.97;-147.94;7.38;13.22 
0.574;0.06;0.10;0.93;-10.23;27.06;5.77;389.72;-368.05;-361.00;0.94;-148.07;6.67;13.06 
0.604;0.18;0.01;0.85;-8.97;31.10;2.30;388.73;-362.30;-360.00;0.87;-148.03;5.88;12.80 
0.634;0.21;0.01;0.74;1.67;19.76;13.15;390.72;-356.55;-365.00;0.77;-148.12;5.29;12.71 
0.664;0.12;0.19;0.80;1.60;11.06;12.59;388.73;-358.47;-364.00;0.83;-148.43;5.06;12.90 
0.694;0.12;0.18;0.92;0.83;9.53;4.24;389.72;-356.55;-363.00;0.95;-148.52;4.93;13.14 
0.724;-0.02;0.11;0.86;5.91;26.43;4.45;392.70;-356.55;-359.00;0.87;-148.54;4.47;13.38 
0.754;-0.17;0.25;0.77;12.73;14.75;4.31;395.69;-352.72;-363.00;0.83;-148.63;3.67;13.87 
0.784;0.01;0.03;0.87;15.86;-3.20;5.22;395.69;-351.76;-361.00;0.87;-148.62;3.44;14.52 
0.814;0.10;-0.07;0.88;4.52;6.12;11.83;399.66;-351.76;-359.00;0.89;-148.75;3.63;14.83 
0.845;0.02;0.08;0.78;-7.58;-3.41;11.41;396.68;-352.72;-360.00;0.78;-148.89;3.65;14.71 
0.875;0.08;0.30;0.93;-5.08;-17.53;5.50;393.70;-353.68;-362.00;0.98;-148.90;4.07;14.63 
0.905;0.02;0.32;1.02;2.09;-0.21;-4.59;395.69;-361.34;-362.00;1.07;-148.76;4.43;14.87 
0.935;0.09;0.20;0.94;-1.18;22.54;-17.39;394.69;-357.51;-358.00;0.97;-148.27;4.10;15.13 
0.965;0.00;0.05;0.68;0.00;12.45;-10.09;395.69;-352.72;-360.00;0.68;-147.66;3.37;15.21 
0.995;0.05;0.10;0.92;4.31;-10.85;-5.08;395.69;-348.88;-359.00;0.93;-147.25;3.33;15.35 
1.025;0.14;-0.05;1.02;4.17;4.31;0.77;395.69;-352.72;-358.00;1.03;-146.99;3.51;15.54 
1.056;0.15;-0.05;0.80;-0.14;20.45;13.91;400.66;-347.93;-359.00;0.82;-147.08;3.27;15.53 
1.086;0.14;0.04;0.66;3.90;-4.45;23.10;396.68;-351.76;-356.00;0.68;-147.51;3.29;15.52 
1.116;0.00;0.13;0.99;2.30;-26.50;27.13;398.67;-352.72;-356.00;1.00;-148.10;3.99;15.60 
1.147;0.10;0.26;1.18;-3.48;22.96;20.80;396.68;-360.39;-358.00;1.21;-148.61;4.43;15.70 
1.177;0.02;0.31;0.82;-5.57;32.77;8.07;400.66;-353.68;-357.00;0.88;-148.99;3.65;15.73 
1.207;-0.06;0.26;0.83;0.63;8.49;-1.81;397.67;-353.68;-358.00;0.87;-148.95;3.03;15.88 
1.237;0.01;0.23;0.94;8.49;18.64;-4.24;400.66;-352.72;-357.00;0.97;-148.76;2.64;16.22 
1.268;0.01;0.11;0.74;2.43;17.04;-7.93;401.65;-349.84;-356.00;0.75;-148.48;2.00;16.63 
1.297;-0.06;0.08;0.94;-2.85;-2.37;-5.84;401.65;-346.97;-354.00;0.95;-148.13;1.83;16.79 
1.327;-0.02;0.18;1.08;1.81;19.76;-2.99;402.65;-343.13;-358.00;1.10;-147.83;1.70;16.95 
1.358;-0.05;0.14;0.82;4.80;28.87;-3.62;398.67;-341.22;-357.00;0.83;-147.65;0.87;17.18 
1.388;-0.04;0.06;0.77;3.34;9.04;-6.47;401.65;-335.47;-357.00;0.77;-147.34;0.19;17.41 
1.417;0.00;0.06;0.94;3.06;8.00;-1.39;402.65;-332.59;-357.00;0.94;-147.05;-0.01;17.49 
1.447;0.01;0.10;0.95;2.85;18.37;-0.07;401.65;-332.59;-357.00;0.96;-146.88;-0.30;17.56 
1.477;0.01;0.07;0.81;2.30;17.67;-0.07;405.63;-329.71;-354.00;0.81;-146.76;-0.82;17.68 
1.507;-0.05;0.10;0.94;-1.18;7.51;1.46;400.66;-326.84;-353.00;0.95;-146.65;-1.12;17.69 
1.537;-0.03;0.16;0.94;-1.18;15.65;0.70;402.65;-324.92;-356.00;0.95;-146.52;-1.40;17.69 
1.568;-0.06;0.15;0.90;3.62;15.23;-0.49;404.63;-323.00;-351.00;0.91;-146.38;-1.85;17.79 
1.598;-0.05;0.16;0.93;2.09;20.94;-3.41;405.63;-320.13;-356.00;0.94;-146.19;-2.32;17.92 
1.628;-0.15;0.13;0.82;-2.92;24.00;-4.73;403.64;-315.34;-351.00;0.84;-145.94;-3.01;17.93 
1.659;-0.26;0.17;0.76;-4.59;11.20;-6.96;404.63;-306.71;-354.00;0.82;-145.55;-3.79;17.86 
1.689;-0.15;0.16;1.10;-1.53;-2.64;-5.29;401.65;-307.67;-353.00;1.12;-145.13;-4.06;17.78 
1.719;-0.06;0.16;1.24;2.57;38.75;-12.17;401.65;-305.75;-349.00;1.25;-144.74;-4.41;17.80 
1.749;-0.22;0.20;0.66;2.02;69.36;-16.77;407.62;-296.17;-354.00;0.72;-144.25;-6.24;17.89 
1.780;-0.22;0.22;0.81;7.79;1.04;-16.42;401.65;-282.75;-349.00;0.87;-143.60;-7.61;18.08 
1.810;0.11;0.21;1.26;10.37;53.50;-23.17;400.66;-279.87;-349.00;1.28;-142.85;-8.00;18.31 
1.840;-0.18;0.04;0.44;9.11;87.79;-24.42;402.65;-263.58;-346.00;0.48;-142.12;-10.29;18.47 
1.871;-0.59;0.03;0.20;7.93;-26.85;-12.87;403.64;-253.04;-341.00;0.62;-141.20;-12.54;18.56 
1.900;0.11;0.26;1.88;22.89;-104.77;-16.42;405.63;-265.50;-344.00;1.90;-140.66;-9.84;18.86 
1.930;0.46;0.20;1.61;8.42;150.89;-16.83;413.58;-262.62;-340.00;1.69;-140.12;-10.04;19.69 
1.960;-0.19;0.01;0.08;-12.94;169.95;-18.78;410.60;-236.74;-330.00;0.21;-139.73;-15.02;19.43 
1.990;-0.57;0.05;0.00;2.78;-44.31;1.39;409.60;-211.82;-328.00;0.57;-138.96;-18.20;19.21 
2.020;0.12;0.30;1.69;33.46;-103.37;-6.33;411.59;-232.91;-332.00;1.72;-138.92;-14.88;19.77 
2.050;0.24;0.18;1.54;-0.35;145.32;-9.46;415.57;-230.03;-325.00;1.57;-138.67;-15.21;20.60 
2.081;-0.27;0.13;0.15;-17.46;141.91;-15.30;416.56;-205.11;-318.00;0.34;-138.16;-19.94;20.18 
2.110;-0.59;0.17;0.26;3.34;-22.47;-1.11;413.58;-186.90;-309.00;0.67;-137.69;-21.94;19.92 
2.139;0.08;0.27;1.59;31.65;-52.94;-16.21;416.56;-197.45;-312.00;1.61;-137.41;-20.40;20.30 
2.170;0.22;0.00;1.39;9.46;136.00;-9.81;417.56;-186.90;-307.00;1.41;-136.90;-21.14;20.77 
2.200;-0.38;-0.05;0.30;-1.74;109.57;-6.96;418.55;-168.69;-291.00;0.49;-136.19;-25.13;20.45 
2.230;-0.21;0.10;0.82;12.87;5.91;6.68;416.56;-157.19;-287.00;0.85;-135.75;-26.68;20.46 
2.260;0.14;0.18;1.14;15.10;77.36;1.39;420.54;-151.44;-280.00;1.16;-135.73;-27.06;20.89 
2.290;-0.14;0.15;0.45;3.48;103.51;-8.83;421.53;-142.81;-271.00;0.49;-135.17;-29.83;21.09 
2.320;-0.29;0.10;0.66;6.54;33.81;-4.31;418.55;-131.31;-258.00;0.73;-134.60;-31.69;21.10 
2.350;0.01;0.02;1.10;13.63;63.23;-6.89;424.52;-128.44;-252.00;1.10;-134.18;-32.52;21.15 
2.380;-0.11;0.11;0.66;12.17;96.21;-1.60;425.51;-112.14;-236.00;0.68;-133.63;-34.49;21.27 
2.410;-0.37;0.21;0.53;12.87;69.43;0.28;426.51;-106.39;-226.00;0.68;-133.11;-36.59;21.49 
2.440;-0.25;0.28;0.94;16.90;58.78;-6.75;426.51;-103.51;-215.00;1.01;-132.55;-38.08;21.75 
2.470;-0.06;0.33;0.98;15.65;113.04;-16.42;430.48;-97.76;-201.00;1.04;-131.79;-39.95;21.92 
2.500;-0.11;0.21;0.59;14.33;125.70;-23.03;429.49;-80.51;-178.00;0.64;-130.43;-43.05;21.83 
2.530;-0.11;0.29;0.50;10.30;108.38;-32.35;422.53;-67.09;-159.00;0.59;-128.89;-46.13;21.59 
2.560;0.26;0.07;0.66;12.94;123.48;-21.29;421.53;-56.55;-141.00;0.71;-127.34;-48.77;21.15 
2.591;0.12;0.09;0.44;19.06;147.41;-31.03;419.55;-52.72;-120.00;0.46;-125.63;-51.94;20.89 
2.621;0.27;-0.14;0.22;12.03;167.65;-32.00;413.58;-45.05;-95.00;0.38;-122.94;-56.19;20.16 
2.651;-0.16;-0.40;-0.07;-2.43;204.45;-32.35;410.60;-34.50;-57.00;0.44;-119.59;-61.17;18.79 
2.682;-0.06;-1.06;-0.86;-45.57;239.58;10.92;403.64;-35.46;-26.00;1.37;-115.26;-67.20;17.23 
2.711;-0.13;-0.10;-0.58;-52.87;244.66;68.66;414.58;-42.17;-1.00;0.60;-111.95;-71.11;17.28 
2.741;-1.09;-1.54;-2.81;-49.11;52.31;147.97;430.48;-58.47;23.00;3.38;-110.86;-70.60;19.28 
2.771;-0.37;0.93;-1.38;6.33;-258.99;248.97;470.25;-91.05;7.00;1.70;-118.10;-64.23;25.44 
2.801;-0.66;1.74;-1.18;44.31;-189.15;212.45;503.06;-118.85;-29.00;2.20;-128.03;-55.73;32.53 
2.831;-3.45;4.06;-1.66;-200.56;-395.13;100.94;522.94;-142.81;-55.00;5.58;-135.28;-48.84;37.20 
2.861;-2.14;5.79;4.33;-9.95;-1037.91;-90.99;525.92;-155.27;-87.00;7.54;-141.17;-37.90;33.81 
2.892;2.98;3.90;4.55;56.49;-667.13;-503.44;509.02;-226.20;-213.00;6.69;-132.14;-18.03;34.40 
2.922;1.39;-0.33;2.05;-148.17;175.30;-203.55;474.23;-189.78;-233.00;2.50;-118.82;-16.48;29.91 
2.952;-0.08;-2.79;-0.90;-438.47;633.81;89.46;451.36;-145.69;-232.00;2.93;-118.01;-27.98;21.59 
2.982;-3.18;0.34;-5.35;-426.78;403.27;170.85;413.58;-111.18;-229.00;6.23;-121.98;-43.86;11.01 
3.012;-2.76;0.60;-3.19;60.52;-417.25;58.92;406.62;-114.06;-234.00;4.26;-126.71;-45.94;9.02 
3.042;0.09;-0.05;-0.51;191.30;-812.45;-5.98;422.53;-184.99;-279.00;0.52;-130.40;-27.89;11.78 
3.062;-0.49;0.30;0.77;-8.63;72.49;-5.84;432.47;-170.61;-261.00;0.96;-119.24;-27.31;16.31 
3.093;-0.50;0.18;0.71;-40.35;139.06;-2.64;432.47;-152.40;-255.00;0.89;-119.06;-30.56;15.63 
3.123;-0.66;0.29;0.73;-34.09;152.90;-2.57;427.50;-138.02;-244.00;1.03;-118.85;-34.68;14.71 
3.153;-0.69;0.26;0.50;-30.47;155.97;-6.96;423.52;-121.73;-230.00;0.89;-118.28;-39.12;13.86 
3.183;-0.69;0.28;0.44;-18.78;135.86;-9.74;420.54;-108.31;-220.00;0.86;-117.38;-43.50;13.20 
3.213;-0.74;0.00;0.02;62.33;143.03;-30.68;414.58;-89.14;-199.00;0.74;-116.41;-47.56;12.75 
3.243;-0.67;-0.07;0.65;-12.31;137.32;-1.67;418.55;-71.89;-169.00;0.94;-114.80;-52.31;13.33 
3.273;-0.80;0.00;0.54;11.34;148.59;-10.71;419.55;-61.34;-152.00;0.97;-113.09;-56.79;13.10 
3.303;-0.82;-0.06;0.50;-65.25;73.25;0.42;413.58;-56.55;-132.00;0.96;-111.95;-59.86;12.20 
3.333;-0.99;-0.19;0.34;-24.83;55.93;1.46;410.60;-50.80;-131.00;1.06;-111.26;-61.59;11.35 
3.363;-1.00;0.00;0.15;1.95;27.69;-1.53;410.60;-49.84;-124.00;1.01;-110.56;-62.95;11.05 
3.394;-0.96;-0.02;0.09;0.77;-5.08;2.64;413.58;-49.84;-119.00;0.96;-110.05;-63.54;10.84 
3.424;-0.90;0.02;0.22;-0.90;-20.80;2.71;413.58;-48.88;-126.00;0.93;-109.80;-63.49;10.69 
3.454;-0.97;-0.10;0.20;14.89;-69.57;5.50;417.56;-51.76;-133.00;1.00;-110.11;-62.41;10.84 
3.485;-0.94;0.20;0.21;18.57;-129.81;14.05;414.58;-56.55;-137.00;0.98;-110.95;-59.52;11.23 
3.514;-0.84;0.39;0.50;24.63;-99.48;8.70;420.54;-67.09;-157.00;1.05;-111.89;-56.10;11.86 
3.544;-0.85;0.26;0.56;16.77;-52.10;1.95;419.55;-72.84;-166.00;1.05;-112.32;-53.93;12.36 
3.574;-0.79;0.17;0.50;6.54;-26.43;4.59;426.51;-77.64;-172.00;0.95;-112.46;-52.73;12.58 
3.605;-0.85;0.17;0.45;7.44;-33.67;4.38;425.51;-80.51;-175.00;0.98;-112.55;-51.93;12.73 
3.635;-0.78;0.24;0.50;6.40;-22.47;0.83;424.52;-84.35;-176.00;0.96;-112.65;-51.03;12.93 
3.665;-0.80;0.14;0.38;1.95;-20.66;-0.70;424.52;-86.26;-179.00;0.90;-112.61;-50.62;13.01 
3.696;-0.78;0.18;0.40;16.97;-62.12;-0.28;426.51;-90.10;-186.00;0.89;-112.44;-49.68;12.99 
3.726;-0.85;0.22;0.46;14.89;-72.56;-3.90;424.52;-95.85;-191.00;0.99;-112.50;-47.91;13.22 
3.756;-0.64;0.19;0.70;13.01;-58.37;-1.39;426.51;-96.81;-197.00;0.97;-112.46;-45.95;13.39 
3.786;-0.66;0.22;0.76;2.23;-4.31;-0.14;429.49;-103.51;-201.00;1.03;-112.46;-44.84;13.49 
3.816;-0.74;0.19;0.54;-1.25;11.76;-1.39;429.49;-102.56;-201.00;0.94;-112.32;-45.05;13.40 
3.846;-0.76;0.20;0.52;0.77;-0.70;0.90;429.49;-99.68;-199.00;0.94;-112.18;-45.27;13.30 
3.876;-0.77;0.20;0.54;-1.25;1.18;-1.25;431.48;-101.60;-200.00;0.96;-112.08;-45.31;13.25 
3.907;-0.76;0.18;0.54;0.49;-2.85;-0.42;429.49;-101.60;-200.00;0.95;-111.94;-45.38;13.14 
3.937;-0.74;0.18;0.60;0.42;0.77;-0.49;429.49;-103.51;-200.00;0.97;-111.84;-45.32;13.08 
3.967;-0.71;0.17;0.56;-0.14;3.41;-0.97;427.50;-98.72;-199.00;0.92;-111.71;-45.44;12.99 
3.997;-0.71;0.20;0.55;0.21;-0.14;0.70;431.48;-101.60;-200.00;0.92;-111.60;-45.51;12.93 
4.027;-0.76;0.17;0.54;-0.21;2.99;1.11;433.47;-104.47;-202.00;0.95;-111.51;-45.59;12.88 
4.057;-0.75;0.18;0.50;0.90;-0.77;1.18;433.47;-101.60;-199.00;0.92;-111.47;-45.66;12.87 
4.087;-0.76;0.17;0.55;1.60;-0.97;2.02;429.49;-101.60;-200.00;0.95;-111.41;-45.64;12.86 
4.118;-0.78;0.19;0.53;0.14;-1.04;2.43;435.45;-103.51;-200.00;0.96;-111.38;-45.63;12.86 
4.148;-0.77;0.20;0.53;1.81;-3.76;1.11;431.48;-100.64;-200.00;0.96;-111.36;-45.58;12.86 
4.178;-0.78;0.27;0.53;0.56;-2.30;-1.39;433.47;-103.51;-203.00;0.98;-111.30;-45.53;12.87 
4.209;-0.86;0.21;0.52;0.21;-5.57;-2.57;430.48;-102.56;-200.00;1.03;-111.15;-45.52;12.79 
4.238;-0.88;0.13;0.63;-4.03;-15.65;-7.10;431.48;-103.51;-200.00;1.09;-110.90;-45.45;12.61 
4.268;-0.62;0.18;0.67;5.77;-17.53;-1.39;431.48;-107.35;-204.00;0.93;-110.67;-44.98;12.33 
4.298;-0.64;0.15;0.51;5.91;26.43;-3.06;429.49;-104.47;-204.00;0.83;-110.60;-45.02;12.30 
4.328;-0.79;0.10;0.28;7.58;-2.64;-4.59;431.48;-102.56;-201.00;0.84;-110.27;-45.79;12.23 
4.358;-0.66;0.16;0.46;6.05;-29.36;-0.42;432.47;-103.51;-202.00;0.82;-110.11;-45.53;12.26 
4.388;-0.62;0.16;0.60;1.25;-10.43;2.30;429.49;-106.39;-208.00;0.88;-110.11;-44.84;12.29 
4.419;-0.67;0.11;0.53;-1.04;-1.39;5.77;433.47;-103.51;-207.00;0.86;-110.15;-44.64;12.28 
4.449;-0.66;0.11;0.54;5.08;-8.77;11.48;435.45;-108.31;-205.00;0.86;-110.32;-44.45;12.39 
4.479;-0.68;0.18;0.61;8.56;-9.53;13.77;434.46;-108.31;-207.00;0.93;-110.64;-44.03;12.71 
4.509;-0.73;0.26;0.62;5.63;-6.82;14.47;435.45;-110.22;-209.00;0.99;-111.05;-43.62;13.16 
4.539;-0.67;0.29;0.67;2.78;-4.31;14.96;439.43;-114.06;-209.00;0.99;-111.51;-43.22;13.59 
4.569;-0.72;0.38;0.70;-0.42;-2.43;10.92;441.42;-118.85;-208.00;1.07;-111.95;-42.90;13.96 
4.599;-0.73;0.46;0.64;1.18;-2.71;5.15;443.41;-119.81;-211.00;1.07;-112.18;-42.41;14.23 
4.630;-0.71;0.33;0.67;0.28;-1.25;-2.43;444.40;-120.77;-212.00;1.03;-112.21;-42.26;14.31 
4.660;-0.69;0.30;0.70;-0.49;4.17;-4.94;445.40;-120.77;-209.00;1.03;-112.10;-42.28;14.26 
4.690;-0.66;0.22;0.59;-0.97;7.72;-4.52;444.40;-115.98;-206.00;0.91;-111.93;-42.48;14.14 
4.720;-0.63;0.22;0.54;-0.63;8.35;-3.41;443.41;-116.93;-207.00;0.86;-111.76;-42.76;13.99 
4.749;-0.70;0.20;0.51;-2.57;3.41;-1.39;443.41;-116.93;-204.00;0.89;-111.62;-43.02;13.88 
4.778;-0.72;0.22;0.54;-2.30;-3.34;0.49;439.43;-118.85;-205.00;0.93;-111.56;-43.12;13.77 
4.807;-0.70;0.22;0.56;-1.53;-2.78;0.28;447.38;-115.98;-206.00;0.92;-111.53;-43.03;13.70 
4.836;-0.70;0.23;0.60;-1.67;1.67;-0.70;442.41;-116.93;-208.00;0.95;-111.51;-42.99;13.65 
4.865;-0.74;0.22;0.63;-0.77;0.42;-1.04;441.42;-116.93;-207.00;1.00;-111.45;-43.03;13.58 
4.894;-0.70;0.22;0.64;0.14;2.71;-1.18;442.41;-115.02;-207.00;0.97;-111.39;-43.05;13.50 
4.923;-0.72;0.21;0.59;-0.28;7.44;-0.77;443.41;-115.98;-207.00;0.95;-111.32;-43.19;13.45 
4.952;-0.72;0.21;0.55;0.00;4.17;0.35;441.42;-115.98;-207.00;0.93;-111.25;-43.39;13.38 
4.981;-0.72;0.22;0.56;-1.39;2.64;0.42;443.41;-116.93;-209.00;0.94;-111.21;-43.52;13.35 
5.010;-0.71;0.23;0.56;-1.60;0.77;0.83;442.41;-115.02;-208.00;0.93;-111.19;-43.62;13.30 
5.039;-0.70;0.26;0.58;-0.07;-0.97;0.90;440.42;-114.06;-206.00;0.95;-111.19;-43.61;13.29 
5.068;-0.71;0.24;0.58;-0.56;1.39;-1.46;443.41;-115.98;-209.00;0.95;-111.18;-43.61;13.28 
5.097;-0.70;0.23;0.58;0.21;-0.42;-1.11;439.43;-116.93;-204.00;0.94;-111.11;-43.66;13.22 
5.126;-0.74;0.24;0.62;0.07;0.90;-0.90;440.42;-115.02;-206.00;0.99;-111.08;-43.66;13.20 
5.156;-0.72;0.22;0.58;-0.97;2.37;-0.90;441.42;-113.10;-206.00;0.95;-111.02;-43.72;13.14 
5.187;-0.71;0.22;0.57;-0.28;0.35;-0.28;443.41;-115.98;-205.00;0.94;-110.97;-43.80;13.08 
5.217;-0.72;0.26;0.59;-0.49;1.46;-0.97;440.42;-117.89;-206.00;0.97;-110.94;-43.80;13.05 
5.247;-0.74;0.23;0.55;-0.90;0.83;-1.60;442.41;-115.98;-204.00;0.95;-110.88;-43.87;12.99 
5.277;-0.70;0.20;0.62;0.21;0.83;-0.63;440.42;-114.06;-205.00;0.96;-110.81;-43.92;12.92 
5.307;-0.73;0.23;0.58;-0.90;1.46;-0.21;442.41;-115.02;-207.00;0.96;-110.77;-43.94;12.87 
5.337;-0.70;0.23;0.58;-0.83;-0.35;0.35;440.42;-115.02;-205.00;0.94;-110.77;-43.96;12.84 
5.367;-0.70;0.23;0.62;-0.35;0.42;0.14;442.41;-113.10;-208.00;0.96;-110.76;-43.92;12.81 
5.398;-0.70;0.22;0.60;-0.83;4.10;-0.28;442.41;-116.93;-206.00;0.95;-110.74;-43.98;12.78 
5.428;-0.71;0.23;0.54;-0.35;1.39;0.56;442.41;-115.02;-208.00;0.92;-110.72;-44.10;12.75 
5.458;-0.70;0.22;0.58;-0.28;-0.63;-0.42;442.41;-116.93;-207.00;0.94;-110.70;-44.13;12.73 
5.489;-0.70;0.22;0.60;-0.49;-0.21;0.00;442.41;-115.02;-206.00;0.95;-110.68;-44.13;12.70 
5.519;-0.70;0.26;0.56;-0.70;2.16;-0.49;440.42;-112.14;-206.00;0.93;-110.68;-44.14;12.68 
5.549;-0.71;0.23;0.53;-0.56;2.09;0.00;439.43;-114.06;-205.00;0.92;-110.67;-44.20;12.65 
5.579;-0.69;0.23;0.58;0.21;0.14;0.14;438.44;-115.98;-207.00;0.93;-110.65;-44.27;12.63 
5.608;-0.70;0.25;0.58;-0.63;1.25;-0.56;440.42;-114.06;-206.00;0.94;-110.62;-44.27;12.59 
5.638;-0.73;0.23;0.59;-0.90;0.21;0.14;440.42;-115.02;-207.00;0.97;-110.59;-44.33;12.54 
5.667;-0.69;0.22;0.59;-0.49;-0.56;0.49;442.41;-117.89;-209.00;0.93;-110.61;-44.29;12.54 
5.697;-0.70;0.22;0.59;-0.35;4.10;-0.63;436.45;-115.98;-206.00;0.94;-110.61;-44.32;12.51 
5.727;-0.74;0.22;0.54;-0.77;-0.14;-0.35;440.42;-115.98;-208.00;0.94;-110.58;-44.42;12.46 
5.757;-0.68;0.20;0.58;0.21;0.83;0.07;442.41;-114.06;-208.00;0.92;-110.55;-44.42;12.41 
5.788;-0.73;0.22;0.55;-0.42;2.50;-0.35;441.42;-115.02;-205.00;0.94;-110.54;-44.47;12.38 
5.818;-0.71;0.24;0.57;-0.97;-0.63;-0.21;440.42;-115.98;-206.00;0.94;-110.52;-44.52;12.34 
5.848;-0.66;0.21;0.61;0.07;1.67;0.28;439.43;-114.06;-208.00;0.92;-110.53;-44.49;12.32 
5.878;-0.70;0.20;0.54;-0.35;4.17;0.56;436.45;-115.02;-208.00;0.91;-110.54;-44.57;12.30 
5.909;-0.74;0.22;0.53;-0.21;-0.49;0.00;443.41;-114.06;-206.00;0.94;-110.53;-44.66;12.27 
5.939;-0.69;0.21;0.62;-0.14;0.07;1.11;443.41;-114.06;-207.00;0.95;-110.54;-44.61;12.25 
5.969;-0.73;0.26;0.59;-0.42;2.23;0.35;440.42;-116.93;-207.00;0.97;-110.56;-44.64;12.24 
6.000;-0.70;0.23;0.58;-0.56;1.11;-0.56;442.41;-112.14;-207.00;0.94;-110.58;-44.67;12.24 
6.030;-0.72;0.21;0.59;-0.56;2.43;-0.35;441.42;-114.06;-208.00;0.95;-110.57;-44.70;12.21 
6.060;-0.72;0.23;0.56;0.07;0.90;-0.70;441.42;-115.02;-206.00;0.94;-110.55;-44.78;12.18 
6.090;-0.71;0.25;0.59;-0.70;0.28;-0.83;441.42;-111.18;-205.00;0.96;-110.53;-44.81;12.15 
6.120;-0.73;0.22;0.58;-0.35;2.37;-0.35;441.42;-115.98;-206.00;0.96;-110.51;-44.85;12.11 
6.150;-0.70;0.21;0.58;-0.14;0.63;-0.35;437.44;-112.14;-205.00;0.93;-110.51;-44.91;12.09 
6.180;-0.74;0.23;0.54;-1.11;0.70;-0.14;441.42;-115.02;-207.00;0.94;-110.51;-44.93;12.07 
6.211;-0.70;0.20;0.57;0.14;0.21;0.14;441.42;-114.06;-208.00;0.92;-110.50;-44.94;12.04 
6.240;-0.70;0.22;0.57;-0.28;1.53;0.00;442.41;-115.02;-205.00;0.93;-110.51;-44.95;12.03 
6.270;-0.72;0.19;0.58;-0.77;1.46;0.00;440.42;-115.02;-206.00;0.94;-110.51;-44.99;12.00 
6.300;-0.76;0.25;0.58;-0.35;-0.14;0.21;440.42;-113.10;-207.00;0.99;-110.52;-45.01;11.98 
6.330;-0.70;0.24;0.60;-0.56;1.18;0.07;440.42;-115.02;-206.00;0.95;-110.55;-44.99;11.98 
6.360;-0.71;0.22;0.60;-0.21;4.38;0.14;441.42;-115.02;-206.00;0.96;-110.56;-45.06;11.97 
6.390;-0.73;0.21;0.55;0.00;0.00;-0.21;443.41;-111.18;-209.00;0.94;-110.56;-45.17;11.96 
6.421;-0.73;0.20;0.62;-0.14;-0.42;-0.56;438.44;-115.02;-205.00;0.98;-110.55;-45.14;11.93 
6.451;-0.74;0.22;0.58;-1.25;2.99;-0.49;437.44;-115.98;-208.00;0.97;-110.55;-45.19;11.91 
6.481;-0.71;0.22;0.57;-0.56;0.77;0.07;443.41;-113.10;-206.00;0.94;-110.55;-45.25;11.87 
6.512;-0.74;0.24;0.59;-0.49;1.04;-0.14;441.42;-110.22;-206.00;0.98;-110.56;-45.29;11.86 
6.542;-0.73;0.25;0.58;0.07;0.97;0.49;441.42;-114.06;-207.00;0.97;-110.56;-45.33;11.84 
6.571;-0.70;0.23;0.57;-0.21;1.25;0.00;439.43;-115.98;-207.00;0.93;-110.60;-45.36;11.86 
6.601;-0.70;0.23;0.56;-0.70;0.56;-0.56;441.42;-114.06;-206.00;0.93;-110.61;-45.40;11.85 
6.631;-0.70;0.20;0.59;-0.14;-1.18;0.21;442.41;-113.10;-207.00;0.94;-110.61;-45.40;11.82 
6.661;-0.70;0.22;0.62;-0.83;1.60;0.14;441.42;-115.02;-206.00;0.96;-110.64;-45.37;11.82 
6.691;-0.74;0.23;0.58;-0.77;1.67;0.42;439.43;-113.10;-207.00;0.97;-110.68;-45.43;11.82 
6.722;-0.70;0.25;0.59;0.14;1.32;0.56;440.42;-112.14;-206.00;0.95;-110.70;-45.46;11.83 
6.752;-0.72;0.25;0.58;-0.83;2.16;-0.42;441.42;-114.06;-208.00;0.96;-110.72;-45.50;11.83 
6.782;-0.73;0.21;0.60;-0.49;0.21;0.28;438.44;-113.10;-205.00;0.97;-110.73;-45.54;11.81 
6.812;-0.73;0.24;0.59;0.21;0.70;0.35;440.42;-115.02;-206.00;0.97;-110.76;-45.55;11.82 
6.841;-0.70;0.22;0.57;-0.90;2.43;0.14;439.43;-113.10;-205.00;0.93;-110.79;-45.58;11.81 
6.870;-0.69;0.18;0.57;0.35;2.30;0.63;441.42;-115.02;-207.00;0.91;-110.80;-45.64;11.79 
6.899;-0.72;0.22;0.54;0.77;1.04;1.18;442.41;-115.02;-206.00;0.93;-110.83;-45.68;11.80 
6.928;-0.73;0.22;0.58;-0.63;1.74;0.49;443.41;-115.02;-206.00;0.96;-110.87;-45.71;11.82 
6.958;-0.74;0.22;0.55;-0.49;2.64;1.67;445.40;-114.06;-209.00;0.95;-110.88;-45.76;11.79 
6.988;-0.72;0.22;0.58;-0.35;0.97;1.95;439.43;-113.10;-208.00;0.95;-110.94;-45.82;11.81 
7.019;-0.70;0.24;0.59;0.28;1.53;1.53;443.41;-115.98;-209.00;0.95;-111.05;-45.80;11.89 
7.048;-0.74;0.24;0.55;-0.28;1.67;0.14;438.44;-113.10;-208.00;0.95;-111.10;-45.85;11.93 
7.078;-0.71;0.23;0.58;-0.21;-0.97;0.07;443.41;-115.98;-204.00;0.95;-111.12;-45.87;11.92 
7.109;-0.70;0.24;0.58;-0.21;1.39;-0.42;440.42;-115.02;-206.00;0.94;-111.14;-45.85;11.91 
7.139;-0.72;0.22;0.57;-0.97;1.11;-0.83;441.42;-115.02;-207.00;0.94;-111.15;-45.91;11.90 
7.169;-0.70;0.22;0.58;-0.21;-1.95;-0.28;438.44;-113.10;-207.00;0.94;-111.14;-45.90;11.86 
7.199;-0.70;0.23;0.58;-1.18;0.83;-0.49;439.43;-115.98;-207.00;0.94;-111.15;-45.84;11.83 
7.229;-0.72;0.22;0.58;-1.11;0.56;-1.11;439.43;-114.06;-205.00;0.95;-111.14;-45.87;11.78 
7.259;-0.70;0.22;0.59;-0.07;-0.70;-0.49;439.43;-113.10;-206.00;0.94;-111.15;-45.86;11.76 
7.289;-0.70;0.22;0.56;-0.70;2.92;-0.35;442.41;-113.10;-204.00;0.92;-111.16;-45.87;11.73 
7.319;-0.71;0.20;0.54;-0.56;0.14;0.07;440.42;-113.10;-204.00;0.91;-111.17;-45.92;11.71 
7.348;-0.71;0.22;0.57;0.21;1.60;0.42;441.42;-115.98;-205.00;0.94;-111.21;-45.91;11.72 
7.377;-0.73;0.22;0.54;-0.63;1.81;0.07;442.41;-113.10;-206.00;0.93;-111.23;-45.96;11.71 
7.407;-0.71;0.22;0.58;-0.35;0.49;0.28;442.41;-117.89;-207.00;0.94;-111.26;-46.00;11.72 
7.436;-0.74;0.22;0.56;-0.77;1.95;-0.42;442.41;-116.93;-205.00;0.95;-111.28;-46.03;11.71 
7.465;-0.70;0.22;0.55;-0.28;-1.39;-0.07;445.40;-113.10;-203.00;0.92;-111.29;-46.07;11.70 
7.495;-0.68;0.22;0.60;0.35;-0.28;-0.07;441.42;-114.06;-207.00;0.93;-111.30;-46.04;11.68 
7.524;-0.72;0.24;0.58;-1.11;2.99;-1.04;444.40;-112.14;-206.00;0.96;-111.32;-46.04;11.67 
7.554;-0.71;0.25;0.57;-1.18;0.07;-0.21;440.42;-114.06;-206.00;0.94;-111.33;-46.09;11.64 
7.584;-0.70;0.24;0.57;-0.77;0.14;-0.97;440.42;-115.02;-207.00;0.93;-111.35;-46.09;11.61 
7.613;-0.73;0.22;0.58;-0.70;1.25;-1.25;436.45;-113.10;-206.00;0.96;-111.34;-46.12;11.58 
7.642;-0.74;0.22;0.55;-0.63;0.07;-1.32;441.42;-113.10;-208.00;0.95;-111.33;-46.16;11.54 
7.672;-0.72;0.22;0.58;-1.04;1.25;-0.77;443.41;-113.10;-204.00;0.95;-111.31;-46.18;11.50 
7.703;-0.72;0.21;0.56;-0.49;1.04;-0.35;438.44;-115.02;-209.00;0.94;-111.32;-46.22;11.47 
7.732;-0.71;0.23;0.58;-1.04;-0.42;-0.83;441.42;-115.02;-207.00;0.95;-111.33;-46.24;11.44 
7.762;-0.69;0.21;0.59;-0.63;0.00;0.07;441.42;-114.06;-209.00;0.93;-111.35;-46.23;11.42 
7.792;-0.71;0.26;0.62;-0.42;0.97;-0.49;440.42;-113.10;-204.00;0.98;-111.39;-46.20;11.42 
7.821;-0.71;0.23;0.54;-0.90;2.64;-0.49;441.42;-113.10;-206.00;0.92;-111.41;-46.25;11.40 
7.851;-0.68;0.19;0.60;0.49;2.43;-0.35;442.41;-113.10;-210.00;0.93;-111.42;-46.32;11.39 
7.880;-0.70;0.18;0.55;0.21;1.04;-1.04;443.41;-112.14;-204.00;0.91;-111.40;-46.40;11.36 
7.909;-0.72;0.20;0.59;-0.14;0.49;0.00;442.41;-111.18;-207.00;0.95;-111.40;-46.41;11.34 
7.938;-0.68;0.22;0.64;0.00;4.80;0.07;439.43;-114.06;-207.00;0.96;-111.43;-46.44;11.34 
7.968;-0.71;0.21;0.56;0.07;5.15;0.70;441.42;-115.02;-204.00;0.93;-111.44;-46.58;11.35 
7.998;-0.72;0.22;0.58;-0.14;2.16;0.97;443.41;-112.14;-206.00;0.95;-111.47;-46.70;11.36 
8.028;-0.74;0.23;0.60;0.14;3.06;1.39;441.42;-115.02;-206.00;0.98;-111.54;-46.72;11.39 
8.058;-0.76;0.26;0.55;-0.49;2.78;1.18;444.40;-114.06;-207.00;0.97;-111.59;-46.82;11.43 
8.089;-0.74;0.25;0.56;0.42;0.00;0.07;439.43;-114.06;-204.00;0.96;-111.66;-46.89;11.48 
8.119;-0.72;0.25;0.58;-0.21;0.90;-0.21;440.42;-112.14;-205.00;0.96;-111.70;-46.88;11.51 
8.149;-0.74;0.25;0.57;-1.18;0.63;-1.18;443.41;-110.22;-205.00;0.97;-111.72;-46.93;11.51 
8.179;-0.70;0.22;0.56;-0.07;-0.07;-1.25;442.41;-113.10;-204.00;0.92;-111.71;-46.95;11.47 
8.209;-0.73;0.22;0.58;0.07;0.49;-0.97;439.43;-113.10;-203.00;0.96;-111.70;-46.94;11.43 
8.239;-0.74;0.20;0.56;-0.70;0.83;-0.21;437.44;-113.10;-205.00;0.95;-111.71;-46.98;11.41 
8.269;-0.69;0.21;0.58;-0.77;1.04;0.42;440.42;-110.22;-203.00;0.93;-111.73;-46.98;11.39 
8.300;-0.70;0.20;0.61;-0.28;4.80;0.35;438.44;-111.18;-204.00;0.95;-111.78;-47.02;11.40 
8.330;-0.72;0.22;0.56;-0.21;1.53;-0.14;442.41;-113.10;-202.00;0.94;-111.81;-47.12;11.41 
8.360;-0.71;0.25;0.60;0.14;0.07;-0.21;443.41;-110.22;-206.00;0.96;-111.84;-47.15;11.44 
8.391;-0.73;0.22;0.58;0.14;2.30;-0.14;442.41;-111.18;-206.00;0.96;-111.88;-47.17;11.46 
8.421;-0.74;0.21;0.58;0.07;2.57;-0.14;440.42;-112.14;-201.00;0.96;-111.91;-47.24;11.48 
8.451;-0.74;0.23;0.58;0.14;1.46;0.35;441.42;-113.10;-202.00;0.97;-111.93;-47.31;11.49 
8.481;-0.74;0.22;0.54;-0.42;0.90;0.97;440.42;-111.18;-205.00;0.94;-111.96;-47.39;11.50 
8.512;-0.72;0.26;0.54;-0.14;0.77;0.56;442.41;-112.14;-204.00;0.94;-112.01;-47.43;11.53 
8.542;-0.71;0.23;0.54;-0.35;1.04;-0.21;441.42;-112.14;-204.00;0.92;-112.04;-47.44;11.54 
8.572;-0.74;0.23;0.55;0.07;0.14;0.63;444.40;-111.18;-204.00;0.95;-112.08;-47.45;11.55 
8.603;-0.71;0.23;0.54;-0.35;0.77;0.35;442.41;-113.10;-201.00;0.92;-112.12;-47.43;11.55 
8.633;-0.71;0.21;0.55;-0.90;2.09;-0.42;438.44;-110.22;-205.00;0.92;-112.17;-47.45;11.56 
8.663;-0.75;0.25;0.56;-0.14;1.53;-0.14;439.43;-115.98;-201.00;0.97;-112.20;-47.50;11.58 
8.693;-0.73;0.22;0.58;-1.04;0.90;0.00;441.42;-114.06;-205.00;0.96;-112.23;-47.54;11.58 
8.723;-0.73;0.24;0.54;-0.28;1.88;0.56;443.41;-114.06;-203.00;0.94;-112.27;-47.57;11.59 
8.753;-0.74;0.22;0.55;-0.14;2.02;-0.56;441.42;-113.10;-203.00;0.95;-112.30;-47.61;11.59 
8.783;-0.72;0.21;0.56;-0.49;0.77;-1.04;443.41;-113.10;-206.00;0.94;-112.29;-47.66;11.57 
8.814;-0.72;0.22;0.57;-0.28;0.07;-0.49;441.42;-112.14;-204.00;0.94;-112.29;-47.68;11.54 
8.844;-0.72;0.18;0.58;-0.56;1.11;-0.49;440.42;-110.22;-202.00;0.94;-112.31;-47.66;11.52 
8.874;-0.72;0.23;0.58;0.00;1.88;0.07;438.44;-111.18;-205.00;0.95;-112.34;-47.68;11.51 
8.904;-0.74;0.23;0.56;-0.77;2.23;-0.28;443.41;-112.14;-203.00;0.96;-112.36;-47.75;11.52 
8.934;-0.72;0.19;0.61;0.35;0.14;0.28;439.43;-111.18;-203.00;0.96;-112.36;-47.82;11.52 
8.964;-0.71;0.21;0.56;0.35;0.83;0.49;443.41;-112.14;-201.00;0.93;-112.42;-47.82;11.56 
8.994;-0.77;0.23;0.54;-1.32;0.77;0.07;438.44;-113.10;-202.00;0.97;-112.44;-47.86;11.56 
9.025;-0.70;0.22;0.57;0.07;-0.07;0.90;441.42;-111.18;-204.00;0.93;-112.48;-47.88;11.56 
9.054;-0.75;0.26;0.57;-0.42;2.02;-0.14;443.41;-115.02;-202.00;0.98;-112.54;-47.88;11.60 
9.084;-0.72;0.22;0.52;-0.35;-0.49;-0.63;440.42;-111.18;-203.00;0.91;-112.57;-47.92;11.61 
9.115;-0.71;0.24;0.58;0.28;-0.28;-0.63;440.42;-109.27;-201.00;0.95;-112.59;-47.89;11.61 
9.145;-0.74;0.22;0.55;-1.04;0.07;-0.70;439.43;-110.22;-205.00;0.95;-112.61;-47.88;11.60 
9.174;-0.72;0.20;0.60;-0.28;-0.42;0.00;442.41;-111.18;-203.00;0.96;-112.63;-47.87;11.59 
9.203;-0.73;0.22;0.58;-0.77;2.16;-0.28;438.44;-112.14;-206.00;0.96;-112.66;-47.84;11.57 
9.232;-0.71;0.22;0.56;-0.56;1.88;0.00;443.41;-111.18;-203.00;0.93;-112.67;-47.91;11.54 
9.262;-0.70;0.22;0.54;-0.28;1.88;0.07;437.44;-111.18;-202.00;0.91;-112.69;-47.95;11.54 
9.292;-0.74;0.22;0.53;-0.77;0.49;-0.14;441.42;-115.02;-204.00;0.94;-112.71;-48.00;11.54 
9.323;-0.74;0.22;0.54;-0.70;-1.60;-0.49;438.44;-109.27;-204.00;0.94;-112.74;-47.99;11.53 
9.353;-0.70;0.20;0.58;-0.28;0.70;-0.63;441.42;-113.10;-202.00;0.93;-112.77;-47.96;11.54 
9.383;-0.74;0.22;0.58;-0.56;3.06;-0.07;442.41;-115.02;-205.00;0.97;-112.79;-47.99;11.52 
9.414;-0.74;0.22;0.53;-0.56;-0.49;-0.56;443.41;-112.14;-203.00;0.94;-112.80;-48.05;11.50 
9.444;-0.71;0.22;0.56;-0.14;-0.21;-0.07;440.42;-114.06;-206.00;0.93;-112.83;-48.00;11.49 
9.474;-0.72;0.23;0.57;-0.90;2.71;-0.14;441.42;-113.10;-204.00;0.95;-112.88;-48.01;11.51 
9.504;-0.72;0.23;0.55;-0.77;0.63;-0.35;440.42;-111.18;-204.00;0.93;-112.90;-48.06;11.49 
9.534;-0.75;0.22;0.54;-0.14;0.14;-0.77;437.44;-114.06;-204.00;0.95;-112.92;-48.06;11.48 
9.564;-0.73;0.22;0.58;-0.83;-0.90;-1.04;440.42;-112.14;-203.00;0.96;-112.93;-48.06;11.48 
9.594;-0.72;0.22;0.58;-0.90;0.07;-0.42;441.42;-111.18;-206.00;0.95;-112.96;-48.05;11.46 
9.625;-0.74;0.22;0.56;-0.28;0.70;-0.21;439.43;-112.14;-205.00;0.95;-112.97;-48.07;11.45 
9.655;-0.73;0.22;0.59;-0.49;0.90;0.00;443.41;-110.22;-204.00;0.96;-113.01;-48.05;11.45 
9.685;-0.74;0.24;0.54;-0.77;1.67;0.00;440.42;-111.18;-203.00;0.95;-113.03;-48.10;11.44 
9.715;-0.71;0.23;0.53;-0.70;-0.56;0.14;439.43;-114.06;-203.00;0.92;-113.07;-48.11;11.45 
9.745;-0.71;0.23;0.58;-0.28;1.67;-0.21;439.43;-111.18;-201.00;0.95;-113.13;-48.10;11.48 
9.775;-0.74;0.22;0.58;-0.56;0.90;-0.70;438.44;-114.06;-204.00;0.97;-113.16;-48.11;11.48 
9.805;-0.74;0.22;0.58;-0.42;0.56;-0.77;442.41;-112.14;-203.00;0.97;-113.16;-48.13;11.45 
9.836;-0.73;0.22;0.54;-0.42;0.70;-0.70;442.41;-115.02;-204.00;0.93;-113.16;-48.16;11.44 
9.866;-0.74;0.22;0.54;-0.77;1.04;-0.07;439.43;-110.22;-203.00;0.94;-113.18;-48.18;11.42 
9.896;-0.74;0.23;0.54;-0.70;0.90;-0.21;441.42;-110.22;-203.00;0.94;-113.20;-48.23;11.42 
9.927;-0.73;0.23;0.57;-0.35;0.35;0.07;439.43;-112.14;-202.00;0.95;-113.27;-48.20;11.45 
9.957;-0.72;0.21;0.56;-0.14;0.35;-0.35;440.42;-112.14;-204.00;0.94;-113.28;-48.19;11.43 
9.987;-0.70;0.20;0.57;0.14;0.49;-0.49;440.42;-112.14;-204.00;0.92;-113.30;-48.19;11.43 
10.017;-0.73;0.22;0.56;-0.56;1.74;-0.35;438.44;-109.27;-205.00;0.95;-113.32;-48.20;11.42 
10.048;-0.70;0.21;0.58;-0.49;2.30;0.00;441.42;-112.14;-203.00;0.93;-113.37;-48.22;11.43 
10.078;-0.71;0.22;0.55;0.07;2.50;0.00;442.41;-113.10;-204.00;0.92;-113.40;-48.29;11.44 
10.107;-0.72;0.23;0.57;0.07;2.43;0.14;441.42;-114.06;-202.00;0.95;-113.40;-48.38;11.46 
10.137;-0.74;0.23;0.54;-0.42;1.46;0.21;442.41;-111.18;-203.00;0.94;-113.42;-48.44;11.46 
10.166;-0.73;0.26;0.58;0.14;1.81;0.83;440.42;-111.18;-203.00;0.97;-113.47;-48.46;11.49 
10.195;-0.73;0.22;0.56;-0.49;3.76;0.14;440.42;-111.18;-205.00;0.95;-113.51;-48.52;11.52 
10.224;-0.78;0.21;0.52;-0.49;-0.77;-0.56;440.42;-111.18;-204.00;0.96;-113.53;-48.59;11.54 
10.253;-0.71;0.24;0.63;0.21;0.07;0.07;441.42;-111.18;-203.00;0.98;-113.57;-48.54;11.54 
10.283;-0.72;0.22;0.55;0.00;3.34;-0.28;442.41;-111.18;-203.00;0.93;-113.61;-48.55;11.56 
10.312;-0.75;0.22;0.54;-0.97;0.56;-0.83;441.42;-110.22;-202.00;0.95;-113.62;-48.64;11.56 
10.341;-0.73;0.22;0.57;0.00;-1.60;-0.21;440.42;-107.35;-201.00;0.95;-113.66;-48.60;11.58 
10.370;-0.70;0.19;0.57;-0.28;1.88;-0.49;440.42;-111.18;-206.00;0.92;-113.70;-48.58;11.60 
10.400;-0.72;0.20;0.58;0.56;0.28;-0.63;440.42;-112.14;-200.00;0.95;-113.70;-48.62;11.58 
10.429;-0.70;0.19;0.55;0.35;0.90;-0.14;441.42;-109.27;-205.00;0.91;-113.71;-48.62;11.59 
10.458;-0.74;0.21;0.54;0.28;0.49;0.97;438.44;-109.27;-203.00;0.94;-113.74;-48.62;11.60 
10.487;-0.75;0.22;0.58;0.00;1.88;1.32;444.40;-113.10;-200.00;0.97;-113.80;-48.63;11.63 
10.517;-0.73;0.21;0.54;0.00;3.34;1.95;440.42;-114.06;-203.00;0.93;-113.86;-48.69;11.68 
10.547;-0.75;0.22;0.53;-0.14;1.18;2.37;442.41;-113.10;-201.00;0.94;-113.94;-48.74;11.73 
10.577;-0.70;0.26;0.54;-0.49;1.11;1.04;443.41;-109.27;-203.00;0.92;-114.04;-48.75;11.80 
10.608;-0.72;0.26;0.54;-0.56;0.97;0.35;444.40;-110.22;-201.00;0.94;-114.11;-48.76;11.86 
10.638;-0.74;0.23;0.55;-0.14;-1.74;-0.21;441.42;-111.18;-208.00;0.95;-114.15;-48.75;11.87 
10.668;-0.74;0.22;0.59;-0.07;-1.67;-1.18;440.42;-113.10;-202.00;0.97;-114.18;-48.70;11.87 
10.698;-0.69;0.22;0.59;-0.56;2.50;-1.04;441.42;-112.14;-205.00;0.93;-114.20;-48.66;11.86 
10.728;-0.72;0.22;0.51;-0.77;3.55;-1.53;440.42;-113.10;-202.00;0.91;-114.21;-48.73;11.85 
10.757;-0.73;0.21;0.58;-0.14;0.90;-1.11;440.42;-110.22;-203.00;0.96;-114.18;-48.81;11.82 
10.786;-0.73;0.19;0.55;-0.21;2.92;-0.56;442.41;-112.14;-201.00;0.93;-114.15;-48.85;11.77 
10.816;-0.76;0.23;0.54;-1.46;1.74;0.07;439.43;-111.18;-199.00;0.96;-114.14;-48.95;11.75 
10.845;-0.73;0.24;0.60;-0.28;-1.04;1.04;440.42;-113.10;-203.00;0.97;-114.18;-48.97;11.76 
10.874;-0.74;0.25;0.58;-0.63;2.37;0.14;442.41;-112.14;-200.00;0.97;-114.24;-48.95;11.79 
10.904;-0.73;0.19;0.53;-0.42;0.00;0.42;441.42;-113.10;-202.00;0.92;-114.27;-49.00;11.79 
10.933;-0.74;0.20;0.58;0.56;0.07;0.83;439.43;-111.18;-203.00;0.96;-114.30;-49.00;11.81 
10.962;-0.75;0.24;0.54;-0.77;-0.07;-0.28;441.42;-111.18;-202.00;0.95;-114.35;-48.99;11.84 
10.992;-0.72;0.19;0.58;-0.07;-1.11;0.35;441.42;-113.10;-202.00;0.94;-114.39;-48.98;11.85 
11.021;-0.72;0.23;0.57;0.21;1.25;0.63;441.42;-111.18;-201.00;0.95;-114.45;-48.94;11.88 
11.051;-0.74;0.22;0.55;-0.77;1.46;0.83;440.42;-113.10;-203.00;0.95;-114.48;-48.98;11.89 
11.081;-0.71;0.22;0.62;0.35;-1.11;1.39;438.44;-111.18;-202.00;0.97;-114.55;-48.95;11.94 
11.111;-0.75;0.22;0.56;-0.35;-1.25;0.63;439.43;-110.22;-204.00;0.96;-114.61;-48.92;11.98 
11.141;-0.74;0.20;0.57;0.07;-1.88;0.90;444.40;-111.18;-203.00;0.96;-114.66;-48.88;11.99 
11.171;-0.74;0.26;0.58;-0.28;0.28;1.67;444.40;-113.10;-206.00;0.98;-114.75;-48.82;12.05 
11.202;-0.74;0.22;0.57;-0.70;-0.42;2.50;441.42;-109.27;-204.00;0.96;-114.83;-48.82;12.10 
11.232;-0.65;0.22;0.54;0.56;-2.92;2.02;440.42;-112.14;-202.00;0.87;-114.95;-48.74;12.17 
11.262;-0.62;0.24;0.60;-0.49;0.35;0.90;442.41;-115.02;-204.00;0.90;-115.08;-48.61;12.25 
11.291;-0.66;0.24;0.56;-0.70;2.37;0.21;441.42;-115.02;-202.00;0.90;-115.17;-48.57;12.31 
11.320;-0.70;0.24;0.59;-0.97;2.50;-1.04;440.42;-115.02;-201.00;0.95;-115.21;-48.57;12.33 
11.350;-0.75;0.22;0.58;-0.49;3.69;-2.30;440.42;-112.14;-204.00;0.97;-115.19;-48.65;12.29 
11.380;-0.73;0.22;0.57;0.83;3.20;-2.16;440.42;-113.10;-203.00;0.95;-115.15;-48.74;12.27 
11.410;-0.78;0.24;0.55;-0.70;4.17;-1.88;441.42;-111.18;-203.00;0.98;-115.09;-48.90;12.25 
11.440;-0.74;0.20;0.51;-0.14;-0.14;-0.83;439.43;-112.14;-203.00;0.92;-115.05;-48.99;12.20 
11.470;-0.74;0.19;0.56;-0.28;1.18;-0.83;442.41;-112.14;-203.00;0.95;-115.02;-49.01;12.17 
11.500;-0.73;0.22;0.53;-0.28;-0.42;-0.21;444.40;-112.14;-201.00;0.93;-115.01;-49.08;12.15 
11.529;-0.70;0.24;0.57;-0.49;-0.14;1.04;439.43;-113.10;-201.00;0.93;-115.05;-49.05;12.18 
11.558;-0.73;0.26;0.58;-1.46;1.39;0.49;442.41;-113.10;-203.00;0.97;-115.13;-49.03;12.22 
11.588;-0.74;0.26;0.58;-0.07;-0.56;-0.07;441.42;-113.10;-202.00;0.98;-115.18;-49.02;12.24 
11.617;-0.72;0.23;0.58;0.28;3.34;-0.63;443.41;-113.10;-203.00;0.95;-115.21;-49.02;12.27 
11.646;-0.74;0.23;0.52;-0.42;2.09;-0.70;442.41;-112.14;-201.00;0.93;-115.20;-49.11;12.27 
11.675;-0.74;0.22;0.56;-0.70;-0.49;-0.28;442.41;-114.06;-202.00;0.95;-115.21;-49.13;12.27 
11.704;-0.71;0.24;0.58;-1.04;1.53;-0.35;441.42;-115.02;-204.00;0.95;-115.24;-49.12;12.26 
11.733;-0.73;0.22;0.57;-0.97;-0.14;-0.49;442.41;-110.22;-204.00;0.95;-115.26;-49.13;12.24 
11.762;-0.71;0.24;0.56;-0.07;-1.39;-0.77;442.41;-111.18;-205.00;0.94;-115.28;-49.11;12.23 
11.792;-0.68;0.22;0.58;-0.49;2.78;-0.70;440.42;-112.14;-207.00;0.92;-115.31;-49.10;12.25 
11.822;-0.77;0.23;0.54;-1.53;0.21;-0.83;438.44;-112.14;-205.00;0.97;-115.31;-49.17;12.24 
11.852;-0.70;0.21;0.58;-0.07;-2.16;-1.11;439.43;-111.18;-205.00;0.93;-115.31;-49.14;12.21 
11.881;-0.74;0.24;0.58;-1.39;3.90;-0.70;441.42;-113.10;-202.00;0.97;-115.33;-49.11;12.19 
11.911;-0.78;0.23;0.56;-1.53;-0.42;-0.21;441.42;-110.22;-205.00;0.99;-115.32;-49.21;12.17 
11.941;-0.67;0.21;0.58;0.97;-0.63;0.56;441.42;-112.14;-203.00;0.91;-115.35;-49.15;12.17 
11.972;-0.74;0.26;0.54;-1.39;2.71;-0.77;439.43;-114.06;-201.00;0.95;-115.38;-49.17;12.19 
12.002;-0.71;0.21;0.54;-0.56;-2.09;-0.56;438.44;-111.18;-203.00;0.92;-115.39;-49.19;12.17 
12.032;-0.70;0.25;0.60;-0.35;0.42;-0.14;441.42;-111.18;-206.00;0.96;-115.43;-49.13;12.18 
12.061;-0.74;0.20;0.56;-0.70;-0.28;-0.63;441.42;-111.18;-205.00;0.95;-115.43;-49.16;12.17 
12.090;-0.70;0.21;0.60;0.28;-1.11;-0.35;440.42;-110.22;-203.00;0.95;-115.44;-49.13;12.16 
12.119;-0.72;0.23;0.58;-0.90;3.90;-0.21;440.42;-115.98;-203.00;0.95;-115.47;-49.11;12.16 
12.149;-0.73;0.21;0.54;-0.42;1.67;0.21;442.41;-112.14;-203.00;0.93;-115.50;-49.21;12.19 
12.178;-0.68;0.22;0.58;0.21;1.81;0.00;440.42;-112.14;-201.00;0.92;-115.55;-49.20;12.21 
12.207;-0.73;0.21;0.54;-1.32;0.77;0.35;440.42;-112.14;-206.00;0.93;-115.57;-49.24;12.22 
12.236;-0.71;0.25;0.59;-1.18;-0.70;0.70;440.42;-112.14;-202.00;0.96;-115.65;-49.20;12.26 
12.265;-0.67;0.26;0.58;-1.18;4.73;-0.07;441.42;-110.22;-207.00;0.92;-115.73;-49.17;12.29 
12.294;-0.74;0.24;0.55;-0.49;2.71;-0.90;440.42;-113.10;-204.00;0.95;-115.76;-49.24;12.31 
12.323;-0.71;0.21;0.57;-0.14;-0.07;-2.23;438.44;-112.14;-204.00;0.93;-115.74;-49.29;12.30 
12.353;-0.74;0.22;0.60;-0.77;2.37;-2.09;441.42;-111.18;-204.00;0.98;-115.69;-49.31;12.24 
12.382;-0.72;0.19;0.58;0.21;2.85;-1.04;438.44;-109.27;-203.00;0.94;-115.64;-49.38;12.18 
12.412;-0.73;0.22;0.56;-0.35;3.13;-1.04;439.43;-108.31;-200.00;0.95;-115.61;-49.47;12.16 
12.442;-0.74;0.20;0.55;-0.56;1.18;0.00;442.41;-110.22;-204.00;0.94;-115.60;-49.54;12.14 
12.471;-0.73;0.22;0.59;-0.14;0.83;0.90;438.44;-111.18;-200.00;0.96;-115.64;-49.55;12.15 
12.500;-0.71;0.24;0.56;0.42;1.25;0.77;442.41;-110.22;-202.00;0.94;-115.68;-49.58;12.19 
12.529;-0.74;0.23;0.58;0.35;2.50;0.70;440.42;-109.27;-204.00;0.97;-115.73;-49.59;12.25 
12.558;-0.76;0.25;0.58;-0.83;1.46;0.00;440.42;-113.10;-203.00;0.99;-115.77;-49.65;12.29 
12.587;-0.72;0.21;0.58;0.28;1.18;0.42;444.40;-109.27;-202.00;0.95;-115.80;-49.68;12.32 
12.616;-0.72;0.22;0.57;-0.49;3.97;0.14;442.41;-108.31;-205.00;0.94;-115.82;-49.74;12.35 
12.645;-0.74;0.23;0.53;-0.90;0.63;0.70;440.42;-111.18;-203.00;0.94;-115.86;-49.79;12.38 
12.674;-0.74;0.25;0.57;-0.70;0.83;0.14;439.43;-111.18;-203.00;0.97;-115.92;-49.78;12.42 
12.703;-0.70;0.24;0.62;-0.77;2.92;-0.07;441.42;-108.31;-206.00;0.97;-115.97;-49.82;12.46 
12.732;-0.76;0.24;0.57;-0.35;2.37;-0.90;440.42;-107.35;-205.00;0.98;-115.98;-49.90;12.46 
12.761;-0.74;0.22;0.56;-0.35;-0.07;-2.02;441.42;-112.14;-204.00;0.95;-115.96;-49.95;12.45 
12.791;-0.71;0.21;0.58;0.35;1.53;-0.90;440.42;-109.27;-204.00;0.94;-115.92;-49.94;12.40 
12.821;-0.74;0.19;0.54;-0.49;3.34;-0.35;441.42;-110.22;-200.00;0.94;-115.89;-50.03;12.38 
12.850;-0.71;0.18;0.61;0.21;2.30;0.90;444.40;-108.31;-202.00;0.95;-115.89;-50.09;12.37 
12.879;-0.72;0.21;0.54;-0.35;4.94;1.39;439.43;-109.27;-202.00;0.92;-115.90;-50.19;12.39 
12.909;-0.74;0.20;0.52;-0.14;3.41;1.67;441.42;-110.22;-203.00;0.93;-115.93;-50.30;12.43 
12.938;-0.77;0.25;0.58;0.63;0.35;1.53;438.44;-110.22;-198.00;1.00;-115.98;-50.35;12.49 
12.968;-0.77;0.20;0.56;1.32;1.46;1.53;442.41;-110.22;-198.00;0.97;-116.04;-50.35;12.56 
12.998;-0.77;0.18;0.61;1.46;3.48;3.34;438.44;-108.31;-199.00;1.00;-116.09;-50.39;12.62 
13.028;-0.78;0.19;0.58;1.11;4.52;4.59;442.41;-110.22;-201.00;0.99;-116.16;-50.46;12.70 
13.058;-0.79;0.14;0.62;2.09;6.47;6.61;441.42;-113.10;-201.00;1.01;-116.26;-50.55;12.82 
13.088;-0.88;0.10;0.62;4.52;7.10;10.78;446.39;-112.14;-200.00;1.08;-116.41;-50.68;13.01 
