Time(s) acc_x(g) acc_y(g) acc_z(g) gyr_x(°/s) gyr_y(°/s) gyr_z(°/s) mag_x(G) mag_y(G) mag_z(G) SVM(g) yaw(°) pitch(°) roll(°)
0.000;-0.38;0.12;0.79;-0.35;0.35;-1.74;-40.00;-43.14;-405.66;0.88;150.12;-26.35;11.15 
0.030;-0.40;0.16;0.83;-0.56;-0.35;-0.77;-39.00;-45.06;-406.66;0.94;150.35;-26.37;11.09 
0.060;-0.41;0.17;0.80;-0.14;-0.42;-0.07;-38.00;-44.10;-405.66;0.91;150.54;-26.37;11.07 
0.091;-0.41;0.14;0.80;-0.97;0.77;0.97;-41.00;-42.19;-403.66;0.91;150.69;-26.39;11.01 
0.120;-0.41;0.14;0.77;-0.35;1.74;2.43;-38.00;-42.19;-405.66;0.88;150.79;-26.45;11.00 
0.150;-0.43;0.18;0.77;-0.42;3.90;4.17;-41.00;-42.19;-404.66;0.90;150.83;-26.57;11.00 
0.180;-0.44;0.16;0.84;-1.32;5.57;4.38;-43.00;-45.06;-405.66;0.96;150.83;-26.72;11.01 
0.210;-0.45;0.16;0.79;-1.32;3.55;3.41;-38.00;-40.27;-405.66;0.92;150.81;-26.88;10.98 
0.240;-0.46;0.16;0.78;-0.70;2.92;2.85;-41.00;-41.23;-405.66;0.92;150.85;-27.01;10.98 
0.270;-0.43;0.14;0.78;-0.42;3.97;1.04;-37.00;-38.35;-405.66;0.90;150.90;-27.13;10.97 
0.301;-0.44;0.17;0.77;-0.35;1.25;-2.64;-36.00;-41.23;-402.66;0.90;151.08;-27.25;10.91 
0.331;-0.44;0.17;0.79;-0.49;-2.78;-4.10;-36.00;-39.31;-406.66;0.92;151.35;-27.30;10.82 
0.360;-0.41;0.13;0.75;-0.77;-0.77;-7.03;-39.00;-41.23;-404.66;0.86;151.69;-27.33;10.69 
0.390;-0.45;0.15;0.77;-2.99;2.09;-9.39;-39.00;-45.06;-402.66;0.90;152.08;-27.46;10.51 
0.420;-0.45;0.19;0.77;-3.97;1.39;-10.09;-37.00;-44.10;-401.66;0.91;152.49;-27.62;10.26 
0.450;-0.46;0.14;0.77;-5.70;2.09;-8.28;-40.00;-42.19;-403.66;0.91;152.85;-27.80;10.03 
0.480;-0.51;0.14;0.81;-10.09;0.63;-8.70;-45.00;-43.14;-400.66;0.97;153.16;-27.98;9.68 
0.511;-0.51;0.02;0.82;-11.83;-0.56;-13.50;-45.00;-44.10;-399.66;0.97;153.44;-28.14;9.19 
0.541;-0.55;-0.08;0.70;-13.29;-0.83;-23.44;-50.00;-50.81;-396.67;0.89;153.96;-28.31;8.41 
0.571;-0.45;-0.11;0.72;-13.22;6.68;-34.71;-54.00;-52.73;-398.66;0.86;154.76;-28.64;7.40 
0.602;-0.43;0.00;0.77;-11.83;10.43;-41.04;-64.00;-53.69;-395.67;0.88;155.83;-29.09;6.25 
0.632;-0.34;0.08;0.89;-10.30;9.32;-35.55;-66.00;-56.57;-395.67;0.96;156.96;-29.49;5.26 
0.662;-0.35;0.11;0.98;-12.31;6.40;-23.79;-72.00;-59.44;-390.67;1.05;157.82;-29.66;4.51 
0.692;-0.40;0.02;1.02;-17.39;1.74;-21.43;-76.00;-58.48;-389.67;1.10;158.35;-29.75;3.77 
0.722;-0.42;0.09;0.94;-20.59;-7.03;-20.52;-85.00;-64.24;-389.67;1.03;158.93;-29.75;2.90 
0.752;-0.42;0.00;0.96;-28.80;-27.06;-17.60;-90.00;-67.11;-388.67;1.05;159.37;-29.23;1.99 
0.782;-0.34;-0.10;0.82;-31.23;-37.29;-19.06;-96.00;-78.62;-384.68;0.89;159.81;-28.18;0.86 
0.813;-0.26;-0.12;0.75;-32.90;-31.03;-19.62;-107.00;-84.37;-380.68;0.80;160.31;-26.99;-0.49 
0.843;-0.26;-0.08;0.83;-29.22;-18.99;-19.20;-116.00;-93.96;-376.68;0.87;160.77;-26.10;-1.76 
0.873;-0.29;-0.06;0.90;-23.58;-25.67;-14.68;-120.00;-99.71;-379.68;0.95;161.18;-25.35;-2.73 
0.903;-0.25;-0.08;0.86;-20.03;-40.14;-14.47;-129.00;-109.30;-372.69;0.90;161.63;-24.19;-3.59 
0.933;-0.19;-0.10;0.77;-17.25;-44.03;-14.47;-134.00;-116.97;-372.69;0.80;162.16;-22.70;-4.40 
0.963;-0.15;-0.17;0.61;-12.38;-28.80;-13.84;-140.00;-129.43;-373.69;0.65;162.68;-21.34;-5.10 
0.993;-0.10;-0.21;0.59;-7.86;2.16;-16.56;-144.00;-136.14;-371.69;0.63;163.23;-20.64;-5.79 
1.024;-0.14;-0.14;0.70;-1.39;24.14;-18.57;-141.00;-132.31;-371.69;0.73;163.84;-20.80;-6.33 
1.054;-0.17;-0.14;0.86;4.24;23.37;-18.16;-145.00;-130.39;-371.69;0.89;164.49;-21.33;-6.62 
1.084;-0.19;-0.12;0.86;6.12;17.25;-15.44;-143.00;-124.64;-371.69;0.89;165.11;-21.76;-6.78 
1.115;-0.22;-0.08;0.82;5.29;18.71;-13.98;-144.00;-124.64;-371.69;0.85;165.72;-22.04;-6.84 
1.145;-0.33;-0.14;0.79;1.81;34.50;-9.04;-144.00;-119.84;-371.69;0.87;166.15;-22.70;-6.97 
1.175;-0.38;-0.22;0.95;-2.43;42.16;-10.23;-140.00;-116.01;-371.69;1.05;166.40;-23.75;-7.21 
1.205;-0.33;-0.19;1.10;-8.07;32.97;-17.39;-142.00;-105.46;-369.69;1.16;166.76;-24.75;-7.66 
1.236;-0.39;-0.18;1.12;-10.16;-4.03;-15.17;-145.00;-99.71;-365.69;1.20;167.22;-25.02;-8.24 
1.266;-0.30;-0.30;0.82;-12.45;-14.68;-12.66;-151.00;-101.63;-363.69;0.92;167.59;-24.45;-8.94 
1.296;-0.30;-0.34;0.83;-8.49;18.99;-13.08;-154.00;-105.46;-361.70;0.95;167.95;-24.26;-9.71 
1.327;-0.37;-0.26;1.15;-7.72;43.83;-5.36;-156.00;-96.83;-360.70;1.24;168.23;-25.00;-10.26 
1.357;-0.54;-0.18;1.31;-5.84;41.53;6.68;-160.00;-88.21;-356.70;1.43;168.07;-26.24;-10.58 
1.387;-0.61;-0.22;1.30;5.63;15.86;9.67;-165.00;-78.62;-358.70;1.45;167.73;-27.13;-10.57 
1.416;-0.50;-0.22;1.02;10.92;-4.73;19.55;-166.00;-75.74;-359.70;1.16;167.48;-27.35;-10.27 
1.445;-0.40;-0.12;0.71;11.34;-18.16;22.75;-163.00;-71.91;-365.69;0.82;167.18;-27.05;-9.85 
1.475;-0.43;0.03;0.54;23.17;-7.72;40.83;-155.00;-71.91;-374.68;0.69;166.69;-26.76;-9.14 
1.505;-0.70;0.10;0.52;25.46;21.91;57.88;-146.00;-63.28;-377.68;0.88;165.52;-27.39;-7.66 
1.536;-0.70;-0.03;0.67;14.26;54.68;67.41;-140.00;-52.73;-379.68;0.97;163.74;-29.18;-6.12 
1.566;-0.53;-0.20;0.79;15.37;38.05;69.43;-127.00;-23.97;-383.68;0.97;161.70;-31.02;-4.86 
1.595;-0.49;-0.13;0.74;25.39;12.24;65.25;-120.00;-12.46;-390.67;0.90;160.02;-31.96;-3.53 
1.625;-0.46;0.04;0.60;25.39;-1.60;64.97;-106.00;-5.75;-390.67;0.76;158.58;-32.23;-1.96 
1.654;-0.38;0.05;0.49;25.88;0.90;69.08;-95.00;-0.96;-397.66;0.62;157.13;-32.31;-0.27 
1.684;-0.32;0.07;0.42;25.60;9.88;76.73;-81.00;5.75;-402.66;0.53;155.45;-32.51;1.55 
1.714;-0.30;0.11;0.48;22.26;13.63;76.66;-63.00;16.30;-408.66;0.58;153.60;-32.75;3.46 
1.744;-0.41;0.10;0.42;17.60;15.17;71.65;-51.00;26.85;-411.65;0.60;151.68;-33.01;5.23 
1.774;-0.52;0.10;0.51;13.01;30.19;69.08;-40.00;35.47;-414.65;0.74;149.84;-33.51;6.80 
1.804;-0.53;0.16;0.62;-1.81;42.30;61.43;-28.00;51.77;-411.65;0.83;147.78;-34.42;8.05 
1.835;-0.53;0.22;0.77;-0.28;30.33;53.70;-15.00;64.24;-404.66;0.96;145.75;-35.29;9.08 
1.865;-0.70;0.20;0.74;4.45;-1.88;57.25;-5.00;71.91;-407.66;1.04;144.05;-35.39;10.09 
1.895;-0.70;0.15;0.74;13.01;0.42;46.47;3.00;73.82;-408.66;1.03;142.81;-35.03;11.21 
1.926;-0.70;0.18;0.78;17.88;7.93;29.08;9.00;76.70;-410.65;1.06;142.01;-34.96;12.25 
1.956;-0.67;0.39;0.83;11.76;3.97;21.08;24.00;86.29;-410.65;1.14;141.63;-34.96;13.11 
1.986;-0.58;0.47;0.77;9.81;-5.70;26.30;29.00;84.37;-409.65;1.07;141.29;-34.81;13.91 
2.016;-0.41;0.37;0.63;12.73;-16.35;36.73;36.00;78.62;-415.65;0.84;140.96;-34.12;14.90 
2.047;-0.37;0.18;0.52;15.44;-5.77;33.74;43.00;79.58;-419.65;0.66;140.43;-33.32;15.98 
2.077;-0.39;0.33;0.50;22.68;5.91;25.39;51.00;78.62;-423.64;0.71;140.12;-33.05;17.05 
2.107;-0.40;0.36;0.58;22.05;20.03;26.64;61.00;80.54;-421.64;0.79;139.75;-33.11;18.22 
2.138;-0.46;0.22;0.72;16.42;20.66;24.28;73.00;88.21;-419.65;0.88;139.15;-33.42;19.21 
2.168;-0.43;0.26;0.69;15.65;1.74;17.53;82.00;90.12;-420.65;0.85;138.84;-33.46;19.96 
2.198;-0.34;0.36;0.55;14.61;-10.23;18.37;91.00;90.12;-421.64;0.74;138.86;-33.04;20.69 
2.228;-0.39;0.42;0.52;13.70;5.43;19.97;98.00;93.00;-424.64;0.77;138.86;-32.59;21.58 
2.258;-0.50;0.27;0.61;6.68;34.71;17.53;102.00;96.83;-424.64;0.83;138.33;-32.83;22.34 
2.288;-0.51;0.17;0.74;1.60;37.43;-0.49;110.00;99.71;-414.65;0.91;137.62;-33.76;22.53 
2.318;-0.64;0.35;0.74;-0.21;19.76;-13.70;108.00;111.22;-414.65;1.04;137.53;-34.66;22.30 
2.349;-0.70;0.73;0.84;5.08;13.77;-6.61;108.00;117.93;-406.66;1.31;137.88;-35.27;22.14 
2.379;-0.53;0.80;0.83;4.87;13.01;31.86;111.00;118.89;-403.66;1.27;137.64;-35.49;22.76 
2.409;-0.47;0.48;0.80;-8.00;-4.52;46.68;114.00;124.64;-406.66;1.04;136.61;-34.82;23.76 
2.439;-0.50;0.31;0.70;-16.14;-0.28;29.91;128.00;122.72;-409.65;0.91;135.43;-34.05;24.22 
2.469;-0.58;0.37;0.57;-12.24;37.15;4.45;125.00;123.68;-406.66;0.89;134.52;-34.32;24.14 
2.499;-0.70;0.51;0.87;-0.21;54.61;-8.70;125.00;131.35;-400.66;1.23;133.67;-35.64;23.99 
2.529;-0.63;0.50;1.06;-1.32;28.94;-8.63;128.00;139.98;-389.67;1.33;133.16;-36.85;23.87 
2.560;-0.70;0.42;0.94;-6.61;-2.43;-11.83;124.00;143.81;-391.67;1.24;133.36;-37.22;23.56 
2.590;-0.78;0.50;0.83;-2.23;3.83;-21.91;123.00;144.77;-390.67;1.24;134.02;-37.37;23.13 
2.620;-0.82;0.48;0.86;-3.34;13.22;-29.01;114.00;140.94;-391.67;1.28;134.78;-38.01;22.62 
2.651;-0.68;0.30;0.74;-16.14;0.49;-34.99;111.00;142.85;-393.67;1.05;135.53;-38.74;21.77 
2.681;-0.67;0.30;0.58;-27.62;-4.87;-45.43;91.00;137.10;-396.67;0.94;136.59;-39.26;20.37 
2.711;-0.74;0.28;0.60;-29.84;6.54;-48.77;76.00;134.23;-397.66;0.99;137.55;-40.02;18.78 
2.741;-0.78;0.25;0.70;-28.73;3.27;-45.15;60.00;129.43;-396.67;1.08;138.40;-40.85;17.16 
2.772;-0.70;0.20;0.76;-28.38;-8.49;-48.97;47.00;127.51;-396.67;1.05;139.38;-41.41;15.50 
2.802;-0.58;0.13;0.72;-26.92;-28.10;-52.59;21.00;116.01;-394.67;0.93;140.88;-41.44;13.71 
2.832;-0.57;-0.01;0.62;-23.44;-45.70;-61.91;8.00;100.67;-397.66;0.84;142.87;-40.85;11.90 
2.863;-0.52;-0.06;0.53;-17.46;-45.22;-72.63;-9.00;86.29;-400.66;0.74;145.43;-40.02;9.88 
2.893;-0.51;0.04;0.46;-10.43;-40.00;-82.02;-30.00;65.20;-406.66;0.69;148.28;-39.18;7.95 
2.922;-0.55;0.16;0.46;-3.27;-37.70;-81.60;-45.00;47.94;-409.65;0.73;151.17;-38.51;6.24 
2.951;-0.55;0.12;0.50;-2.02;-33.95;-83.90;-58.00;31.64;-411.65;0.75;153.93;-37.88;4.77 
2.980;-0.54;0.02;0.51;0.21;-16.28;-87.10;-68.00;19.18;-411.65;0.74;156.78;-37.45;3.18 
3.010;-0.46;-0.10;0.65;5.15;-2.92;-90.57;-75.00;8.63;-413.65;0.80;159.53;-37.39;1.50 
3.039;-0.48;0.00;0.72;12.87;-6.26;-87.79;-87.00;-1.92;-411.65;0.87;162.55;-37.26;-0.07 
3.069;-0.47;0.16;0.71;8.42;-19.48;-71.03;-95.00;-18.22;-413.65;0.87;165.47;-36.78;-1.30 
3.099;-0.42;0.16;0.66;7.72;-32.83;-48.97;-101.00;-27.80;-412.65;0.80;167.73;-35.87;-2.12 
3.128;-0.32;0.07;0.58;9.46;-35.06;-29.50;-101.00;-41.23;-416.65;0.67;169.32;-34.70;-2.52 
3.158;-0.33;0.04;0.51;10.85;-18.30;-12.66;-97.00;-48.90;-421.64;0.61;170.35;-33.74;-2.63 
3.187;-0.42;0.07;0.58;7.65;0.28;2.57;-97.00;-55.61;-424.64;0.72;170.78;-33.42;-2.48 
3.217;-0.51;0.06;0.70;10.30;16.56;9.32;-99.00;-53.69;-422.64;0.87;170.82;-33.69;-2.15 
3.248;-0.55;-0.10;0.82;9.88;22.12;8.90;-97.00;-49.86;-427.64;0.99;170.78;-34.31;-1.79 
3.278;-0.63;-0.10;0.83;11.83;4.10;-3.48;-90.00;-44.10;-424.64;1.05;170.93;-34.76;-1.60 
3.308;-0.60;0.00;0.80;6.75;0.00;-9.39;-90.00;-43.14;-427.64;1.00;171.36;-34.77;-1.63 
3.337;-0.55;-0.06;0.77;3.34;0.83;-25.11;-90.00;-44.10;-430.64;0.95;172.00;-34.76;-1.94 
3.366;-0.62;-0.05;0.79;1.53;-0.90;-30.40;-89.00;-46.02;-429.64;1.01;172.91;-34.77;-2.43 
3.396;-0.61;-0.09;0.78;-4.03;-2.16;-40.63;-90.00;-49.86;-427.64;0.99;173.98;-34.70;-3.16 
3.426;-0.70;-0.03;0.71;-8.35;-2.64;-53.50;-98.00;-55.61;-426.64;1.00;175.29;-34.57;-4.23 
3.457;-0.62;-0.11;0.76;-13.70;-6.40;-59.97;-105.00;-65.20;-423.64;0.99;176.84;-34.36;-5.55 
3.487;-0.36;-0.23;0.79;-14.89;-19.06;-66.16;-114.00;-77.66;-421.64;0.90;178.58;-33.66;-7.23 
3.517;-0.34;-0.19;0.74;-9.46;-18.37;-63.51;-120.00;-87.25;-423.64;0.84;-179.65;-32.53;-8.85 
3.547;-0.55;-0.04;0.76;-8.90;3.55;-54.19;-127.00;-96.83;-420.65;0.94;-178.01;-31.84;-10.15 
3.577;-0.46;-0.07;0.95;-13.29;10.50;-45.08;-134.00;-101.63;-416.65;1.06;-176.65;-31.73;-11.29 
3.606;-0.46;-0.12;0.92;-9.95;-8.56;-33.11;-138.00;-107.38;-412.65;1.04;-175.72;-31.43;-12.25 
3.635;-0.46;-0.20;0.75;-6.05;-20.80;-30.68;-141.00;-112.17;-415.65;0.90;-174.98;-30.69;-13.05 
3.665;-0.40;-0.21;0.64;-6.82;-12.17;-36.66;-143.00;-122.72;-415.65;0.78;-174.17;-29.82;-13.88 
3.695;-0.34;-0.31;0.70;-7.65;1.39;-43.13;-146.00;-126.56;-412.65;0.84;-173.14;-29.24;-14.89 
3.725;-0.35;-0.29;0.80;-11.83;4.66;-51.48;-153.00;-133.27;-407.66;0.92;-171.91;-28.81;-16.10 
3.756;-0.43;-0.18;0.92;-16.49;-13.50;-48.21;-157.00;-140.94;-406.66;1.03;-170.63;-28.07;-17.41 
3.786;-0.37;-0.16;0.82;-13.22;-43.41;-46.26;-162.00;-153.40;-403.66;0.91;-169.50;-26.60;-18.58 
3.816;-0.27;-0.14;0.66;-12.45;-43.41;-40.70;-165.00;-166.82;-400.66;0.73;-168.56;-24.67;-19.57 
3.845;-0.19;-0.19;0.68;-15.51;-12.87;-24.90;-168.00;-182.16;-396.67;0.73;-167.87;-23.29;-20.42 
3.875;-0.22;-0.22;0.70;-7.03;-0.63;-11.41;-173.00;-186.96;-398.66;0.77;-167.52;-22.64;-21.11 
3.905;-0.24;-0.20;0.74;8.42;26.71;5.70;-173.00;-185.04;-397.66;0.80;-167.39;-22.68;-21.30 
3.935;-0.31;-0.26;0.78;18.02;39.44;13.08;-172.00;-178.33;-400.66;0.88;-167.38;-23.55;-20.94 
3.965;-0.41;-0.34;0.89;7.86;47.93;12.87;-164.00;-163.95;-404.66;1.04;-167.42;-24.80;-20.49 
3.995;-0.45;-0.42;0.94;4.24;45.98;0.90;-162.00;-154.36;-401.66;1.12;-167.44;-26.06;-20.43 
4.025;-0.42;-0.41;1.10;7.79;38.96;-10.23;-162.00;-146.69;-404.66;1.25;-167.04;-27.06;-20.51 
4.056;-0.42;-0.42;1.06;4.94;2.43;-12.10;-163.00;-144.77;-404.66;1.22;-166.51;-27.36;-20.69 
4.086;-0.34;-0.30;0.95;1.88;-11.20;-6.26;-163.00;-147.65;-405.66;1.05;-166.16;-26.80;-20.93 
4.116;-0.42;-0.32;0.94;-5.29;-2.37;5.15;-162.00;-148.61;-405.66;1.08;-166.18;-26.38;-21.09 
4.146;-0.47;-0.25;0.94;0.07;12.94;16.70;-160.00;-147.65;-404.66;1.08;-166.55;-26.45;-21.18 
4.176;-0.56;-0.14;0.90;4.31;20.94;39.58;-162.00;-143.81;-406.66;1.07;-167.29;-27.19;-20.74 
4.206;-0.60;-0.18;0.80;7.65;14.33;56.28;-154.00;-131.35;-406.66;1.02;-168.58;-28.23;-19.87 
4.236;-0.54;-0.22;0.66;20.66;10.64;61.01;-152.00;-123.68;-405.66;0.88;-170.04;-29.22;-18.77 
4.266;-0.58;-0.14;0.60;29.15;19.97;63.37;-143.00;-115.05;-408.66;0.85;-171.42;-30.32;-17.26 
4.296;-0.67;-0.06;0.64;32.07;31.03;61.22;-131.00;-104.50;-413.65;0.93;-172.65;-31.74;-15.51 
4.326;-0.62;0.07;0.81;31.86;30.68;60.52;-121.00;-92.04;-412.65;1.02;-173.70;-33.31;-13.59 
4.357;-0.51;0.08;0.79;31.51;2.71;63.93;-105.00;-75.74;-416.65;0.94;-174.87;-34.36;-11.62 
4.387;-0.52;0.06;0.67;29.15;-19.83;63.72;-96.00;-75.74;-424.64;0.85;-176.11;-34.47;-9.59 
4.417;-0.48;0.05;0.57;22.82;-13.63;57.88;-83.00;-69.03;-422.64;0.75;-177.40;-34.32;-7.81 
4.447;-0.43;0.14;0.58;18.71;-7.44;57.88;-76.00;-70.95;-428.64;0.74;-178.62;-34.29;-6.26 
4.477;-0.42;0.21;0.58;19.69;-4.10;65.25;-64.00;-63.28;-432.64;0.75;179.98;-34.34;-4.55 
4.507;-0.46;0.12;0.62;20.17;-4.52;70.75;-56.00;-61.36;-432.64;0.78;178.43;-34.40;-2.76 
4.537;-0.52;0.05;0.66;19.41;-11.06;68.10;-44.00;-57.53;-436.63;0.84;176.86;-34.27;-1.07 
4.568;-0.46;0.03;0.67;13.29;-21.43;57.60;-36.00;-54.65;-440.63;0.81;175.36;-33.82;0.42 
4.598;-0.50;0.12;0.58;7.17;-20.10;42.71;-25.00;-57.53;-442.63;0.78;174.17;-33.15;1.58 
4.628;-0.46;0.13;0.51;1.32;-8.63;33.25;-25.00;-55.61;-442.63;0.70;173.27;-32.77;2.36 
4.658;-0.50;0.14;0.57;3.41;-2.50;29.22;-22.00;-58.48;-442.63;0.77;172.49;-32.66;2.96 
4.688;-0.47;0.11;0.71;10.16;1.32;29.63;-18.00;-58.48;-447.62;0.86;171.84;-32.64;3.66 
4.718;-0.50;0.09;0.77;12.59;-2.02;24.00;-12.00;-54.65;-447.62;0.92;171.34;-32.59;4.38 
4.748;-0.50;0.18;0.85;12.10;-12.59;17.95;-10.00;-55.61;-449.62;1.00;171.12;-32.34;5.06 
4.779;-0.54;0.14;0.79;10.64;-22.19;15.79;-1.00;-56.57;-450.62;0.97;170.98;-31.71;5.69 
4.809;-0.53;0.12;0.75;13.22;-18.57;10.71;0.00;-62.32;-450.62;0.93;170.97;-31.07;6.22 
4.839;-0.50;0.08;0.77;13.15;-10.85;3.97;10.00;-66.15;-455.62;0.92;171.15;-30.65;6.63 
4.870;-0.42;0.09;0.80;10.37;-10.57;-6.61;2.00;-69.03;-455.62;0.91;171.56;-30.34;6.89 
4.899;-0.42;0.14;0.78;10.16;-15.72;-12.24;11.00;-70.95;-460.61;0.90;172.19;-29.94;7.03 
4.928;-0.42;0.14;0.73;10.64;-16.14;-15.51;12.00;-74.78;-460.61;0.85;172.91;-29.48;7.13 
4.958;-0.43;0.17;0.73;9.39;-8.00;-21.43;16.00;-82.45;-462.61;0.86;173.74;-29.11;7.16 
4.987;-0.42;0.27;0.75;7.58;-1.60;-23.65;16.00;-83.41;-462.61;0.90;174.71;-29.05;7.09 
5.016;-0.39;0.40;0.78;7.30;-4.94;-15.65;19.00;-87.25;-459.61;0.96;175.56;-28.99;7.15 
5.046;-0.42;0.33;0.79;2.30;-10.64;-6.54;17.00;-85.33;-462.61;0.95;176.11;-28.76;7.31 
5.077;-0.38;0.22;0.74;-4.03;-14.54;-5.63;17.00;-90.12;-462.61;0.86;176.38;-28.37;7.31 
5.107;-0.37;0.20;0.74;-5.84;-13.84;-9.11;15.00;-95.88;-466.61;0.85;176.65;-27.90;7.13 
5.137;-0.40;0.32;0.70;-10.57;-10.43;-7.58;11.00;-99.71;-464.61;0.87;176.91;-27.51;6.92 
5.168;-0.41;0.37;0.79;-13.77;-4.03;2.57;10.00;-100.67;-461.61;0.96;176.94;-27.30;6.74 
5.198;-0.40;0.34;0.85;-16.07;-3.69;13.63;4.00;-102.59;-463.61;1.00;176.55;-27.16;6.62 
5.228;-0.46;0.19;0.78;-16.83;-10.43;15.58;2.00;-104.50;-459.61;0.93;175.97;-26.87;6.50 
5.258;-0.43;0.08;0.74;-17.60;-7.72;11.27;-3.00;-104.50;-458.61;0.86;175.38;-26.57;6.22 
5.289;-0.38;0.07;0.77;-12.38;-2.64;3.97;-7.00;-105.46;-458.61;0.86;175.00;-26.36;5.82 
5.319;-0.41;0.18;0.81;-10.99;-1.04;-0.56;-12.00;-105.46;-459.61;0.93;174.88;-26.27;5.50 
5.348;-0.40;0.26;0.87;-8.77;-3.48;3.06;-14.00;-107.38;-457.61;0.99;174.80;-26.21;5.33 
5.378;-0.38;0.22;0.81;-5.91;-9.81;7.37;-12.00;-106.42;-457.61;0.92;174.64;-25.96;5.28 
5.408;-0.35;0.14;0.74;-3.62;-6.40;8.42;-19.00;-108.34;-452.62;0.83;174.42;-25.64;5.33 
5.438;-0.31;0.14;0.74;-3.34;5.36;5.43;-18.00;-111.22;-456.62;0.81;174.26;-25.54;5.35 
5.468;-0.37;0.18;0.81;-4.38;7.58;1.60;-16.00;-105.46;-457.61;0.91;174.19;-25.70;5.29 
5.498;-0.40;0.18;0.86;-4.80;0.83;0.56;-16.00;-106.42;-454.62;0.97;174.17;-25.81;5.21 
5.528;-0.38;0.12;0.84;-3.97;-3.90;-0.07;-18.00;-107.38;-456.62;0.93;174.18;-25.71;5.12 
5.558;-0.36;0.15;0.81;-2.92;0.70;-1.67;-18.00;-107.38;-457.61;0.90;174.25;-25.61;5.01 
5.589;-0.35;0.18;0.84;-1.81;-0.07;-1.18;-20.00;-111.22;-454.62;0.93;174.36;-25.59;4.96 
5.619;-0.35;0.18;0.81;-1.46;-2.37;2.02;-22.00;-109.30;-455.62;0.90;174.42;-25.49;4.98 
5.648;-0.35;0.17;0.78;-1.18;2.57;3.55;-22.00;-107.38;-455.62;0.87;174.41;-25.44;5.05 
5.678;-0.38;0.17;0.78;-1.25;6.33;3.34;-21.00;-109.30;-455.62;0.88;174.37;-25.53;5.11 
5.708;-0.38;0.14;0.83;-2.02;4.87;2.16;-21.00;-108.34;-451.62;0.92;174.33;-25.67;5.11 
5.738;-0.42;0.13;0.80;-3.13;3.06;1.60;-20.00;-105.46;-456.62;0.91;174.30;-25.78;5.06 
5.768;-0.42;0.10;0.83;-1.25;3.76;1.60;-22.00;-105.46;-455.62;0.94;174.29;-25.87;4.99 
5.798;-0.42;0.10;0.80;-1.18;3.48;1.60;-24.00;-103.55;-453.62;0.91;174.32;-25.96;4.98 
5.828;-0.40;0.14;0.78;-3.13;4.45;3.20;-25.00;-98.75;-457.61;0.89;174.30;-26.07;4.92 
5.858;-0.36;0.16;0.80;-2.30;4.03;8.42;-26.00;-98.75;-453.62;0.89;174.17;-26.15;4.91 
5.888;-0.35;0.18;0.78;-0.35;3.27;13.43;-24.00;-102.59;-457.61;0.87;173.92;-26.15;5.08 
5.917;-0.35;0.18;0.69;-1.95;6.19;14.96;-23.00;-96.83;-450.62;0.79;173.57;-26.18;5.30 
5.947;-0.36;0.09;0.70;-2.64;15.37;12.38;-24.00;-96.83;-453.62;0.79;173.17;-26.37;5.43 
5.978;-0.37;0.06;0.87;-2.57;23.72;5.08;-23.00;-89.16;-452.62;0.95;172.90;-26.92;5.40 
6.008;-0.45;0.12;0.94;-0.07;12.73;-3.76;-22.00;-87.25;-450.62;1.05;172.88;-27.48;5.33 
6.038;-0.42;0.15;0.90;2.09;-8.28;-7.03;-23.00;-86.29;-448.62;1.00;173.13;-27.51;5.25 
6.068;-0.34;0.18;0.78;3.13;-11.55;-9.67;-24.00;-86.29;-450.62;0.87;173.53;-27.15;5.22 
6.098;-0.32;0.23;0.78;4.17;-0.35;-6.68;-21.00;-93.96;-454.62;0.87;173.94;-26.93;5.28 
6.128;-0.36;0.26;0.81;2.99;1.67;-2.64;-24.00;-92.04;-451.62;0.92;174.23;-26.92;5.42 
6.157;-0.36;0.24;0.81;0.28;1.81;0.70;-19.00;-87.25;-451.62;0.92;174.36;-26.92;5.57 
6.188;-0.37;0.18;0.82;0.07;-0.07;1.32;-19.00;-88.21;-452.62;0.92;174.41;-26.91;5.65 
6.218;-0.36;0.18;0.80;0.28;-1.32;1.81;-21.00;-91.08;-450.62;0.90;174.44;-26.84;5.69 
6.248;-0.41;0.19;0.82;0.35;-0.07;-0.14;-18.00;-90.12;-456.62;0.94;174.50;-26.79;5.74 
6.278;-0.39;0.18;0.83;0.42;0.35;-1.39;-19.00;-89.16;-453.62;0.93;174.59;-26.78;5.75 
6.307;-0.38;0.18;0.78;1.04;-0.90;-2.78;-20.00;-90.12;-452.62;0.89;174.74;-26.74;5.79 
6.337;-0.39;0.20;0.81;1.46;-3.41;-1.60;-19.00;-92.04;-452.62;0.92;174.91;-26.68;5.80 
6.367;-0.45;0.21;0.74;1.46;-2.37;-0.35;-21.00;-93.00;-453.62;0.89;175.04;-26.55;5.87 
6.397;-0.38;0.19;0.79;1.25;2.02;1.18;-20.00;-93.00;-454.62;0.90;175.12;-26.51;5.97 
6.427;-0.42;0.15;0.83;-0.21;1.81;1.39;-19.00;-93.00;-453.62;0.94;175.17;-26.53;6.03 
6.457;-0.44;0.13;0.82;-1.81;-1.11;2.16;-17.00;-93.00;-455.62;0.94;175.16;-26.51;6.02 
6.488;-0.45;0.17;0.70;-0.77;4.66;2.92;-17.00;-92.04;-454.62;0.85;175.14;-26.55;6.01 
6.518;-0.43;0.18;0.66;-1.25;13.43;6.47;-19.00;-92.04;-454.62;0.81;175.05;-26.86;6.09 
6.548;-0.41;0.16;0.69;0.00;20.45;11.83;-22.00;-85.33;-452.62;0.82;174.83;-27.38;6.22 
6.578;-0.50;0.14;0.69;-2.02;25.95;14.61;-18.00;-81.49;-452.62;0.86;174.47;-28.08;6.38 
6.608;-0.61;0.14;0.51;-3.13;29.91;14.89;-19.00;-69.99;-449.62;0.81;174.02;-28.98;6.56 
6.638;-0.54;0.15;0.59;-3.34;54.05;16.07;-17.00;-67.11;-452.62;0.81;173.49;-30.28;6.74 
6.668;-0.54;0.00;0.78;-2.16;76.24;6.96;-16.00;-48.90;-446.62;0.95;173.01;-32.26;6.77 
6.699;-0.56;0.03;1.04;-1.81;49.39;-7.79;-19.00;-30.68;-440.63;1.18;172.86;-34.38;6.67 
6.729;-0.50;0.14;0.98;-4.45;-10.43;-18.43;-18.00;-24.93;-436.63;1.11;173.20;-34.99;6.24 
6.759;-0.46;0.12;0.74;-2.23;-16.90;-31.86;-19.00;-29.72;-436.63;0.88;173.97;-34.50;5.67 
6.790;-0.43;0.18;0.65;-2.37;11.20;-38.61;-25.00;-32.60;-435.63;0.80;175.04;-34.51;4.99 
6.820;-0.46;0.26;0.63;-6.82;22.61;-35.06;-32.00;-30.68;-432.64;0.82;176.15;-35.15;4.29 
6.850;-0.44;0.25;0.73;-5.01;21.98;-28.31;-32.00;-28.76;-432.64;0.89;176.97;-35.81;3.67 
6.880;-0.50;0.16;0.68;-0.28;15.58;-25.32;-38.00;-25.89;-430.64;0.86;177.74;-36.38;3.19 
6.911;-0.50;0.06;0.68;-3.76;11.83;-29.84;-38.00;-27.80;-427.64;0.85;178.54;-36.84;2.65 
6.941;-0.58;0.02;0.62;-8.49;6.82;-44.94;-42.00;-30.68;-424.64;0.85;179.54;-37.21;1.71 
6.971;-0.62;-0.05;0.60;-12.87;3.90;-58.92;-54.00;-30.68;-428.64;0.86;-179.15;-37.40;0.45 
7.001;-0.55;-0.05;0.54;-11.76;3.27;-70.26;-60.00;-34.52;-423.64;0.77;-177.42;-37.56;-1.25 
7.030;-0.46;0.06;0.54;-8.28;2.43;-67.97;-69.00;-40.27;-421.64;0.71;-175.59;-37.57;-2.82 
7.059;-0.47;0.15;0.58;-11.13;7.03;-58.02;-73.00;-44.10;-422.64;0.76;-173.98;-37.52;-4.12 
7.088;-0.63;0.17;0.64;-15.17;18.50;-49.88;-84.00;-46.98;-419.65;0.91;-172.73;-37.75;-5.29 
7.117;-0.76;0.12;0.69;-16.77;18.09;-41.11;-91.00;-45.06;-416.65;1.03;-171.73;-38.23;-6.44 
7.147;-0.68;-0.04;0.72;-19.76;10.99;-37.50;-98.00;-47.94;-409.65;0.99;-171.01;-38.48;-7.66 
7.176;-0.57;0.01;0.70;-20.66;7.86;-33.04;-106.00;-50.81;-411.65;0.90;-170.48;-38.53;-8.87 
7.205;-0.60;0.10;0.77;-19.62;14.33;-24.83;-111.00;-49.86;-404.66;0.98;-170.08;-38.70;-9.90 
7.235;-0.63;0.02;0.77;-15.93;-2.23;-21.08;-118.00;-47.94;-402.66;1.00;-169.92;-38.79;-10.73 
7.265;-0.54;0.00;0.66;-17.46;-17.11;-19.83;-126.00;-53.69;-401.66;0.85;-169.86;-38.31;-11.49 
7.296;-0.50;-0.02;0.62;-18.37;-24.28;-21.43;-131.00;-58.48;-402.66;0.80;-169.91;-37.47;-12.33 
7.326;-0.50;-0.04;0.62;-13.29;-28.10;-21.43;-139.00;-67.11;-402.66;0.80;-169.89;-36.48;-13.18 
7.356;-0.50;-0.02;0.53;1.04;-28.59;-19.34;-139.00;-77.66;-402.66;0.73;-169.66;-35.48;-13.75 
7.387;-0.39;-0.04;0.51;11.13;-19.97;-21.43;-139.00;-83.41;-404.66;0.64;-169.14;-34.58;-14.02 
7.417;-0.51;-0.16;0.70;8.83;-8.63;-15.51;-140.00;-88.21;-407.66;0.88;-168.44;-33.83;-14.18 
7.447;-0.88;-0.18;0.93;9.39;26.02;6.05;-141.00;-89.16;-406.66;1.29;-168.22;-33.89;-14.22 
7.477;-0.71;-0.14;1.29;3.48;59.90;14.82;-134.00;-72.87;-408.66;1.48;-168.21;-35.23;-13.86 
7.508;-0.79;-0.32;1.35;-13.50;-26.16;13.70;-135.00;-66.15;-408.66;1.60;-168.86;-35.97;-13.85 
7.537;-0.66;-0.44;1.06;-17.39;-82.78;10.37;-138.00;-73.82;-407.66;1.32;-169.89;-34.47;-14.25 
7.567;-0.39;-0.39;0.78;2.71;-83.76;-6.96;-139.00;-91.08;-407.66;0.96;-170.38;-31.76;-14.48 
7.598;-0.24;-0.10;0.71;2.99;-38.47;0.83;-136.00;-103.55;-409.65;0.76;-170.45;-29.63;-14.71 
7.628;-0.35;-0.14;0.66;3.41;-16.00;17.67;-141.00;-114.09;-412.65;0.76;-170.87;-28.79;-14.51 
7.658;-0.35;-0.24;0.60;-0.42;0.83;19.41;-136.00;-114.09;-418.65;0.73;-171.49;-28.60;-14.29 
7.688;-0.34;-0.18;0.60;-1.81;22.89;17.32;-137.00;-109.30;-412.65;0.71;-172.09;-28.94;-14.28 
7.718;-0.34;-0.02;0.66;2.16;43.97;23.72;-136.00;-96.83;-417.65;0.74;-172.65;-30.02;-14.06 
7.748;-0.42;-0.07;0.82;3.48;24.42;35.69;-132.00;-86.29;-410.65;0.92;-173.42;-31.27;-13.67 
7.778;-0.48;-0.15;0.79;7.58;-2.85;45.84;-130.00;-79.58;-411.65;0.94;-174.50;-31.79;-12.92 
7.809;-0.45;-0.04;0.67;13.01;-4.45;54.54;-121.00;-74.78;-414.65;0.81;-175.82;-31.97;-11.86 
7.839;-0.47;-0.06;0.59;15.58;3.62;63.65;-112.00;-65.20;-420.65;0.76;-177.37;-32.37;-10.51 
7.869;-0.46;-0.05;0.59;12.38;14.89;69.08;-103.00;-58.48;-420.65;0.75;-179.05;-33.03;-9.11 
7.899;-0.50;-0.06;0.62;11.06;21.84;73.04;-97.00;-46.02;-420.65;0.80;179.03;-34.00;-7.68 
7.929;-0.63;0.02;0.62;15.10;24.97;75.48;-87.00;-33.56;-422.64;0.88;177.00;-35.11;-6.10 
7.959;-0.66;-0.09;0.63;16.21;40.14;73.88;-77.00;-18.22;-424.64;0.92;175.07;-36.25;-4.45 
7.989;-0.64;-0.24;0.62;12.66;45.98;54.54;-63.00;3.84;-421.64;0.92;173.40;-37.73;-3.11 
8.018;-0.70;-0.14;0.67;11.48;37.63;37.15;-53.00;16.30;-421.64;0.98;172.18;-39.20;-2.10 
8.048;-0.67;-0.10;0.66;8.70;27.27;22.33;-46.00;28.76;-417.65;0.95;171.44;-40.27;-1.44 
8.077;-0.53;0.01;0.65;11.90;27.97;13.70;-40.00;31.64;-412.65;0.84;171.13;-41.10;-0.94 
8.108;-0.60;0.10;0.67;16.70;24.07;14.75;-36.00;50.81;-415.65;0.90;171.08;-41.86;-0.28 
8.138;-0.65;0.11;0.66;13.57;15.03;16.70;-29.00;51.77;-411.65;0.93;171.00;-42.43;0.44 
8.168;-0.57;0.10;0.68;13.08;12.31;15.44;-25.00;60.40;-408.66;0.89;170.86;-42.81;1.10 
8.198;-0.50;0.12;0.75;13.84;10.02;18.85;-19.00;64.24;-410.65;0.91;170.78;-43.02;1.77 
8.228;-0.51;0.17;0.76;14.54;-11.27;24.14;-11.00;69.99;-407.66;0.93;170.62;-42.89;2.57 
8.258;-0.44;0.26;0.65;14.12;-31.23;34.99;0.00;69.03;-408.66;0.83;170.35;-42.05;3.57 
8.288;-0.40;0.30;0.56;9.39;-38.61;48.63;5.00;67.11;-417.65;0.75;169.77;-40.76;4.89 
8.319;-0.44;0.27;0.50;2.16;-31.65;57.95;14.00;63.28;-415.65;0.72;168.56;-39.36;6.29 
8.349;-0.70;0.19;0.58;-7.44;-13.77;60.38;25.00;64.24;-419.65;0.93;166.89;-38.28;7.61 
8.379;-1.06;0.03;0.83;-18.50;32.49;33.95;31.00;70.95;-419.65;1.35;165.13;-38.24;8.26 
8.410;-1.01;0.04;1.11;5.84;41.32;-5.01;32.00;81.49;-410.65;1.50;164.23;-39.61;8.14 
8.440;-1.00;0.33;1.20;31.17;-19.06;-6.89;30.00;84.37;-407.66;1.60;165.13;-40.17;8.59 
8.470;-0.63;0.69;1.08;1.39;-59.13;3.97;36.00;70.95;-413.65;1.43;165.78;-38.78;8.81 
8.500;-0.34;0.76;0.90;-1.81;-59.69;28.38;36.00;63.28;-417.65;1.23;165.83;-36.85;9.34 
8.530;-0.61;0.30;0.66;-4.10;-62.68;42.64;39.00;49.86;-424.64;0.95;165.04;-34.59;10.27 
8.560;-0.77;0.05;0.51;-16.49;-25.32;10.43;41.00;40.27;-430.64;0.92;164.32;-33.09;10.64 
8.590;-0.57;0.09;0.60;-20.73;24.35;-36.45;34.00;37.39;-430.64;0.83;164.45;-33.42;9.83 
8.621;-0.49;0.25;0.75;-13.77;26.64;-40.70;25.00;37.39;-424.64;0.93;165.20;-34.53;8.73 
8.651;-0.50;0.29;0.81;-2.23;2.16;-34.09;17.00;39.31;-420.65;1.00;166.22;-35.16;7.96 
8.681;-0.43;0.27;0.74;3.83;-25.39;-31.72;12.00;36.43;-419.65;0.90;167.36;-34.94;7.55 
8.711;-0.42;0.30;0.62;-4.38;-49.81;-31.10;4.00;20.13;-425.64;0.81;168.54;-33.89;7.18 
8.741;-0.38;0.18;0.51;-14.26;-55.79;-36.59;0.00;6.71;-430.64;0.66;169.64;-32.46;6.53 
8.771;-0.44;0.10;0.46;-27.06;-48.21;-51.97;-7.00;-8.63;-429.64;0.64;170.82;-31.12;5.44 
8.801;-0.51;0.10;0.38;-43.34;-40.00;-63.58;-22.00;-20.13;-429.64;0.64;172.14;-30.17;3.63 
8.832;-0.34;0.20;0.41;-58.92;-24.07;-53.98;-46.00;-37.39;-424.64;0.57;173.19;-29.52;1.46 
8.862;-0.33;0.37;0.46;-45.77;-7.17;-35.48;-60.00;-45.06;-415.65;0.68;173.79;-29.17;-0.33 
8.892;-0.58;0.37;0.51;-39.86;-21.08;-14.12;-70.00;-51.77;-412.65;0.86;173.94;-28.91;-1.49 
8.923;-0.52;0.11;0.49;-44.03;-23.86;5.63;-82.00;-55.61;-405.66;0.72;173.44;-28.41;-2.42 
8.953;-0.42;-0.08;0.50;-55.79;-23.44;0.21;-97.00;-62.32;-400.66;0.66;172.55;-27.71;-3.69 
8.983;-0.55;0.11;0.51;-56.28;-28.73;-6.89;-107.00;-70.95;-391.67;0.76;171.94;-27.17;-5.25 
9.013;-0.42;-0.06;0.68;-28.80;-9.46;12.59;-117.00;-76.70;-382.68;0.80;171.43;-26.79;-6.34 
9.042;-0.16;-0.38;0.99;14.54;21.15;16.90;-115.00;-79.58;-378.68;1.07;170.72;-27.02;-6.52 
9.072;-0.24;-0.46;1.54;8.35;60.03;1.46;-113.00;-69.03;-373.69;1.63;170.70;-27.58;-6.50 
9.101;-0.46;0.00;1.66;38.05;12.10;-27.97;-105.00;-62.32;-374.68;1.72;170.97;-29.17;-5.80 
9.132;-0.64;0.20;1.22;0.14;-102.26;-16.97;-104.00;-76.70;-378.68;1.39;172.24;-27.52;-5.67 
9.162;-0.26;-0.22;1.04;11.97;-39.23;-13.98;-106.00;-93.96;-380.68;1.09;172.91;-25.06;-5.77 
9.192;-0.38;-0.18;1.32;13.84;2.50;-17.60;-102.00;-103.55;-384.68;1.39;173.59;-24.52;-5.69 
9.222;-0.32;0.07;1.32;-6.61;-54.19;-17.11;-101.00;-111.22;-384.68;1.36;174.25;-23.70;-5.98 
9.252;-0.21;0.02;1.07;8.70;-48.90;2.50;-104.00;-124.64;-388.67;1.09;174.57;-21.75;-6.03 
9.282;-0.16;0.00;0.96;8.83;-20.31;10.02;-102.00;-132.31;-391.67;0.97;174.54;-20.76;-5.65 
9.312;-0.12;0.02;0.89;-9.67;-21.98;4.87;-99.00;-136.14;-390.67;0.90;174.37;-20.04;-5.55 
9.343;0.02;-0.07;0.74;-17.60;-25.95;9.53;-104.00;-141.90;-391.67;0.74;174.08;-19.18;-5.92 
9.373;0.00;-0.10;0.66;-13.57;-0.49;8.49;-106.00;-146.69;-388.67;0.67;173.68;-18.67;-6.36 
9.402;-0.07;-0.05;0.70;-6.82;23.86;16.14;-110.00;-144.77;-389.67;0.71;173.27;-18.85;-6.57 
9.432;-0.10;0.00;0.81;-3.83;33.46;22.47;-110.00;-141.90;-386.67;0.82;172.67;-19.56;-6.52 
9.462;-0.19;0.01;0.85;-3.27;27.76;31.10;-111.00;-126.56;-384.68;0.87;171.81;-20.50;-6.31 
9.491;-0.21;-0.05;0.86;4.03;13.63;31.30;-110.00;-121.76;-384.68;0.89;170.89;-21.15;-6.03 
9.521;-0.14;-0.04;0.84;5.15;6.12;33.60;-106.00;-110.26;-385.68;0.85;170.00;-21.37;-5.57 
9.551;-0.12;0.00;0.84;4.31;8.49;34.57;-101.00;-109.30;-384.68;0.85;169.03;-21.61;-5.09 
9.581;-0.18;0.00;0.82;5.08;12.10;32.90;-105.00;-104.50;-384.68;0.84;168.08;-21.98;-4.65 
9.611;-0.19;-0.14;0.83;5.01;17.81;25.53;-99.00;-98.75;-385.68;0.86;167.26;-22.36;-4.21 
9.642;-0.14;-0.11;0.90;5.91;18.23;20.52;-95.00;-89.16;-383.68;0.92;166.65;-22.77;-3.92 
9.672;-0.18;0.00;0.94;7.03;6.68;22.96;-92.00;-88.21;-386.67;0.96;166.11;-22.99;-3.51 
9.701;-0.16;0.03;0.90;13.43;-9.88;30.47;-90.00;-84.37;-386.67;0.91;165.51;-22.87;-2.93 
9.731;-0.14;-0.05;0.74;20.80;-14.75;37.84;-82.00;-82.45;-389.67;0.75;164.84;-22.31;-2.04 
9.761;-0.33;-0.24;0.64;30.12;8.07;24.28;-75.00;-81.49;-395.67;0.76;164.19;-22.06;-1.02 
9.791;-0.54;-0.27;0.83;12.31;72.42;-8.42;-69.00;-74.78;-393.67;1.03;164.01;-23.23;-0.42 
9.821;-0.57;-0.17;1.20;-6.54;79.51;-37.01;-67.00;-67.11;-393.67;1.34;164.49;-25.66;-0.82 
9.851;-0.52;0.22;1.17;-5.57;-7.86;-39.58;-71.00;-50.81;-386.67;1.30;165.57;-27.01;-1.63 
9.881;-0.39;0.22;0.71;-2.16;-59.76;-23.93;-77.00;-59.44;-387.67;0.84;166.59;-25.83;-2.02 
9.911;-0.30;0.14;0.46;2.92;-29.84;-4.31;-79.00;-70.95;-390.67;0.57;167.20;-24.38;-2.00 
9.942;-0.25;0.13;0.62;10.85;29.84;6.82;-78.00;-72.87;-393.67;0.68;167.25;-24.33;-1.60 
9.972;-0.42;0.22;1.00;9.46;34.92;9.32;-73.00;-63.28;-390.67;1.11;167.10;-25.31;-1.06 
10.002;-0.48;0.27;1.06;-3.34;-0.21;7.65;-71.00;-53.69;-387.67;1.19;166.93;-25.84;-0.71 
10.032;-0.42;0.07;0.77;-8.70;-9.04;11.83;-72.00;-61.36;-388.67;0.88;166.57;-25.58;-0.61 
10.061;-0.42;-0.03;0.67;-2.85;2.71;8.97;-76.00;-58.48;-385.68;0.79;166.21;-25.50;-0.64 
10.091;-0.34;0.10;0.83;4.24;2.43;5.91;-72.00;-57.53;-388.67;0.90;166.02;-25.57;-0.51 
10.121;-0.40;0.09;0.79;3.69;-3.90;3.41;-71.00;-55.61;-394.67;0.89;165.96;-25.52;-0.29 
10.151;-0.36;0.11;0.78;0.35;3.20;-0.83;-73.00;-54.65;-391.67;0.87;165.98;-25.44;-0.17 
10.181;-0.38;0.14;0.86;1.25;6.68;-0.56;-67.00;-55.61;-389.67;0.95;166.03;-25.56;-0.10 
10.211;-0.45;0.13;0.85;1.74;0.35;1.81;-70.00;-52.73;-387.67;0.97;166.05;-25.66;-0.01 
10.242;-0.40;0.11;0.86;0.56;-4.52;2.64;-69.00;-53.69;-389.67;0.95;166.04;-25.60;0.11 
10.272;-0.39;0.02;0.79;0.00;-2.92;0.63;-69.00;-55.61;-391.67;0.88;166.04;-25.43;0.19 
10.302;-0.36;0.06;0.77;-0.28;2.92;-2.92;-69.00;-55.61;-390.67;0.85;166.10;-25.40;0.16 
10.332;-0.39;0.12;0.79;1.60;1.67;-1.81;-69.00;-54.65;-390.67;0.89;166.22;-25.46;0.15 
10.361;-0.38;0.12;0.82;2.57;3.27;0.56;-68.00;-55.61;-389.67;0.91;166.31;-25.50;0.29 
10.391;-0.38;0.06;0.80;1.88;1.81;1.46;-71.00;-52.73;-388.67;0.89;166.34;-25.56;0.42 
10.421;-0.36;0.02;0.81;1.25;1.18;-1.32;-68.00;-55.61;-393.67;0.89;166.38;-25.55;0.47 
10.452;-0.40;0.05;0.80;0.77;3.83;-3.83;-66.00;-55.61;-391.67;0.90;166.49;-25.65;0.47 
