Time(s) acc_x(g) acc_y(g) acc_z(g) gyr_x(°/s) gyr_y(°/s) gyr_z(°/s) mag_x(G) mag_y(G) mag_z(G) SVM(g) yaw(°) pitch(°) roll(°)
0.000;-0.66;-0.32;0.18;-8.63;18.85;32.77;10.99;-232.92;-398.00;0.76;132.12;-19.03;23.58 
0.031;-0.58;0.13;0.70;-18.57;89.67;-7.37;10.99;-214.71;-397.00;0.92;131.18;-20.84;23.24 
0.061;-0.87;0.33;1.10;-44.17;65.67;-12.94;5.00;-199.37;-392.00;1.44;130.32;-23.54;22.27 
0.091;-0.84;0.29;1.05;-48.35;-29.70;-1.74;-7.99;-192.66;-380.00;1.38;130.08;-24.42;21.03 
0.121;-0.56;0.18;0.57;-51.83;-68.80;25.88;-15.99;-201.29;-373.00;0.82;130.40;-22.99;19.91 
0.151;-0.30;0.06;0.36;-50.64;-11.69;41.60;-25.98;-216.62;-371.00;0.47;129.85;-21.35;19.00 
0.181;-0.39;0.00;0.54;-52.31;45.98;23.03;-33.97;-208.00;-362.00;0.67;128.54;-21.66;18.01 
0.211;-0.58;0.06;0.78;-48.90;35.20;9.81;-43.96;-197.45;-355.00;0.97;127.42;-22.73;16.97 
0.242;-0.58;0.14;0.74;-48.00;-3.90;19.90;-52.96;-187.87;-351.00;0.95;126.77;-23.23;15.83 
0.272;-0.51;0.13;0.56;-40.07;-20.80;36.10;-65.95;-186.91;-343.00;0.77;126.08;-22.69;15.05 
0.302;-0.36;0.00;0.42;-34.37;-8.63;37.22;-65.95;-187.87;-337.00;0.55;125.28;-22.03;14.56 
0.333;-0.34;-0.08;0.46;-29.98;23.37;27.06;-72.94;-183.07;-336.00;0.58;124.34;-22.11;13.99 
0.363;-0.45;-0.06;0.67;-21.01;32.97;17.46;-76.94;-169.66;-329.00;0.81;123.55;-22.88;13.41 
0.393;-0.60;-0.04;0.75;-13.57;21.22;19.20;-78.93;-157.20;-330.00;0.96;122.98;-23.65;13.12 
0.423;-0.57;-0.03;0.63;-12.03;12.10;16.70;-79.93;-157.20;-326.00;0.85;122.54;-24.09;12.99 
0.454;-0.46;0.00;0.57;-13.77;17.18;7.37;-79.93;-147.61;-323.00;0.73;122.31;-24.34;12.95 
0.484;-0.51;-0.10;0.62;-12.17;20.66;-5.36;-80.93;-143.78;-316.00;0.81;122.35;-25.00;12.58 
0.514;-0.51;-0.22;0.70;-4.87;30.26;-13.77;-82.93;-137.07;-317.00;0.89;122.69;-25.84;12.06 
0.545;-0.65;-0.24;0.83;2.23;45.29;-20.38;-84.93;-132.27;-312.00;1.08;123.20;-27.17;11.62 
0.575;-0.78;0.00;0.99;7.30;55.17;-32.56;-86.93;-125.56;-305.00;1.26;123.77;-28.90;11.28 
0.605;-0.88;0.13;1.22;14.89;47.86;-36.31;-87.93;-114.06;-300.00;1.51;124.68;-30.70;11.02 
0.635;-0.98;0.03;1.39;26.85;20.59;-23.30;-87.93;-109.27;-296.00;1.70;125.65;-31.99;11.05 
0.665;-0.86;-0.18;1.25;7.44;14.61;-18.85;-83.93;-104.48;-299.00;1.53;126.68;-32.45;11.25 
0.695;-0.87;-0.05;1.12;-7.65;16.90;-17.32;-85.93;-99.68;-297.00;1.42;127.56;-33.00;10.80 
0.725;-0.97;0.24;0.78;-3.55;26.78;-12.94;-92.92;-95.85;-299.00;1.27;128.05;-33.66;10.36 
0.756;-1.08;0.45;0.53;21.57;78.33;23.23;-89.93;-89.14;-294.00;1.28;127.67;-35.37;10.77 
0.786;-1.18;0.38;0.61;21.43;57.81;90.57;-78.93;-66.14;-294.00;1.38;125.17;-37.51;12.65 
0.816;-1.12;0.20;0.44;11.41;3.55;100.38;-56.95;-53.68;-292.00;1.22;122.19;-37.86;14.98 
0.845;-0.95;0.10;0.38;7.65;-3.90;96.21;-40.97;-43.13;-299.00;1.03;119.74;-37.15;17.04 
0.874;-0.70;0.21;0.59;12.94;-1.32;97.95;-16.99;-33.55;-314.00;0.94;117.36;-36.22;19.13 
0.903;-0.46;0.32;0.57;8.00;-3.69;108.10;2.00;-23.96;-323.00;0.80;114.96;-34.98;21.30 
0.932;-0.42;0.34;0.34;9.11;-14.68;120.97;28.98;-19.17;-329.00;0.64;112.21;-33.13;23.80 
0.961;-0.41;0.22;0.12;1.95;-15.86;114.16;48.96;-18.21;-334.00;0.48;109.36;-31.05;26.40 
0.991;-0.48;0.18;0.06;-8.77;-3.41;107.13;69.94;-20.13;-333.00;0.52;106.63;-29.41;28.40 
1.021;-0.47;0.26;0.09;-10.71;10.64;108.10;96.92;-18.21;-332.00;0.54;103.53;-28.09;30.25 
1.052;-0.50;0.29;0.10;-18.37;23.03;108.31;112.91;-12.46;-338.00;0.59;99.89;-26.79;32.14 
1.082;-0.47;0.36;0.20;-21.77;53.29;101.22;131.89;-12.46;-335.00;0.62;95.82;-25.95;33.71 
1.112;-0.58;0.50;0.48;-16.90;72.35;93.01;147.88;-2.88;-325.00;0.90;91.44;-25.70;35.13 
1.143;-0.77;0.52;0.66;-20.73;44.87;89.32;170.86;10.54;-315.00;1.14;87.21;-25.32;36.46 
1.173;-0.71;0.44;0.65;-15.23;14.05;76.38;179.85;15.34;-315.00;1.06;84.18;-24.27;37.50 
1.203;-0.72;0.42;0.59;-8.35;5.84;67.27;193.84;17.25;-316.00;1.02;82.05;-23.08;38.44 
1.233;-0.66;0.32;0.54;-5.57;7.10;49.46;204.83;13.42;-317.00;0.91;80.33;-22.10;39.26 
1.264;-0.59;0.46;0.49;3.27;12.52;26.43;217.82;14.38;-317.00;0.89;79.13;-21.61;39.89 
1.294;-0.53;0.52;0.52;12.24;15.30;21.50;219.82;17.25;-315.00;0.91;78.11;-21.44;40.70 
1.324;-0.51;0.48;0.51;15.03;14.12;11.76;228.81;17.25;-316.00;0.87;77.24;-21.37;41.52 
1.355;-0.51;0.50;0.45;15.23;10.64;4.17;234.80;17.25;-312.00;0.84;76.68;-21.48;42.28 
1.385;-0.49;0.51;0.34;16.97;17.88;-1.04;244.80;19.17;-312.00;0.78;76.23;-21.73;43.05 
1.415;-0.51;0.52;0.47;11.83;33.53;-7.17;242.80;28.76;-308.00;0.87;75.59;-22.30;43.69 
1.445;-0.72;0.67;0.62;4.52;24.49;-13.63;243.80;31.63;-303.00;1.16;75.10;-23.18;43.92 
1.475;-0.72;0.67;0.59;6.33;3.20;1.32;243.80;35.46;-301.00;1.15;75.01;-23.59;44.15 
1.504;-0.67;0.54;0.58;7.93;7.03;-3.90;241.80;36.42;-302.00;1.04;74.96;-23.67;44.51 
1.534;-0.77;0.70;0.75;2.30;1.39;-12.10;246.80;43.13;-298.00;1.28;75.15;-23.96;44.64 
1.565;-0.83;0.86;0.80;3.90;-9.18;-15.93;247.79;38.34;-303.00;1.44;75.85;-24.18;44.59 
1.595;-0.78;0.86;0.73;9.88;-12.80;-15.79;242.80;40.26;-308.00;1.37;76.70;-24.31;44.71 
1.625;-0.76;0.56;0.60;7.65;-23.44;-21.22;239.80;33.55;-318.00;1.12;77.77;-24.37;44.82 
1.655;-0.73;0.41;0.40;2.99;-33.74;-33.53;231.81;28.76;-324.00;0.93;79.62;-24.56;44.58 
1.685;-0.75;0.36;0.26;-0.28;-26.37;-45.29;223.81;24.92;-334.00;0.87;82.04;-25.02;44.05 
1.715;-0.71;0.51;0.44;-6.82;5.08;-65.25;209.83;23.00;-336.00;0.98;84.24;-26.25;43.14 
1.745;-0.76;0.51;0.74;-10.09;-1.95;-71.93;182.85;24.92;-334.00;1.18;86.41;-27.97;41.78 
1.776;-0.81;0.44;0.62;-10.92;-47.44;-70.82;167.86;20.13;-339.00;1.11;89.80;-29.15;40.16 
1.806;-0.67;0.32;0.41;-8.42;-61.98;-62.68;152.87;10.54;-349.00;0.85;94.21;-29.50;38.66 
1.836;-0.53;0.27;0.34;-7.79;-47.93;-67.06;130.89;-3.83;-355.00;0.69;98.24;-29.78;37.36 
1.867;-0.49;0.26;0.39;-6.96;-43.13;-73.60;109.91;-17.25;-358.00;0.68;102.26;-30.32;35.95 
1.897;-0.51;0.22;0.35;-3.76;-47.86;-72.35;104.91;-22.05;-364.00;0.66;106.45;-30.84;34.49 
1.927;-0.58;0.16;0.29;3.20;-29.91;-74.71;82.93;-37.38;-372.00;0.67;110.31;-31.54;33.16 
1.957;-0.58;0.26;0.35;9.81;-14.75;-80.00;65.95;-46.01;-373.00;0.73;113.87;-32.71;31.87 
1.987;-0.66;0.38;0.46;6.82;-5.15;-70.89;50.96;-50.80;-377.00;0.89;117.21;-34.03;30.70 
2.017;-0.62;0.45;0.58;-0.21;-6.19;-60.66;39.97;-56.55;-374.00;0.96;119.88;-35.15;29.69 
2.047;-0.66;0.35;0.55;-9.39;-20.59;-47.10;26.98;-63.26;-378.00;0.93;122.32;-35.84;28.63 
2.078;-0.63;0.22;0.46;-15.58;-19.48;-33.95;22.98;-70.93;-376.00;0.81;124.54;-36.14;27.55 
2.108;-0.60;0.14;0.45;-16.49;0.97;-28.24;9.99;-73.80;-378.00;0.76;126.05;-36.62;26.51 
2.138;-0.62;0.24;0.57;-13.43;8.70;-20.94;4.00;-71.89;-381.00;0.88;126.92;-37.27;25.66 
2.168;-0.66;0.23;0.62;-10.37;-1.18;-11.97;-3.00;-75.72;-376.00;0.93;127.42;-37.82;24.96 
2.198;-0.64;0.22;0.60;-11.27;-14.33;2.92;-6.99;-76.68;-377.00;0.90;128.13;-37.79;24.60 
2.228;-0.56;0.22;0.51;-12.17;-16.77;11.20;-9.99;-79.56;-380.00;0.79;128.67;-37.31;24.45 
2.258;-0.60;0.26;0.58;-11.06;4.59;19.62;-6.99;-82.43;-381.00;0.87;128.70;-36.91;24.54 
2.289;-0.70;0.29;0.74;-10.09;16.63;24.14;-7.99;-79.56;-379.00;1.06;128.10;-36.93;24.79 
2.319;-0.73;0.25;0.80;-12.80;-5.15;32.83;-6.00;-77.64;-376.00;1.11;127.39;-36.72;25.09 
2.349;-0.64;0.15;0.62;-15.30;-17.81;33.60;-2.00;-76.68;-384.00;0.90;126.98;-35.91;25.41 
2.379;-0.64;0.12;0.52;-15.37;-4.10;24.21;-3.00;-75.72;-383.00;0.83;126.66;-35.25;25.57 
2.408;-0.65;0.14;0.58;-12.80;10.16;16.56;0.00;-76.68;-378.00;0.88;126.25;-35.19;25.54 
2.438;-0.66;0.20;0.66;-9.88;5.77;16.83;1.00;-70.93;-379.00;0.95;125.85;-35.34;25.50 
2.468;-0.64;0.21;0.61;-10.57;-2.64;18.71;-4.00;-71.89;-377.00;0.91;125.64;-35.19;25.59 
2.497;-0.63;0.21;0.54;-9.39;-0.28;18.09;-2.00;-70.93;-376.00;0.86;125.28;-35.00;25.60 
2.527;-0.61;0.17;0.58;-6.19;5.57;17.25;2.00;-69.97;-379.00;0.86;125.05;-34.89;25.73 
2.557;-0.65;0.17;0.60;-4.38;10.50;14.54;3.00;-65.18;-376.00;0.90;124.83;-34.94;25.86 
2.588;-0.68;0.20;0.67;-2.64;13.70;10.71;1.00;-63.26;-376.00;0.98;124.62;-35.17;25.96 
2.618;-0.72;0.23;0.70;-2.99;5.01;8.70;4.00;-58.47;-374.00;1.03;124.57;-35.39;26.03 
2.647;-0.70;0.20;0.66;-3.06;-5.15;7.17;8.99;-61.34;-373.00;0.98;124.82;-35.33;26.08 
2.678;-0.65;0.18;0.56;-5.50;-2.02;3.13;7.99;-60.39;-372.00;0.88;125.26;-35.28;26.04 
2.708;-0.63;0.19;0.49;-4.24;13.01;0.35;6.99;-60.39;-371.00;0.82;125.54;-35.53;25.89 
2.738;-0.62;0.26;0.64;-1.25;19.90;-0.90;6.99;-54.63;-366.00;0.93;125.65;-36.14;25.76 
2.768;-0.68;0.26;0.68;-2.16;14.19;5.57;6.00;-55.59;-367.00;1.00;125.68;-36.64;25.74 
2.798;-0.63;0.26;0.61;-2.02;2.30;15.03;4.00;-48.88;-362.00;0.91;125.69;-36.76;25.88 
2.827;-0.57;0.31;0.51;0.83;9.88;24.90;8.99;-48.88;-364.00;0.83;125.54;-36.63;26.29 
2.857;-0.59;0.35;0.43;4.31;21.77;41.39;12.99;-46.01;-361.00;0.81;124.77;-36.57;27.08 
2.888;-0.59;0.32;0.38;5.01;28.31;58.09;26.98;-34.51;-359.00;0.77;123.19;-36.43;28.32 
2.918;-0.64;0.27;0.34;3.76;34.92;64.83;38.97;-27.80;-358.00;0.77;121.01;-36.26;29.77 
2.948;-0.64;0.18;0.35;6.12;48.90;65.60;51.96;-16.29;-352.00;0.75;118.44;-36.23;31.18 
2.978;-0.61;0.11;0.50;6.12;52.73;57.60;67.94;-7.67;-346.00;0.80;115.55;-36.37;32.56 
3.008;-0.75;0.13;0.52;-1.53;30.82;32.14;82.93;11.50;-337.00;0.92;113.30;-36.63;33.42 
3.038;-0.62;0.12;0.43;1.32;21.22;15.23;85.93;12.46;-333.00;0.76;112.27;-36.85;33.78 
3.068;-0.60;0.26;0.41;7.30;21.91;2.09;92.92;22.05;-331.00;0.77;111.95;-37.26;33.97 
3.099;-0.66;0.36;0.38;12.31;31.65;6.40;94.92;27.80;-326.00;0.84;111.59;-37.88;34.22 
3.129;-0.74;0.47;0.40;24.49;49.60;21.70;109.91;36.42;-314.00;0.96;110.45;-38.57;34.95 
3.159;-0.72;0.51;0.59;21.01;45.91;29.84;118.90;47.93;-307.00;1.06;108.49;-39.04;36.10 
3.190;-0.78;0.45;0.60;9.32;11.06;27.97;131.89;51.76;-300.00;1.08;107.06;-38.92;37.16 
3.220;-0.69;0.34;0.43;7.58;-3.62;20.45;145.88;56.55;-290.00;0.88;106.99;-38.45;37.89 
3.250;-0.55;0.34;0.32;6.54;11.76;14.26;150.87;55.59;-293.00;0.72;107.09;-38.13;38.47 
3.280;-0.66;0.53;0.43;2.78;29.91;12.59;156.87;62.30;-281.00;0.95;106.36;-38.22;38.94 
3.310;-0.83;0.68;0.52;-0.70;24.35;24.63;163.86;63.26;-276.00;1.19;105.05;-38.32;39.48 
3.340;-0.83;0.59;0.60;-1.39;22.61;41.46;170.86;69.01;-271.00;1.18;103.44;-37.92;40.37 
3.370;-0.84;0.49;0.66;-8.28;10.43;43.48;183.85;72.85;-257.00;1.18;101.78;-37.21;41.32 
3.401;-0.84;0.47;0.51;-9.74;-12.24;47.03;192.84;71.89;-259.00;1.09;100.94;-36.12;42.24 
3.431;-0.73;0.58;0.31;-3.76;-11.41;50.09;197.84;67.10;-258.00;0.98;100.65;-34.70;43.35 
3.461;-0.77;0.58;0.33;-11.83;10.85;48.83;209.83;63.26;-261.00;1.02;99.57;-33.48;44.56 
3.491;-0.92;0.61;0.42;-19.48;20.94;33.53;218.82;60.39;-252.00;1.18;97.84;-32.75;45.36 
3.521;-0.91;0.58;0.72;-22.12;35.06;0.97;217.82;66.14;-253.00;1.30;96.15;-32.88;45.42 
3.551;-0.96;0.50;1.00;-35.06;10.99;-17.46;215.82;66.14;-241.00;1.47;95.39;-33.58;44.63 
3.580;-0.89;0.53;0.77;-33.60;-28.80;-26.85;210.82;64.22;-239.00;1.29;96.85;-34.02;43.40 
3.609;-0.72;0.58;0.59;-23.44;-26.71;-19.97;190.84;60.39;-249.00;1.10;99.34;-34.15;42.29 
3.639;-0.71;0.51;0.53;-15.72;-15.17;-2.09;183.85;56.55;-247.00;1.02;100.94;-34.07;41.73 
3.669;-0.56;0.39;0.57;-1.88;-19.27;2.71;184.85;49.84;-252.00;0.89;102.10;-33.74;41.63 
3.699;-0.62;0.32;0.55;7.58;-26.09;-7.86;180.85;47.93;-256.00;0.89;103.84;-33.36;41.66 
3.728;-0.61;0.34;0.50;15.79;-22.61;-30.82;179.85;46.01;-263.00;0.86;106.16;-33.41;41.45 
3.758;-0.74;0.42;0.51;21.01;-27.27;-44.80;170.86;43.13;-272.00;0.99;109.05;-33.93;41.02 
3.789;-0.66;0.41;0.54;24.56;-40.14;-50.37;166.86;42.17;-275.00;0.95;113.04;-34.52;40.44 
3.819;-0.58;0.33;0.46;26.64;-48.42;-59.06;156.87;34.51;-281.00;0.81;117.91;-35.05;39.72 
3.849;-0.58;0.26;0.38;32.07;-55.65;-69.50;151.87;28.76;-292.00;0.74;123.35;-35.67;38.81 
3.879;-0.61;0.10;0.31;42.57;-62.26;-83.41;137.89;17.25;-301.00;0.69;129.61;-36.45;37.74 
3.910;-0.54;0.05;0.24;36.80;-69.77;-110.96;129.89;11.50;-306.00;0.59;137.13;-37.73;36.13 
3.940;-0.59;0.15;0.00;28.31;-62.47;-140.52;109.91;-4.79;-318.00;0.61;144.80;-39.70;33.48 
3.970;-0.63;0.28;-0.05;35.34;-32.56;-152.42;86.93;-15.34;-325.00;0.69;152.39;-41.86;30.70 
4.001;-0.66;0.26;0.05;35.34;6.12;-138.99;59.95;-23.96;-325.00;0.71;159.42;-45.01;27.88 
4.031;-0.72;0.36;0.25;43.06;25.04;-129.39;40.97;-27.80;-323.00;0.84;165.84;-48.37;25.22 
4.061;-0.83;0.62;0.37;30.61;3.48;-106.92;26.98;-26.84;-317.00;1.10;171.69;-51.24;22.87 
4.091;-0.70;0.61;0.32;12.59;-27.62;-67.83;11.99;-35.46;-318.00;0.98;176.05;-52.60;21.09 
4.121;-0.67;0.41;0.25;7.51;-18.64;-43.55;-2.00;-46.01;-315.00;0.82;178.84;-53.02;19.99 
4.151;-0.63;0.34;0.32;10.30;-7.79;-37.22;-6.00;-53.68;-312.00;0.78;-179.09;-53.55;19.17 
4.181;-0.66;0.21;0.46;0.21;-17.88;-27.62;-13.99;-63.26;-310.00;0.83;-177.53;-53.88;18.40 
4.212;-0.62;0.00;0.51;-16.63;-41.04;-42.99;-17.99;-68.05;-308.00;0.80;-176.79;-53.75;17.22 
4.242;-0.62;0.01;0.47;-30.61;-63.51;-70.47;-34.97;-90.10;-307.00;0.78;-176.06;-53.21;15.18 
4.272;-1.02;0.30;0.83;-39.51;-7.23;-73.32;-53.96;-106.39;-307.00;1.35;-175.47;-52.73;12.72 
4.302;-1.62;0.56;1.81;-47.51;-21.77;-27.34;-66.94;-112.15;-299.00;2.49;-175.55;-53.44;10.58 
4.332;-0.97;-0.20;1.67;-27.41;-79.17;21.91;-80.93;-123.65;-294.00;1.94;-178.11;-50.95;8.48 
4.362;-0.93;-0.45;1.29;8.77;-16.56;37.84;-79.93;-133.23;-297.00;1.65;-179.68;-49.14;9.20 
4.392;-0.63;-0.23;1.22;2.64;13.15;-26.50;-83.93;-136.11;-297.00;1.39;-179.53;-48.84;8.93 
4.423;-0.49;0.28;1.08;7.93;14.33;7.86;-84.93;-134.19;-302.00;1.22;-178.94;-49.05;8.51 
4.453;-0.46;0.26;0.80;9.32;12.24;55.65;-83.93;-132.27;-305.00;0.96;-179.61;-48.91;9.49 
4.483;-0.38;0.11;0.72;-0.42;-9.88;61.15;-68.94;-126.52;-309.00;0.82;178.78;-48.22;10.91 
4.514;-0.33;0.00;0.46;-19.83;-35.13;45.77;-65.95;-129.40;-310.00;0.57;176.83;-46.97;11.76 
4.544;-0.27;0.02;0.13;-28.52;-45.36;48.28;-60.95;-130.36;-318.00;0.30;174.81;-45.29;12.02 
4.574;-0.25;0.00;0.03;-33.88;-3.97;44.38;-62.95;-135.15;-320.00;0.25;172.75;-44.32;12.22 
4.604;-0.34;0.06;0.24;-31.44;58.02;44.38;-63.95;-128.44;-315.00;0.42;170.56;-44.90;12.35 
4.635;-0.54;0.15;0.64;-26.23;77.77;57.04;-63.95;-114.06;-308.00;0.85;167.80;-46.50;12.78 
4.665;-0.69;0.00;1.16;-20.87;73.32;81.11;-58.95;-98.73;-303.00;1.35;164.42;-47.91;13.68 
4.695;-0.88;-0.15;1.37;11.48;52.59;93.08;-43.96;-80.51;-292.00;1.64;161.03;-48.65;15.29 
4.725;-0.86;0.07;1.25;-12.10;-3.27;78.96;-26.98;-69.01;-294.00;1.52;158.62;-48.31;17.14 
4.754;-0.66;0.21;0.82;-21.57;-72.63;82.30;-21.98;-71.89;-296.00;1.07;156.68;-46.15;18.55 
4.784;-0.49;0.12;0.39;-20.52;-77.43;77.36;-12.99;-74.76;-304.00;0.64;155.20;-43.05;19.73 
4.814;-0.54;0.00;0.26;-4.24;-25.88;76.45;-6.00;-81.47;-310.00;0.60;153.81;-40.75;20.88 
4.844;-0.71;-0.06;0.35;-2.57;49.18;56.00;9.99;-76.68;-313.00;0.79;151.99;-40.34;22.02 
4.873;-0.75;0.21;0.69;-21.57;91.97;23.65;13.99;-61.34;-305.00;1.04;149.82;-41.87;22.41 
4.903;-0.77;0.62;0.93;-33.04;51.13;21.50;10.99;-49.84;-291.00;1.36;147.42;-43.56;22.27 
4.934;-0.74;0.73;0.71;-32.21;-20.59;64.90;11.99;-43.13;-287.00;1.26;145.53;-43.22;22.65 
4.964;-0.46;0.34;0.38;-34.64;-5.01;97.25;21.98;-45.05;-286.00;0.69;143.01;-41.28;24.05 
4.993;-0.38;0.24;0.58;-39.37;39.17;93.36;30.97;-38.34;-285.00;0.73;139.37;-40.07;25.48 
5.024;-0.52;0.23;0.78;-48.21;40.49;73.04;35.97;-30.67;-276.00;0.97;135.31;-39.56;26.34 
5.054;-0.52;0.18;0.77;-48.07;15.65;58.09;40.97;-23.96;-271.00;0.95;132.05;-38.95;26.63 
5.084;-0.52;0.13;0.72;-36.73;19.20;42.71;46.96;-20.13;-272.00;0.90;129.80;-38.31;26.73 
5.114;-0.58;0.17;0.82;-25.95;17.81;35.34;44.96;-14.38;-266.00;1.02;128.13;-38.09;26.73 
5.144;-0.57;0.21;0.86;-21.70;-5.22;31.72;51.96;-8.63;-265.00;1.05;127.08;-37.59;26.87 
5.174;-0.48;0.23;0.71;-19.83;-22.33;19.48;52.96;-13.42;-263.00;0.89;126.87;-36.68;26.93 
5.204;-0.34;0.26;0.61;-12.03;-16.70;6.40;51.96;-15.34;-265.00;0.75;127.36;-35.78;26.88 
5.234;-0.34;0.25;0.65;-3.83;-7.86;1.18;49.96;-18.21;-271.00;0.77;128.01;-35.19;26.88 
5.264;-0.37;0.24;0.72;-0.07;-15.17;-5.36;45.96;-23.00;-268.00;0.84;128.92;-34.74;26.84 
5.294;-0.38;0.22;0.70;4.31;-14.96;-16.49;48.96;-24.92;-273.00;0.83;130.25;-34.30;26.72 
5.325;-0.33;0.20;0.77;9.04;-0.63;-34.50;46.96;-23.96;-276.00;0.86;131.98;-34.30;26.39 
5.355;-0.53;0.34;0.83;6.68;-4.03;-43.69;38.97;-31.63;-279.00;1.04;133.99;-34.76;25.85 
5.385;-0.51;0.58;0.95;7.93;-18.16;-39.23;32.97;-34.51;-279.00;1.22;136.19;-35.00;25.34 
5.415;-0.61;0.62;0.92;13.22;-20.66;-13.70;26.98;-43.13;-281.00;1.27;138.27;-34.71;25.22 
5.446;-0.74;0.76;0.86;19.06;0.21;10.02;27.98;-42.17;-283.00;1.37;139.57;-34.40;25.70 
5.476;-0.77;0.62;0.90;18.23;-2.09;55.30;37.97;-42.17;-286.00;1.34;139.61;-33.92;27.04 
5.506;-0.90;0.22;0.74;1.18;-30.47;58.23;47.96;-45.05;-294.00;1.19;138.92;-32.61;28.42 
5.537;-0.77;0.03;0.41;-11.27;-40.21;28.73;50.96;-45.05;-300.00;0.87;138.82;-31.21;29.00 
5.567;-0.69;-0.14;0.21;-14.12;-20.66;0.42;50.96;-46.97;-310.00;0.73;139.27;-30.59;28.68 
5.597;-0.66;-0.12;0.24;-6.05;12.80;-13.77;45.96;-48.88;-311.00;0.71;139.89;-31.12;27.99 
5.627;-0.72;0.11;0.43;1.95;30.26;-14.68;44.96;-46.97;-307.00;0.85;140.41;-32.41;27.44 
5.657;-0.66;0.29;0.67;0.97;37.77;-6.82;35.97;-44.09;-303.00;0.98;140.73;-33.69;27.20 
5.687;-0.63;0.32;0.82;-6.12;39.10;3.27;38.97;-36.42;-294.00;1.08;140.54;-34.78;27.11 
5.717;-0.68;0.22;0.82;-10.71;9.53;2.64;36.97;-34.51;-283.00;1.09;140.21;-35.46;26.90 
5.747;-0.60;0.12;0.62;-10.09;-21.91;9.60;31.97;-32.59;-282.00;0.87;140.49;-35.22;26.63 
5.776;-0.48;0.06;0.42;-3.97;-3.41;5.43;36.97;-39.30;-287.00;0.64;140.95;-34.76;26.44 
5.806;-0.49;0.30;0.48;-4.03;38.61;-1.04;32.97;-36.42;-281.00;0.75;141.11;-35.27;26.28 
5.837;-0.57;0.40;0.67;-15.51;44.52;9.95;27.98;-25.88;-273.00;0.97;140.43;-36.40;26.18 
5.867;-0.61;0.38;0.65;-23.37;26.78;28.38;29.98;-20.13;-268.00;0.97;139.19;-36.97;26.19 
5.897;-0.60;0.27;0.64;-27.20;25.74;40.56;30.97;-15.34;-265.00;0.92;137.54;-37.06;26.32 
5.927;-0.58;0.23;0.74;-31.30;28.31;47.03;32.97;-14.38;-260.00;0.97;135.53;-37.01;26.52 
5.958;-0.61;0.27;0.66;-35.13;19.48;51.06;35.97;0.00;-249.00;0.94;133.11;-36.88;26.61 
5.988;-0.62;0.16;0.61;-29.84;12.94;53.98;41.97;0.00;-244.00;0.88;130.94;-36.43;26.86 
6.018;-0.66;0.00;0.54;-23.10;21.08;48.35;51.96;9.59;-239.00;0.85;128.99;-36.07;27.18 
6.049;-0.70;-0.02;0.66;-25.18;32.35;30.26;51.96;9.59;-238.00;0.96;127.18;-36.17;27.19 
6.079;-0.73;0.13;0.71;-20.94;19.69;19.90;54.95;19.17;-230.00;1.03;125.91;-36.53;26.93 
6.109;-0.71;0.27;0.65;-25.11;11.62;16.49;54.95;23.00;-227.00;1.00;125.14;-36.69;26.71 
6.139;-0.77;0.29;0.46;-27.48;6.75;14.40;53.96;23.96;-221.00;0.94;124.51;-36.75;26.45 
6.169;-0.77;0.22;0.37;-33.67;34.09;7.58;49.96;23.00;-218.00;0.88;123.65;-37.22;26.01 
6.199;-0.85;0.22;0.58;-23.58;49.11;-0.07;46.96;32.59;-209.00;1.05;122.38;-38.44;25.40 
6.229;-0.85;0.30;0.76;-17.53;21.43;6.47;46.96;37.38;-202.00;1.18;121.49;-39.46;24.97 
6.260;-0.71;0.38;0.57;-17.46;-6.26;19.90;47.96;38.34;-196.00;0.99;121.14;-39.43;24.94 
6.290;-0.65;0.40;0.42;-16.21;2.85;27.41;46.96;37.38;-195.00;0.87;120.71;-38.95;25.24 
6.320;-0.67;0.26;0.41;-10.57;18.71;19.06;49.96;45.05;-193.00;0.83;119.91;-38.89;25.61 
6.349;-0.76;0.22;0.50;-7.17;25.67;7.72;54.95;44.09;-189.00;0.94;119.24;-39.32;25.73 
6.378;-0.78;0.22;0.58;-5.29;24.63;2.99;53.96;47.93;-185.00;1.00;118.72;-39.99;25.68 
6.408;-0.75;0.34;0.57;-0.97;9.74;5.01;50.96;52.72;-180.00;1.00;118.56;-40.42;25.68 
6.438;-0.70;0.34;0.49;2.23;4.24;8.42;51.96;55.59;-180.00;0.92;118.63;-40.52;25.88 
6.468;-0.67;0.31;0.47;5.43;11.06;5.50;55.95;52.72;-178.00;0.88;118.69;-40.64;26.22 
6.498;-0.71;0.22;0.53;6.33;10.43;-2.43;61.95;53.68;-176.00;0.91;118.88;-40.97;26.41 
6.528;-0.75;0.21;0.55;5.29;4.80;-11.62;59.95;58.47;-172.00;0.95;119.45;-41.36;26.35 
6.559;-0.78;0.27;0.51;5.84;-2.30;-18.78;57.95;57.51;-169.00;0.97;120.50;-41.77;26.07 
6.588;-0.77;0.37;0.46;6.68;-2.85;-17.53;52.96;54.63;-174.00;0.97;121.79;-42.12;25.82 
6.618;-0.75;0.30;0.46;8.28;4.80;-12.73;49.96;57.51;-173.00;0.93;122.85;-42.50;25.65 
6.648;-0.76;0.26;0.52;10.99;7.03;-10.92;50.96;56.55;-171.00;0.96;123.68;-42.99;25.55 
6.678;-0.78;0.19;0.56;13.57;-0.77;-13.22;47.96;54.63;-174.00;0.98;124.76;-43.42;25.40 
6.708;-0.75;0.21;0.51;15.65;-6.82;-20.03;42.96;54.63;-174.00;0.93;126.24;-43.75;25.19 
6.738;-0.75;0.22;0.51;16.49;-10.50;-25.39;39.97;55.59;-171.00;0.93;128.09;-44.06;24.90 
6.769;-0.77;0.26;0.47;18.43;-10.71;-28.52;36.97;52.72;-176.00;0.94;130.30;-44.38;24.52 
6.799;-0.77;0.30;0.46;16.42;-5.57;-29.08;33.97;52.72;-178.00;0.95;132.48;-44.82;24.14 
6.829;-0.74;0.30;0.46;14.82;0.07;-28.52;27.98;50.80;-181.00;0.92;134.39;-45.38;23.71 
6.860;-0.74;0.29;0.48;14.47;1.95;-26.71;25.98;49.84;-181.00;0.93;136.20;-46.00;23.27 
6.890;-0.75;0.26;0.49;14.05;3.69;-25.46;23.98;50.80;-182.00;0.93;137.92;-46.63;22.85 
6.920;-0.74;0.21;0.51;13.15;7.79;-26.85;15.99;51.76;-179.00;0.92;139.50;-47.33;22.34 
6.950;-0.79;0.25;0.50;10.50;2.78;-28.31;11.99;46.97;-182.00;0.97;141.08;-48.11;21.73 
6.980;-0.78;0.29;0.50;9.46;3.20;-23.03;10.99;46.97;-180.00;0.97;142.69;-48.76;21.15 
7.010;-0.80;0.31;0.50;9.25;5.77;-18.09;4.00;46.97;-177.00;0.99;144.04;-49.35;20.71 
7.040;-0.80;0.32;0.49;5.43;0.21;-9.11;6.99;45.05;-179.00;0.99;145.15;-49.82;20.39 
7.070;-0.81;0.26;0.36;3.76;0.42;1.88;3.00;46.01;-172.00;0.92;145.97;-50.03;20.26 
7.100;-0.82;0.22;0.37;3.55;10.37;7.65;2.00;47.93;-169.00;0.93;146.22;-50.36;20.33 
7.130;-0.79;0.24;0.26;3.27;5.84;9.39;3.00;52.72;-163.00;0.87;146.32;-50.72;20.39 
7.160;-0.72;0.21;0.14;15.23;35.41;18.50;5.00;59.43;-152.00;0.76;146.32;-51.17;20.87 
7.190;-0.58;0.30;0.26;5.98;73.88;17.88;11.99;66.14;-130.00;0.70;145.37;-52.53;21.30 
7.220;-0.75;0.21;0.49;7.58;72.56;17.81;11.99;70.93;-116.00;0.92;143.10;-54.12;21.69 
7.250;-0.74;0.13;0.45;16.35;57.18;14.19;17.99;80.51;-101.00;0.88;141.54;-55.47;21.99 
