Time(s) acc_x(g) acc_y(g) acc_z(g) gyr_x(°/s) gyr_y(°/s) gyr_z(°/s) mag_x(G) mag_y(G) mag_z(G) SVM(g) yaw(°) pitch(°) roll(°)
0.000;-0.32;0.22;0.71;-0.63;7.30;2.71;-3.99;-319.17;-406.00;0.81;169.86;-18.60;10.68 
0.030;-0.27;0.16;0.76;-1.11;4.87;-0.70;-3.99;-317.24;-406.00;0.82;170.07;-18.80;10.67 
0.060;-0.30;0.26;0.85;-4.38;-1.81;-5.43;-3.99;-316.28;-407.00;0.94;170.39;-18.93;10.61 
0.091;-0.30;0.36;0.83;-14.19;-8.35;0.14;-6.98;-315.32;-402.00;0.95;170.64;-18.79;10.44 
0.121;-0.46;0.26;0.82;-15.65;3.55;10.50;-9.97;-314.36;-406.00;0.98;170.58;-18.79;10.16 
0.151;-0.55;0.14;0.88;-8.42;1.46;21.77;-11.96;-314.36;-405.00;1.05;170.24;-18.96;9.97 
0.181;-0.41;0.07;0.70;1.18;-14.89;14.89;-12.96;-309.55;-399.00;0.81;170.01;-18.87;9.95 
0.211;-0.29;0.11;0.61;9.25;5.57;16.83;-15.95;-310.51;-401.00;0.68;169.81;-18.78;10.31 
0.241;-0.26;0.14;0.95;-4.87;22.33;14.26;-8.97;-304.75;-404.00;0.99;169.69;-19.11;10.46 
0.271;-0.44;0.07;1.07;-9.32;8.56;24.97;-9.97;-299.94;-404.00;1.16;169.19;-19.49;10.37 
0.302;-0.29;0.22;0.85;-17.67;-1.18;34.09;-15.95;-298.02;-400.00;0.92;168.38;-19.47;10.37 
0.332;-0.26;0.00;0.75;-23.72;12.10;36.38;-18.94;-294.17;-400.00;0.79;167.31;-19.36;10.02 
0.362;-0.34;-0.07;0.83;-18.43;18.64;42.71;-19.93;-289.36;-396.00;0.90;166.14;-19.71;9.60 
0.392;-0.31;-0.14;0.90;-11.97;4.73;39.03;-22.92;-281.67;-393.00;0.96;164.97;-19.88;9.34 
0.422;-0.24;-0.12;0.77;-5.29;8.83;33.88;-24.92;-275.91;-397.00;0.82;164.01;-19.83;9.20 
0.452;-0.28;-0.02;0.79;0.70;16.21;31.72;-22.92;-269.18;-396.00;0.84;163.26;-20.02;9.26 
0.482;-0.34;0.00;0.86;4.66;10.37;32.21;-24.92;-264.37;-394.00;0.92;162.63;-20.26;9.63 
0.513;-0.42;0.01;0.80;5.98;13.84;39.58;-17.94;-262.45;-395.00;0.90;161.86;-20.37;10.19 
0.543;-0.54;0.11;0.78;6.40;29.15;45.50;-16.94;-253.79;-394.00;0.96;160.95;-20.85;10.74 
0.573;-0.77;0.38;0.78;-3.76;50.02;52.24;-9.97;-238.41;-391.00;1.16;159.73;-21.96;11.39 
0.604;-0.54;0.45;0.82;-7.37;34.37;61.63;-5.98;-225.92;-388.00;1.08;157.98;-23.16;12.11 
0.634;-0.32;0.21;0.74;-2.09;12.03;61.36;-4.98;-215.34;-388.00;0.83;156.25;-23.46;12.94 
0.664;-0.31;-0.02;0.69;8.21;28.87;40.77;-3.99;-214.38;-385.00;0.76;154.96;-23.53;13.54 
0.694;-0.45;0.22;0.94;25.11;45.01;22.40;8.97;-197.08;-387.00;1.07;154.35;-24.44;14.27 
0.725;-0.44;0.51;1.01;21.43;22.47;23.10;12.96;-187.46;-383.00;1.21;154.21;-25.34;15.27 
0.755;-0.30;0.48;0.69;15.30;8.97;45.15;19.93;-184.58;-385.00;0.89;153.87;-25.37;16.45 
0.785;-0.29;0.17;0.58;3.90;30.05;49.18;19.93;-183.62;-381.00;0.67;152.86;-25.27;17.54 
0.816;-0.40;0.22;0.71;8.07;51.06;31.51;31.89;-164.39;-382.00;0.84;151.71;-26.06;18.24 
0.846;-0.42;0.35;0.96;2.30;35.13;15.03;33.89;-155.74;-377.00;1.10;151.11;-27.21;18.67 
0.876;-0.47;0.30;0.82;9.04;3.55;12.38;35.88;-151.89;-374.00;0.99;151.03;-27.51;19.07 
0.906;-0.30;0.42;0.70;9.60;3.76;13.77;38.87;-145.16;-374.00;0.87;151.26;-27.53;19.59 
0.936;-0.26;0.39;0.55;5.01;8.83;19.62;47.84;-149.01;-374.00;0.72;151.39;-27.26;20.23 
0.966;-0.37;0.32;0.74;0.63;17.53;12.38;47.84;-138.43;-380.00;0.89;151.25;-27.36;20.67 
0.996;-0.43;0.34;0.74;-6.05;7.93;6.61;49.83;-140.36;-376.00;0.92;151.26;-27.56;20.82 
1.027;-0.41;0.26;0.69;-9.32;16.63;3.97;49.83;-135.55;-375.00;0.84;151.32;-27.81;20.70 
1.056;-0.45;0.26;0.68;-9.18;23.65;-4.45;45.85;-126.90;-370.00;0.86;151.43;-28.40;20.44 
1.085;-0.51;0.40;0.76;-10.02;26.09;-3.90;45.85;-125.94;-364.00;1.00;151.60;-29.12;20.17 
1.114;-0.52;0.40;0.82;-5.91;28.66;5.36;43.85;-121.13;-362.00;1.05;151.59;-29.90;20.07 
1.143;-0.46;0.30;0.91;-3.20;19.27;8.00;42.86;-113.44;-361.00;1.06;151.44;-30.49;20.14 
1.172;-0.43;0.34;0.75;-1.18;15.51;6.05;45.85;-106.71;-357.00;0.93;151.42;-30.82;20.19 
1.201;-0.38;0.51;0.77;2.09;11.90;11.62;46.84;-104.79;-358.00;1.00;151.51;-31.02;20.44 
1.230;-0.46;0.54;0.74;-0.77;22.19;16.83;49.83;-99.02;-353.00;1.03;151.43;-31.14;20.89 
1.259;-0.59;0.52;0.94;-5.91;40.97;15.86;55.81;-93.25;-351.00;1.23;150.99;-31.72;21.27 
1.288;-0.89;0.42;1.19;-4.17;29.08;5.15;53.82;-84.60;-347.00;1.54;150.52;-32.57;21.40 
1.318;-1.07;0.40;1.07;-11.20;-5.84;-21.01;54.82;-81.71;-343.00;1.57;150.88;-33.12;21.09 
1.348;-0.84;0.39;0.79;-14.54;-5.15;-31.30;47.84;-80.75;-342.00;1.22;151.91;-33.42;20.27 
1.378;-0.74;0.34;0.62;-14.12;-0.49;-40.14;41.86;-84.60;-347.00;1.02;153.15;-33.92;19.34 
1.409;-0.79;0.18;0.60;-24.90;7.51;-55.65;31.89;-84.60;-348.00;1.01;154.65;-34.81;18.02 
1.439;-0.77;0.07;0.67;-26.30;0.70;-70.82;21.93;-81.71;-350.00;1.02;156.36;-35.95;16.03 
1.469;-0.69;0.00;0.78;-21.01;-21.15;-75.06;9.97;-87.48;-349.00;1.04;158.44;-36.60;13.93 
1.500;-0.79;0.03;0.66;-17.46;-45.08;-74.57;-8.97;-99.02;-353.00;1.03;160.94;-36.29;11.97 
1.530;-0.66;0.10;0.54;-18.50;-33.95;-74.43;-21.93;-107.67;-360.00;0.86;163.48;-35.81;10.03 
1.560;-0.55;0.03;0.55;-14.12;-16.83;-72.21;-34.88;-120.17;-360.00;0.78;165.82;-35.68;8.15 
1.590;-0.54;0.05;0.51;-3.20;-9.67;-62.40;-48.84;-129.78;-359.00;0.74;167.97;-35.75;6.55 
1.621;-0.48;0.02;0.56;-1.04;-3.90;-58.37;-60.79;-137.47;-364.00;0.74;170.09;-35.92;5.30 
1.651;-0.48;0.00;0.59;-5.36;2.37;-62.33;-64.78;-141.32;-366.00;0.76;172.11;-36.03;4.02 
1.681;-0.47;0.18;0.68;-9.95;-9.25;-45.98;-70.76;-148.05;-366.00;0.85;173.73;-36.16;2.61 
1.712;-0.48;0.16;0.74;-19.06;-13.70;-31.58;-80.73;-154.78;-370.00;0.90;174.91;-35.89;1.62 
1.742;-0.37;-0.20;0.63;-19.48;-27.48;-25.74;-86.71;-164.39;-369.00;0.76;175.49;-35.15;0.44 
1.772;-0.37;-0.18;0.51;-12.03;-26.37;-23.65;-92.69;-169.20;-373.00;0.66;176.08;-34.31;-0.76 
1.802;-0.34;-0.10;0.43;-3.13;-12.87;-19.69;-98.67;-174.00;-369.00;0.56;176.70;-33.62;-1.62 
1.832;-0.30;-0.14;0.56;1.04;7.10;-14.68;-100.66;-175.93;-368.00;0.65;177.29;-33.60;-2.23 
1.862;-0.38;-0.06;0.51;4.31;2.92;-9.18;-98.67;-179.77;-374.00;0.64;177.80;-33.65;-2.61 
1.892;-0.40;-0.06;0.59;7.79;14.75;-2.85;-99.66;-177.85;-371.00;0.72;178.26;-33.87;-2.73 
1.923;-0.45;-0.06;0.71;8.70;24.00;1.60;-96.67;-174.00;-374.00;0.84;178.61;-34.40;-2.71 
1.953;-0.54;-0.07;0.78;12.52;17.74;9.04;-93.68;-170.16;-375.00;0.95;178.74;-35.04;-2.54 
1.983;-0.57;-0.02;0.75;7.37;14.19;10.85;-94.68;-163.43;-372.00;0.94;178.78;-35.52;-2.29 
2.013;-0.49;-0.02;0.78;9.11;10.23;18.37;-88.70;-158.62;-375.00;0.92;178.64;-35.81;-2.00 
2.042;-0.58;-0.17;0.92;2.92;18.85;5.15;-85.71;-157.66;-373.00;1.10;178.43;-36.21;-1.77 
2.072;-0.57;0.05;1.02;-7.93;2.30;-0.42;-84.71;-151.89;-375.00;1.17;178.55;-36.49;-2.01 
2.102;-0.53;-0.07;0.79;-10.37;-18.99;27.34;-87.70;-149.01;-377.00;0.95;178.15;-36.08;-2.16 
2.133;-0.52;-0.17;0.77;-10.85;15.65;23.30;-85.71;-145.16;-374.00;0.94;177.33;-35.92;-2.20 
2.163;-0.69;-0.14;0.99;-13.08;17.46;14.19;-83.72;-139.39;-370.00;1.21;176.66;-36.41;-2.46 
2.193;-0.78;-0.07;0.96;-11.48;10.43;17.81;-87.70;-136.51;-371.00;1.24;176.08;-36.77;-2.65 
2.223;-0.80;0.09;0.97;-10.85;13.01;32.14;-85.71;-130.74;-365.00;1.26;175.23;-37.18;-2.60 
2.252;-0.78;0.02;0.85;-10.50;0.07;47.03;-85.71;-126.90;-366.00;1.15;173.94;-37.50;-2.25 
2.281;-0.71;0.04;0.64;-5.63;-1.60;57.81;-77.74;-123.05;-368.00;0.96;172.50;-37.58;-1.65 
2.311;-0.58;0.10;0.53;-0.97;7.72;69.22;-76.74;-121.13;-372.00;0.79;170.78;-37.79;-0.65 
2.341;-0.59;0.04;0.49;-2.64;17.32;78.40;-62.79;-111.52;-370.00;0.77;168.60;-38.21;0.73 
2.371;-0.65;-0.13;0.50;8.97;24.07;77.22;-50.83;-101.90;-374.00;0.83;166.48;-38.91;2.06 
2.401;-0.68;0.07;0.58;11.83;22.40;78.61;-40.86;-93.25;-368.00;0.90;164.55;-39.65;3.59 
2.432;-0.50;0.38;0.71;-1.81;16.77;73.67;-31.89;-86.52;-367.00;0.95;162.54;-40.13;5.26 
2.462;-0.58;0.26;0.70;-1.11;14.12;76.87;-15.95;-73.06;-366.00;0.95;160.37;-40.18;6.87 
2.492;-0.83;0.16;0.64;-2.99;19.90;69.36;-9.97;-69.22;-361.00;1.06;158.37;-40.37;8.29 
2.523;-0.80;0.14;0.70;-1.11;35.90;58.30;-1.99;-59.60;-363.00;1.07;156.43;-40.94;9.49 
2.553;-0.69;0.27;0.80;-5.08;18.16;44.87;6.98;-51.91;-356.00;1.09;154.87;-41.52;10.50 
2.583;-0.54;0.33;0.53;-11.55;18.64;38.19;12.96;-47.11;-354.00;0.83;153.64;-41.68;11.30 
2.613;-0.57;0.27;0.52;-6.19;34.99;43.97;16.94;-38.45;-351.00;0.82;152.22;-42.17;12.03 
2.643;-0.57;0.30;0.66;-3.27;24.21;49.60;18.94;-30.76;-346.00;0.92;150.74;-42.60;12.97 
2.673;-0.52;0.26;0.61;-4.10;19.41;51.48;29.90;-24.03;-346.00;0.84;149.26;-42.70;14.03 
2.703;-0.54;0.27;0.53;-3.41;21.43;45.98;37.87;-17.30;-344.00;0.80;147.88;-42.69;15.09 
2.734;-0.56;0.28;0.58;-5.36;18.99;38.82;46.84;-9.61;-344.00;0.85;146.67;-42.79;16.05 
2.763;-0.54;0.31;0.48;-6.47;13.57;35.20;51.83;-5.77;-342.00;0.79;145.54;-42.84;16.92 
2.792;-0.49;0.26;0.41;-6.75;8.00;32.00;53.82;-2.88;-343.00;0.69;144.63;-42.65;17.66 
2.822;-0.46;0.25;0.54;-2.57;5.63;20.38;57.81;-2.88;-341.00;0.75;144.13;-42.50;18.16 
2.852;-0.54;0.35;0.50;0.28;-0.42;11.83;61.79;-2.88;-343.00;0.81;144.16;-42.32;18.59 
2.882;-0.60;0.34;0.61;-0.28;-8.97;8.35;65.78;-1.92;-347.00;0.92;144.44;-42.09;18.95 
2.912;-0.59;0.31;0.59;-1.18;-10.57;4.03;63.78;-1.92;-348.00;0.89;144.88;-41.78;19.15 
2.943;-0.54;0.28;0.62;-3.55;-11.06;-3.41;65.78;-3.85;-350.00;0.87;145.55;-41.42;19.13 
2.973;-0.66;0.32;0.58;1.11;-3.69;-8.00;59.80;-9.61;-346.00;0.94;146.34;-41.29;19.04 
3.003;-0.65;0.36;0.62;2.09;-3.83;-7.23;60.79;-5.77;-351.00;0.97;147.18;-41.31;18.96 
3.033;-0.60;0.34;0.61;-2.16;-0.83;-8.28;56.81;-7.69;-355.00;0.92;147.97;-41.31;18.87 
3.063;-0.81;0.43;0.70;-6.40;12.73;-13.63;56.81;-6.73;-348.00;1.15;148.59;-41.57;18.56 
3.093;-0.63;0.43;0.93;-2.85;8.28;7.65;55.81;-5.77;-350.00;1.20;148.84;-41.97;18.48 
3.123;-0.66;0.34;0.61;-3.13;-4.45;-4.80;54.82;0.96;-348.00;0.96;149.09;-41.90;18.48 
3.153;-0.66;0.49;0.56;-5.57;21.77;-6.82;53.82;0.96;-348.00;0.99;149.55;-42.24;18.39 
3.183;-0.81;0.42;0.78;-8.90;21.22;-3.48;55.81;2.88;-345.00;1.20;149.56;-42.95;18.28 
3.213;-0.86;0.29;0.77;-3.97;13.29;-23.37;48.84;5.77;-336.00;1.19;149.88;-43.63;17.91 
3.243;-0.90;0.27;0.55;-0.07;18.99;-46.40;43.85;9.61;-343.00;1.09;151.05;-44.55;17.03 
3.272;-0.86;0.23;0.59;4.80;17.88;-55.72;32.89;7.69;-336.00;1.07;152.74;-45.94;15.93 
3.301;-0.73;0.27;0.46;5.63;0.42;-63.79;25.91;9.61;-336.00;0.90;154.89;-47.03;14.71 
3.332;-0.72;0.30;0.50;-0.35;-13.84;-58.09;12.96;5.77;-334.00;0.93;157.35;-47.63;13.33 
3.362;-0.62;0.18;0.61;-16.07;-34.92;-51.48;-5.98;-0.96;-341.00;0.89;159.51;-47.56;11.92 
3.392;-0.50;-0.07;0.46;-26.30;-28.52;-48.83;-14.95;-10.57;-345.00;0.68;160.89;-47.07;10.10 
3.421;-0.56;0.00;0.51;-16.35;-14.96;-47.03;-34.88;-16.34;-349.00;0.76;162.16;-46.80;8.25 
3.450;-0.78;0.16;0.57;-0.14;-5.29;-34.09;-43.85;-23.07;-350.00;0.98;163.46;-46.78;7.03 
3.479;-0.75;0.18;0.70;0.28;-7.03;-29.36;-43.85;-24.03;-352.00;1.04;164.70;-46.87;6.24 
3.509;-0.72;0.24;0.66;-1.04;-4.73;-10.99;-49.83;-30.76;-356.00;1.01;165.68;-46.67;5.72 
3.539;-0.77;0.14;0.57;-12.31;0.42;-16.77;-52.82;-24.99;-356.00;0.97;166.09;-46.77;5.23 
3.569;-0.66;-0.21;0.57;-11.97;6.68;-30.89;-54.82;-28.84;-351.00;0.90;166.53;-47.03;4.22 
3.599;-0.66;-0.11;0.60;-2.78;14.61;-36.03;-64.78;-28.84;-351.00;0.90;167.48;-47.44;2.97 
3.630;-0.69;0.04;0.60;-0.56;14.40;-38.05;-68.77;-34.61;-356.00;0.92;168.67;-48.01;1.82 
3.660;-0.58;0.00;0.65;-2.71;-2.71;-31.86;-74.75;-33.65;-356.00;0.87;169.89;-48.21;0.78 
3.690;-0.60;-0.06;0.62;-1.67;-2.92;-22.19;-79.73;-42.30;-357.00;0.86;170.84;-48.00;-0.06 
3.720;-0.65;-0.11;0.68;0.70;-4.45;-20.31;-81.72;-44.22;-357.00;0.95;171.65;-47.81;-0.81 
3.750;-0.59;0.02;0.72;2.78;-8.28;-13.91;-89.70;-48.07;-353.00;0.93;172.47;-47.56;-1.38 
3.779;-0.59;0.06;0.70;-2.16;-8.56;-2.02;-89.70;-50.95;-348.00;0.92;172.92;-47.18;-1.72 
3.809;-0.82;0.01;0.65;-4.24;2.02;3.55;-88.70;-55.76;-349.00;1.05;173.03;-46.95;-1.89 
3.840;-0.77;0.02;1.02;2.37;8.56;-3.97;-86.71;-53.84;-342.00;1.28;173.09;-47.33;-2.08 
3.870;-0.66;0.14;0.85;2.43;-36.66;16.77;-82.72;-61.53;-342.00;1.09;173.26;-46.73;-2.07 
3.900;-0.67;-0.06;0.67;-5.63;-42.64;21.15;-79.73;-67.29;-347.00;0.95;172.93;-45.45;-1.71 
3.931;-0.70;-0.05;0.67;-6.40;-27.27;6.19;-80.73;-74.02;-346.00;0.97;172.58;-44.43;-1.72 
3.960;-0.59;0.12;0.70;-2.85;-37.22;9.60;-78.73;-77.87;-350.00;0.92;172.62;-43.44;-1.83 
3.989;-0.62;0.04;0.58;-3.90;-51.13;25.32;-79.73;-91.33;-353.00;0.85;172.37;-42.21;-1.59 
4.018;-0.66;0.00;0.49;-10.23;-54.47;22.26;-79.73;-102.86;-361.00;0.82;171.84;-40.67;-1.38 
4.048;-0.49;0.01;0.42;-4.45;-42.64;14.54;-75.74;-112.48;-368.00;0.65;171.49;-39.14;-1.35 
4.078;-0.46;0.05;0.55;5.50;-24.35;20.17;-74.75;-116.32;-370.00;0.72;171.31;-38.13;-1.11 
4.108;-0.73;0.14;0.67;6.61;-8.42;20.31;-73.75;-123.05;-371.00;1.00;171.09;-37.75;-0.58 
4.139;-0.65;0.20;0.82;0.00;-18.71;24.14;-69.76;-126.90;-376.00;1.07;170.77;-37.50;-0.05 
4.169;-0.63;0.10;0.72;-2.37;-39.72;29.63;-64.78;-125.94;-378.00;0.96;170.26;-36.52;0.45 
4.199;-0.54;0.01;0.66;-0.49;-29.22;24.14;-61.79;-135.55;-381.00;0.85;169.78;-35.48;0.81 
4.230;-0.46;0.02;0.73;3.76;-23.03;13.70;-57.81;-138.43;-382.00;0.86;169.56;-34.67;1.08 
4.260;-0.50;0.06;0.71;5.08;-29.77;6.33;-60.79;-149.01;-384.00;0.87;169.70;-33.85;1.30 
4.290;-0.47;0.08;0.73;2.99;-33.74;2.64;-56.81;-153.82;-387.00;0.87;170.00;-32.86;1.46 
4.320;-0.44;0.06;0.70;-0.35;-38.26;0.63;-59.80;-164.39;-392.00;0.83;170.35;-31.76;1.54 
4.351;-0.45;0.04;0.64;0.63;-36.66;-2.50;-59.80;-172.08;-393.00;0.78;170.70;-30.61;1.50 
4.381;-0.36;0.10;0.61;-0.83;-31.44;-9.25;-61.79;-182.66;-397.00;0.72;171.24;-29.62;1.37 
4.411;-0.37;0.07;0.75;4.66;-20.52;-9.67;-61.79;-192.27;-400.00;0.84;171.85;-28.80;1.27 
4.442;-0.47;0.09;0.78;4.80;-16.28;-9.11;-61.79;-194.19;-401.00;0.92;172.46;-28.25;1.29 
4.472;-0.44;0.11;0.77;4.03;-17.67;-10.43;-59.80;-199.96;-404.00;0.89;173.13;-27.74;1.27 
4.502;-0.39;0.13;0.76;3.34;-15.37;-5.50;-57.81;-208.61;-408.00;0.86;173.66;-27.23;1.31 
4.532;-0.39;0.14;0.76;2.02;-8.77;-1.39;-56.81;-208.61;-409.00;0.87;174.02;-26.85;1.40 
4.562;-0.42;0.13;0.74;0.14;-3.34;1.74;-54.82;-214.38;-406.00;0.86;174.27;-26.63;1.50 
4.592;-0.38;0.10;0.76;-0.77;-0.07;1.46;-57.81;-210.53;-408.00;0.86;174.42;-26.57;1.55 
4.621;-0.40;0.11;0.82;-0.42;3.34;-0.49;-57.81;-212.46;-410.00;0.92;174.58;-26.59;1.54 
4.651;-0.42;0.08;0.85;0.77;1.39;-3.62;-55.81;-210.53;-416.00;0.95;174.81;-26.67;1.51 
4.681;-0.42;0.11;0.88;-0.83;-4.31;-5.01;-52.82;-212.46;-411.00;0.98;175.16;-26.61;1.45 
4.711;-0.40;0.10;0.83;0.00;-7.51;-2.99;-57.81;-213.42;-411.00;0.93;175.49;-26.40;1.39 
4.742;-0.33;0.09;0.74;0.83;-2.92;-2.71;-55.81;-216.30;-410.00;0.82;175.79;-26.19;1.39 
4.772;-0.33;0.10;0.79;0.42;0.97;-4.31;-55.81;-216.30;-409.00;0.86;176.09;-26.11;1.38 
4.802;-0.35;0.16;0.82;-0.56;2.23;-2.43;-56.81;-218.23;-412.00;0.91;176.39;-26.09;1.39 
4.832;-0.38;0.10;0.82;0.14;4.52;0.00;-59.80;-216.30;-413.00;0.91;176.60;-26.16;1.38 
4.863;-0.40;0.10;0.79;-0.42;4.94;-0.63;-57.81;-217.26;-411.00;0.89;176.79;-26.27;1.37 
4.892;-0.40;0.06;0.85;-0.28;3.76;-1.32;-55.81;-210.53;-412.00;0.94;176.98;-26.42;1.34 
4.922;-0.39;0.08;0.77;-0.42;3.41;-3.55;-58.80;-214.38;-411.00;0.87;177.22;-26.47;1.26 
4.953;-0.40;0.08;0.79;0.07;5.01;-2.85;-56.81;-214.38;-413.00;0.89;177.48;-26.58;1.24 
4.983;-0.38;0.10;0.86;-0.56;1.53;-1.39;-60.79;-211.50;-413.00;0.95;177.73;-26.64;1.21 
5.013;-0.39;0.08;0.80;-1.18;-0.56;0.21;-54.82;-211.50;-413.00;0.89;177.91;-26.61;1.19 
5.043;-0.39;0.07;0.79;0.21;0.83;1.32;-53.82;-212.46;-413.00;0.88;178.04;-26.57;1.16 
5.073;-0.39;0.07;0.77;0.42;4.45;-0.35;-55.81;-210.53;-414.00;0.87;178.21;-26.62;1.12 
5.103;-0.42;0.08;0.86;0.42;0.77;0.21;-56.81;-208.61;-411.00;0.96;178.38;-26.69;1.09 
5.133;-0.36;0.11;0.78;-0.35;-1.81;1.53;-57.81;-209.57;-414.00;0.87;178.52;-26.61;1.10 
5.164;-0.42;0.08;0.78;0.21;5.08;1.32;-53.82;-210.53;-415.00;0.89;178.63;-26.63;1.10 
5.193;-0.40;0.10;0.86;0.97;-0.97;4.03;-53.82;-207.65;-417.00;0.95;178.71;-26.69;1.14 
5.222;-0.47;0.11;0.77;0.35;-1.81;3.34;-57.81;-206.69;-417.00;0.91;178.75;-26.64;1.18 
5.253;-0.48;0.10;0.70;0.00;-0.63;5.50;-52.82;-207.65;-415.00;0.85;178.80;-26.66;1.24 
5.283;-0.54;0.10;0.70;1.11;0.21;3.27;-53.82;-208.61;-414.00;0.89;178.83;-26.75;1.29 
5.313;-0.58;0.03;0.74;6.75;5.63;-1.81;-51.83;-206.69;-416.00;0.94;178.97;-26.96;1.36 
5.343;-0.46;0.06;0.73;3.69;4.10;-8.21;-51.83;-206.69;-417.00;0.86;179.35;-27.19;1.42 
5.373;-0.39;0.14;0.60;6.40;13.98;-9.88;-49.83;-206.69;-413.00;0.73;179.85;-27.50;1.43 
5.403;-0.41;0.21;0.56;4.31;25.25;-9.11;-52.82;-199.96;-410.00;0.73;-179.61;-28.15;1.52 
5.433;-0.49;0.14;0.62;5.22;47.58;-7.51;-51.83;-191.31;-411.00;0.80;-179.15;-29.31;1.66 
5.464;-0.60;0.06;0.77;3.34;57.60;-15.58;-47.84;-184.58;-407.00;0.98;-178.56;-31.09;1.56 
5.494;-0.57;0.04;0.70;1.81;36.03;-17.60;-46.84;-169.20;-401.00;0.90;-177.88;-32.70;1.23 
5.524;-0.40;0.06;0.56;6.05;24.49;-19.27;-47.84;-159.58;-397.00;0.69;-177.13;-33.64;0.99 
5.554;-0.34;0.06;0.52;9.32;42.23;-22.82;-53.82;-154.78;-395.00;0.62;-176.23;-34.52;0.75 
5.584;-0.45;0.09;0.74;9.04;71.44;-17.04;-48.84;-145.16;-393.00;0.87;-175.22;-36.13;0.55 
5.614;-0.58;0.19;0.87;5.29;61.22;-9.88;-49.83;-124.01;-383.00;1.06;-174.36;-38.13;0.47 
5.644;-0.51;0.14;0.80;6.05;33.11;4.24;-50.83;-116.32;-379.00;0.96;-173.95;-39.51;0.47 
5.675;-0.51;0.03;0.64;7.72;43.97;2.71;-44.85;-103.83;-371.00;0.82;-173.68;-40.55;0.77 
5.705;-0.50;0.00;0.66;4.80;43.55;-3.34;-48.84;-93.25;-367.00;0.83;-173.35;-41.91;0.75 
5.735;-0.56;0.13;0.65;2.16;48.21;-8.42;-46.84;-80.75;-359.00;0.87;-172.87;-43.17;0.56 
5.766;-0.64;0.14;0.63;4.24;51.48;-3.97;-46.84;-68.26;-354.00;0.91;-172.28;-44.67;0.44 
5.795;-0.60;0.10;0.55;1.81;51.90;-1.32;-46.84;-57.68;-347.00;0.82;-171.91;-46.24;0.31 
5.824;-0.68;0.16;0.70;3.90;58.64;-1.60;-45.85;-46.14;-337.00;0.99;-171.49;-47.84;0.27 
5.853;-0.76;0.17;0.82;0.28;37.91;-1.81;-46.84;-41.34;-338.00;1.13;-171.06;-49.23;0.16 
5.882;-0.80;0.19;0.67;-4.31;22.33;3.06;-43.85;-22.11;-330.00;1.06;-170.95;-49.97;0.02 
5.912;-0.78;0.12;0.72;2.57;15.44;4.24;-44.85;-15.38;-325.00;1.07;-170.95;-50.50;0.06 
5.942;-0.72;0.03;0.65;-3.55;19.20;0.00;-41.86;-10.57;-322.00;0.97;-170.89;-50.95;-0.02 
5.973;-0.79;0.20;0.65;-3.97;9.74;-1.88;-44.85;-3.85;-314.00;1.04;-170.85;-51.37;-0.27 
6.003;-0.74;0.16;0.62;-0.63;13.08;2.57;-44.85;5.77;-319.00;0.98;-170.85;-51.66;-0.33 
6.033;-0.82;0.01;0.65;-6.12;15.65;-4.17;-45.85;11.54;-314.00;1.05;-170.88;-52.01;-0.50 
6.064;-0.91;-0.02;0.54;-11.41;17.39;-17.46;-46.84;13.46;-314.00;1.06;-170.77;-52.47;-1.18 
6.094;-0.77;0.08;0.63;-1.25;16.14;-20.66;-50.83;14.42;-311.00;1.00;-170.18;-53.04;-1.99 
6.124;-0.64;0.14;0.72;-0.42;1.11;-6.89;-55.81;16.34;-309.00;0.97;-169.70;-53.18;-2.49 
6.154;-0.66;-0.04;0.56;6.40;-16.97;6.54;-55.81;18.27;-314.00;0.87;-169.61;-52.78;-2.58 
6.184;-0.69;0.01;0.59;10.02;-25.18;11.34;-53.82;16.34;-318.00;0.91;-169.72;-52.13;-2.49 
6.214;-0.70;0.14;0.46;10.09;-24.07;25.11;-49.83;15.38;-319.00;0.85;-169.99;-51.31;-2.00 
6.244;-0.79;0.00;0.43;7.65;11.55;21.08;-43.85;17.30;-326.00;0.90;-170.42;-51.19;-1.34 
6.275;-0.90;0.00;0.67;2.02;17.60;5.43;-38.87;21.15;-320.00;1.12;-170.47;-51.74;-1.14 
6.305;-0.82;0.10;0.52;-1.81;7.65;1.95;-38.87;21.15;-319.00;0.98;-170.45;-52.12;-1.25 
6.335;-0.73;0.16;0.50;0.14;17.04;9.46;-33.89;23.07;-319.00;0.90;-170.49;-52.52;-1.21 
6.365;-0.70;0.04;0.53;0.70;23.30;9.81;-31.89;24.03;-314.00;0.88;-170.54;-53.13;-1.03 
6.395;-0.79;0.06;0.52;-5.84;12.45;7.79;-33.89;28.84;-312.00;0.95;-170.68;-53.68;-1.04 
6.425;-0.76;0.22;0.51;-7.51;1.11;18.85;-32.89;30.76;-310.00;0.94;-171.09;-53.92;-0.93 
6.455;-0.73;0.23;0.36;-18.16;1.95;38.19;-31.89;30.76;-314.00;0.85;-172.28;-53.95;-0.45 
6.486;-0.74;0.10;0.34;-19.90;10.64;45.63;-21.93;35.57;-310.00;0.82;-174.19;-54.26;0.22 
6.516;-0.79;0.11;0.38;-20.66;15.58;54.19;-15.95;37.49;-311.00;0.88;-176.31;-54.69;1.01 
6.546;-0.84;0.13;0.51;-26.71;10.78;59.90;-9.97;41.34;-309.00;0.99;-178.81;-55.17;1.93 
6.577;-0.68;0.20;0.45;-29.29;-3.13;56.14;1.00;44.22;-311.00;0.84;178.43;-55.21;2.79 
6.607;-0.65;0.22;0.50;-27.13;-3.97;68.80;7.97;48.07;-311.00;0.85;175.55;-54.90;3.88 
6.637;-0.72;0.06;0.51;-29.91;-11.90;72.42;15.95;55.76;-306.00;0.88;172.57;-54.36;5.14 
6.667;-0.79;0.10;0.58;-27.90;-21.36;54.96;21.93;55.76;-304.00;0.99;169.87;-53.59;6.07 
6.698;-0.90;0.30;0.66;-26.02;-26.78;57.46;23.92;59.60;-305.00;1.16;167.58;-52.57;6.95 
6.728;-1.02;0.26;0.57;-23.10;-36.10;55.65;40.86;55.76;-312.00;1.20;165.53;-51.22;7.98 
6.758;-1.13;0.41;0.67;-10.64;-25.95;38.75;47.84;54.80;-321.00;1.38;164.10;-50.08;8.83 
6.789;-0.85;0.38;0.77;-0.49;-27.34;32.35;52.82;55.76;-325.00;1.21;163.59;-49.16;9.68 
6.819;-0.57;0.12;0.50;-2.64;-17.74;33.74;58.80;58.64;-329.00;0.77;163.13;-47.96;10.54 
6.849;-0.49;0.13;0.55;-15.30;5.43;16.42;67.77;64.41;-315.00;0.75;162.57;-47.61;10.91 
6.879;-0.61;0.55;0.70;-10.78;4.80;11.55;66.77;63.45;-310.00;1.08;161.97;-47.52;11.06 
6.909;-0.73;0.42;0.75;-5.84;-7.93;8.63;67.77;57.68;-313.00;1.13;161.73;-47.29;11.59 
6.939;-0.48;0.34;0.56;-12.52;-35.97;-16.07;70.76;53.84;-317.00;0.81;162.20;-46.59;11.51 
6.969;-0.36;0.46;0.44;-15.44;-25.32;-18.85;62.79;47.11;-318.00;0.73;163.05;-45.59;11.14 
7.000;-0.57;0.40;0.47;-17.04;0.28;-12.31;58.80;34.61;-312.00;0.84;163.52;-45.12;10.82 
7.030;-0.77;0.26;0.55;-7.65;25.39;-18.02;51.83;29.80;-308.00;0.98;163.74;-45.66;10.41 
7.060;-0.70;0.10;0.84;-9.18;25.25;-26.71;52.82;29.80;-309.00;1.10;164.21;-46.70;9.83 
7.090;-0.67;0.03;0.86;-8.77;-19.34;-45.77;38.87;19.23;-313.00;1.09;165.35;-46.98;8.81 
7.120;-0.58;0.22;0.66;-8.14;-40.70;-46.61;33.89;20.19;-320.00;0.91;167.18;-46.25;7.54 
7.150;-0.63;0.28;0.48;0.97;-42.71;-39.03;22.92;8.65;-329.00;0.84;168.83;-45.23;6.72 
7.180;-0.47;0.28;0.50;-7.72;-20.59;-43.13;13.95;-0.96;-332.00;0.74;170.52;-44.50;5.93 
7.211;-0.55;0.22;0.66;-5.01;-12.66;-31.51;4.98;-8.65;-334.00;0.89;171.81;-44.14;5.11 
7.241;-0.73;0.06;0.64;1.11;-25.46;-30.75;3.99;-11.54;-334.00;0.97;172.99;-43.71;4.43 
7.271;-0.66;0.11;0.62;1.67;-24.63;-39.58;1.00;-15.38;-338.00;0.91;174.35;-43.10;3.75 
7.301;-0.66;0.10;0.65;-1.88;-25.53;-50.57;-2.99;-21.15;-344.00;0.93;176.08;-42.50;2.81 
7.331;-0.60;0.09;0.51;3.83;-25.39;-48.77;-15.95;-32.69;-348.00;0.79;177.93;-41.76;1.76 
7.361;-0.47;0.16;0.62;6.12;-3.20;-49.53;-20.93;-35.57;-351.00;0.79;179.73;-41.39;0.99 
7.391;-0.58;0.02;0.66;5.98;-8.28;-52.38;-26.91;-37.49;-349.00;0.88;-178.50;-41.24;0.17 
7.421;-0.55;0.06;0.58;7.30;-18.02;-63.65;-35.88;-46.14;-349.00;0.80;-176.45;-40.79;-0.89 
7.451;-0.49;0.06;0.61;6.82;-7.93;-67.83;-48.84;-52.87;-354.00;0.78;-174.24;-40.29;-2.04 
7.481;-0.60;0.14;0.62;8.21;-5.36;-67.90;-55.81;-57.68;-353.00;0.87;-172.00;-40.02;-3.19 
7.512;-0.63;0.14;0.69;9.74;-14.40;-61.50;-66.77;-64.41;-355.00;0.94;-169.75;-39.64;-4.20 
7.542;-0.62;-0.02;0.67;9.60;-20.66;-59.90;-73.75;-73.06;-359.00;0.91;-167.77;-38.93;-5.20 
7.572;-0.57;-0.08;0.58;12.59;-9.32;-75.41;-83.72;-81.71;-361.00;0.82;-165.70;-38.24;-6.33 
7.602;-0.54;0.06;0.67;13.84;-6.61;-86.89;-90.69;-92.29;-365.00;0.86;-163.08;-37.67;-7.60 
7.632;-0.62;0.22;0.77;10.64;-26.57;-73.74;-93.68;-99.02;-364.00;1.01;-160.45;-36.70;-8.85 
7.662;-0.57;0.13;0.70;17.95;-30.89;-58.30;-102.65;-106.71;-369.00;0.91;-158.45;-35.39;-9.64 
7.692;-0.72;0.10;0.74;15.79;-16.14;-32.14;-104.65;-123.05;-370.00;1.04;-156.96;-34.34;-10.02 
7.723;-0.94;-0.14;1.05;0.07;21.77;-19.62;-102.65;-121.13;-367.00;1.42;-156.17;-34.37;-10.35 
7.753;-0.64;-0.28;1.02;-2.99;21.43;-22.54;-101.66;-121.13;-367.00;1.24;-155.54;-34.67;-11.06 
7.782;-0.58;-0.18;1.09;1.53;21.15;-27.90;-102.65;-120.17;-361.00;1.25;-154.71;-35.06;-11.84 
7.813;-0.25;0.00;0.97;18.23;-15.65;-6.40;-109.63;-118.25;-357.00;1.00;-154.13;-34.73;-12.13 
7.843;-0.27;-0.14;0.71;21.29;-21.29;-0.83;-112.62;-124.01;-358.00;0.77;-154.01;-33.64;-11.82 
7.873;-0.46;-0.30;0.67;24.00;5.08;-3.13;-108.63;-123.05;-354.00;0.87;-153.76;-33.12;-11.69 
7.903;-0.56;-0.12;0.76;30.75;22.54;1.18;-107.64;-129.78;-353.00;0.95;-153.23;-33.29;-11.38 
7.933;-0.56;0.10;0.72;24.90;35.41;15.79;-97.67;-127.86;-359.00;0.92;-152.76;-34.17;-10.75 
7.963;-0.43;0.06;0.81;30.05;42.92;23.37;-90.69;-124.01;-361.00;0.92;-152.58;-35.34;-9.75 
7.993;-0.46;0.00;0.90;23.30;11.90;28.10;-82.72;-117.28;-359.00;1.01;-152.59;-36.28;-8.82 
8.024;-0.62;0.00;0.63;7.51;-20.31;21.84;-72.75;-116.32;-363.00;0.88;-153.34;-36.11;-8.11 
8.054;-0.46;0.06;0.46;3.55;-13.29;25.39;-67.77;-121.13;-367.00;0.65;-154.30;-35.70;-7.64 
8.084;-0.51;0.00;0.40;7.72;1.53;34.30;-59.80;-122.09;-364.00;0.65;-155.29;-35.70;-7.06 
8.114;-0.55;0.00;0.46;12.94;12.45;37.36;-56.81;-119.21;-364.00;0.72;-156.22;-36.14;-6.32 
8.144;-0.56;-0.03;0.57;17.11;32.35;37.84;-46.84;-110.55;-364.00;0.80;-156.93;-37.00;-5.47 
8.174;-0.69;0.24;0.66;16.07;29.57;38.33;-39.87;-100.94;-363.00;0.98;-157.46;-38.09;-4.45 
8.204;-0.67;0.35;0.63;10.23;13.77;47.79;-25.91;-91.33;-363.00;0.98;-158.33;-38.93;-3.24 
8.235;-0.63;0.22;0.64;-0.35;0.28;54.33;-16.94;-85.56;-364.00;0.92;-159.81;-39.26;-1.99 
8.265;-0.66;0.06;0.49;-2.78;5.70;43.62;-9.97;-87.48;-359.00;0.82;-161.38;-39.48;-1.08 
8.295;-0.63;0.04;0.55;0.90;10.78;33.53;-6.98;-81.71;-355.00;0.84;-162.50;-39.85;-0.48 
8.326;-0.58;0.14;0.65;6.19;4.17;33.81;-1.99;-79.79;-354.00;0.88;-163.33;-40.21;0.20 
8.356;-0.52;0.21;0.67;4.45;-10.99;36.38;1.99;-79.79;-351.00;0.87;-164.12;-40.13;1.10 
8.386;-0.50;0.29;0.57;1.18;-25.95;43.06;8.97;-78.83;-354.00;0.81;-165.36;-39.46;2.01 
8.416;-0.45;0.21;0.54;-0.07;-28.17;45.70;9.97;-88.44;-352.00;0.73;-166.72;-38.57;2.98 
8.447;-0.51;0.00;0.48;-0.77;-32.14;37.43;24.92;-89.41;-355.00;0.70;-168.10;-37.58;3.74 
8.476;-0.56;0.00;0.50;1.46;-18.50;18.78;25.91;-98.06;-357.00;0.75;-169.03;-36.75;4.11 
8.505;-0.58;0.49;0.82;0.07;-9.18;17.46;28.90;-99.98;-357.00;1.12;-169.28;-36.41;4.42 
8.536;-1.02;0.46;1.19;-8.14;-20.45;19.41;30.90;-101.90;-356.00;1.63;-170.03;-35.91;4.93 
8.566;-1.00;0.36;1.36;-21.08;-41.81;12.59;27.91;-108.63;-356.00;1.73;-170.72;-35.24;4.86 
8.595;-0.56;0.30;0.97;3.13;-51.90;11.27;27.91;-112.48;-354.00;1.16;-171.47;-33.72;4.94 
8.625;-0.44;0.41;0.94;5.22;-7.30;-8.07;23.92;-127.86;-359.00;1.12;-171.48;-32.63;5.31 
8.654;-0.61;0.58;1.38;-9.60;30.05;-13.98;19.93;-125.94;-363.00;1.62;-170.91;-33.02;5.17 
8.684;-0.34;0.35;1.06;-6.96;-36.73;19.34;21.93;-124.01;-358.00;1.17;-171.04;-32.85;5.09 
8.714;-0.04;0.29;0.50;5.29;-59.34;33.67;21.93;-136.51;-366.00;0.58;-171.99;-30.89;5.63 
8.744;0.01;0.24;0.47;4.80;-12.80;19.62;24.92;-144.20;-370.00;0.53;-172.83;-29.14;6.62 
8.774;-0.26;0.16;0.82;-4.59;20.31;-14.54;26.91;-147.09;-368.00;0.87;-172.89;-29.05;6.80 
8.804;-0.33;0.27;0.92;-9.18;8.21;-20.03;21.93;-149.01;-371.00;1.01;-172.36;-29.40;6.32 
8.835;-0.40;0.34;0.86;-5.43;-6.47;-6.33;19.93;-149.97;-372.00;1.01;-172.02;-29.32;6.04 
8.864;-0.39;0.30;0.86;-12.45;-12.59;-2.64;15.95;-155.74;-371.00;0.99;-171.97;-28.98;5.87 
8.893;-0.38;0.34;0.79;-23.72;-19.41;-2.92;13.95;-155.74;-375.00;0.94;-172.12;-28.51;5.52 
8.923;-0.35;0.28;0.72;-30.33;-18.99;0.90;10.96;-162.47;-375.00;0.85;-172.48;-27.86;4.98 
8.953;-0.30;0.30;0.69;-30.68;-4.94;-1.74;0.00;-170.16;-373.00;0.81;-172.91;-27.42;4.33 
8.982;-0.38;0.43;0.77;-30.26;-1.25;-4.10;-1.00;-168.24;-372.00;0.96;-173.24;-27.33;3.67 
9.012;-0.41;0.43;0.82;-28.87;-14.54;1.46;-7.97;-173.04;-369.00;1.01;-173.53;-27.11;3.11 
9.042;-0.41;0.42;0.74;-26.50;-29.29;0.63;-12.96;-174.00;-373.00;0.94;-174.04;-26.47;2.65 
9.072;-0.41;0.38;0.66;-21.36;-29.98;-1.46;-22.92;-181.69;-369.00;0.86;-174.37;-25.56;2.27 
9.101;-0.44;0.24;0.57;-21.63;-24.42;-4.94;-25.91;-193.23;-374.00;0.76;-174.59;-24.84;1.92 
9.131;-0.34;0.35;0.59;-7.30;-3.27;-9.18;-28.90;-199.00;-370.00;0.77;-174.50;-24.52;1.56 
9.161;-0.42;0.43;0.77;3.48;8.35;4.24;-34.88;-199.00;-371.00;0.98;-174.44;-24.68;1.75 
9.191;-0.50;0.20;0.98;5.98;-2.50;14.26;-32.89;-199.00;-371.00;1.12;-174.59;-24.83;2.14 
9.222;-0.46;0.01;0.98;4.52;-15.65;18.09;-30.90;-201.88;-378.00;1.08;-175.02;-24.54;2.50 
9.252;-0.43;-0.22;0.93;9.53;-13.15;13.70;-30.90;-205.73;-375.00;1.05;-175.44;-23.96;2.65 
9.282;-0.43;-0.05;0.86;17.46;0.21;11.69;-31.89;-209.57;-378.00;0.96;-175.54;-23.79;3.04 
9.312;-0.34;-0.06;0.72;-5.98;9.88;-2.50;-28.90;-208.61;-382.00;0.80;-175.57;-23.80;3.23 
9.343;-0.52;-0.07;0.91;-14.89;48.83;1.32;-34.88;-204.77;-379.00;1.05;-175.61;-24.74;2.62 
9.373;-0.57;0.10;1.13;-13.77;17.18;18.85;-40.86;-194.19;-379.00;1.27;-176.06;-26.00;2.26 
9.403;-0.41;0.00;0.85;-22.33;-21.50;22.68;-36.88;-190.35;-376.00;0.94;-176.88;-25.82;1.97 
9.433;-0.20;-0.11;0.80;-27.69;-17.11;18.30;-42.86;-197.08;-377.00;0.83;-177.89;-25.08;1.39 
9.462;-0.18;-0.11;0.81;-28.52;-14.61;18.99;-50.83;-198.04;-376.00;0.84;-178.81;-24.40;0.70 
9.492;-0.14;-0.13;0.78;-20.10;-9.46;14.96;-60.79;-199.96;-369.00;0.80;-179.64;-23.82;0.07 
9.522;-0.25;-0.16;0.77;-19.90;4.31;8.00;-60.79;-201.88;-368.00;0.83;179.77;-23.52;-0.55 
9.552;-0.30;-0.12;0.78;-18.85;15.72;-2.92;-60.79;-199.96;-370.00;0.84;179.47;-23.71;-1.30 
9.582;-0.26;0.09;0.86;-15.30;17.81;-1.81;-67.77;-197.08;-366.00;0.90;179.45;-24.11;-1.91 
9.612;-0.26;0.22;0.86;-10.92;10.09;13.57;-72.75;-190.35;-363.00;0.92;179.19;-24.38;-2.14 
9.643;-0.23;0.19;0.82;-13.50;2.92;34.16;-72.75;-189.38;-362.00;0.87;178.35;-24.49;-1.98 
9.673;-0.29;-0.02;0.71;-10.02;7.93;39.10;-70.76;-187.46;-364.00;0.77;177.04;-24.45;-1.81 
9.702;-0.35;-0.16;0.78;1.46;26.30;27.69;-69.76;-180.73;-359.00;0.87;176.01;-24.93;-1.63 
9.733;-0.55;-0.07;1.01;5.70;30.47;11.41;-64.78;-168.24;-359.00;1.15;175.44;-25.88;-1.41 
9.763;-0.56;0.01;1.07;2.57;-3.20;2.09;-62.79;-169.20;-360.00;1.21;175.36;-26.43;-1.26 
9.793;-0.30;0.00;0.90;5.57;-31.93;4.87;-67.77;-171.12;-358.00;0.95;175.44;-25.79;-1.17 
9.823;-0.16;0.13;0.68;8.97;-27.13;16.42;-61.79;-175.93;-362.00;0.71;175.34;-24.71;-0.83 
9.853;-0.25;0.17;0.60;8.42;-5.08;22.82;-56.81;-179.77;-363.00;0.67;174.93;-24.01;-0.09 
9.883;-0.42;0.00;0.61;7.03;11.27;17.74;-51.83;-178.81;-367.00;0.74;174.44;-24.04;0.48 
9.913;-0.51;-0.18;0.76;5.43;26.92;-5.36;-49.83;-174.96;-365.00;0.93;174.30;-24.63;0.66 
9.944;-0.63;0.17;1.19;-2.16;13.50;-22.40;-50.83;-170.16;-365.00;1.36;174.94;-25.48;0.38 
9.974;-0.38;0.40;0.91;-5.15;-38.19;8.14;-50.83;-173.04;-367.00;1.06;175.31;-24.98;0.30 
10.004;-0.28;0.06;0.60;0.63;-19.76;25.95;-54.82;-175.93;-365.00;0.66;174.83;-24.04;0.68 
10.034;-0.30;-0.04;0.68;1.95;10.57;6.54;-47.84;-178.81;-368.00;0.74;174.39;-23.81;0.82 
10.064;-0.39;0.07;0.88;2.09;8.56;-5.63;-48.84;-176.89;-367.00;0.97;174.46;-24.16;0.86 
10.093;-0.40;0.10;0.82;3.27;0.35;-8.56;-47.84;-173.04;-365.00;0.92;174.78;-24.25;0.85 
10.122;-0.39;0.14;0.79;2.99;3.41;-8.56;-47.84;-177.85;-366.00;0.89;175.17;-24.30;0.89 
10.152;-0.46;0.14;0.87;1.39;0.28;-5.29;-46.84;-174.96;-369.00;0.99;175.51;-24.40;0.96 
10.182;-0.37;0.05;0.82;2.30;-2.30;-5.36;-49.83;-176.89;-368.00;0.90;175.77;-24.32;1.00 
10.212;-0.33;0.05;0.81;2.99;1.95;-9.04;-48.84;-176.89;-365.00;0.88;176.08;-24.28;0.96 
10.243;-0.35;0.16;0.82;2.78;4.03;-7.30;-44.85;-174.00;-369.00;0.91;176.46;-24.31;0.98 
10.273;-0.38;0.18;0.78;2.02;3.90;-1.46;-45.85;-175.93;-369.00;0.89;176.70;-24.34;1.10 
10.303;-0.39;0.11;0.78;2.71;6.47;0.21;-47.84;-173.04;-365.00;0.88;176.81;-24.47;1.22 
10.333;-0.37;0.12;0.84;2.23;6.05;-0.56;-46.84;-174.96;-368.00;0.93;176.94;-24.66;1.31 
10.363;-0.39;0.17;0.90;2.23;-1.60;1.18;-45.85;-174.96;-370.00;1.00;177.06;-24.71;1.46 
