Time(s) acc_x(g) acc_y(g) acc_z(g) gyr_x(°/s) gyr_y(°/s) gyr_z(°/s) mag_x(G) mag_y(G) mag_z(G) SVM(g) yaw(°) pitch(°) roll(°)
0.000;-0.20;0.05;0.91;2.23;-5.01;-11.27;24.92;-372.04;-422.00;0.93;133.10;-2.88;27.85 
0.031;-0.14;0.21;0.83;5.08;-2.57;-3.97;28.90;-375.89;-417.00;0.87;133.65;-2.88;27.95 
0.061;-0.06;0.00;0.83;4.03;-4.17;2.23;26.91;-372.04;-417.00;0.83;133.94;-2.70;28.14 
0.091;-0.16;-0.12;0.90;6.54;1.88;-8.63;30.90;-372.04;-417.00;0.92;134.22;-2.63;28.16 
0.120;-0.18;-0.02;1.02;9.11;-2.78;-18.64;27.91;-373.00;-417.00;1.04;134.83;-2.86;28.22 
0.150;-0.22;0.13;1.00;13.15;-21.08;-8.90;34.88;-375.89;-422.00;1.03;135.72;-2.77;28.53 
0.180;-0.38;0.10;1.01;13.15;-22.82;6.54;34.88;-377.81;-418.00;1.08;136.34;-2.23;28.93 
0.210;-0.94;0.40;1.14;2.43;9.60;-14.19;38.87;-382.62;-416.00;1.53;136.77;-2.39;29.24 
0.241;-0.47;0.32;0.74;-7.17;-32.90;8.28;39.87;-380.69;-419.00;0.93;137.29;-2.43;29.24 
0.271;-0.22;0.51;0.33;7.72;-19.06;21.57;36.88;-387.42;-418.00;0.65;137.56;-1.70;29.58 
0.301;-0.30;0.19;0.69;18.92;40.56;23.86;36.88;-382.62;-417.00;0.78;137.23;-1.64;30.62 
0.331;-0.46;-0.04;1.21;21.63;38.40;3.90;40.86;-374.92;-417.00;1.30;136.77;-2.83;31.17 
0.361;-0.38;0.24;1.10;23.51;-20.73;-3.41;50.83;-367.23;-418.00;1.19;137.18;-3.21;31.82 
0.391;-0.23;0.30;0.62;19.13;-35.83;-13.15;51.83;-373.96;-418.00;0.73;138.18;-2.74;32.56 
0.421;-0.16;0.16;0.59;24.63;6.47;-17.81;57.81;-379.73;-418.00;0.63;139.20;-2.67;33.22 
0.452;-0.15;0.28;0.90;29.29;17.39;-24.83;62.79;-374.92;-421.00;0.95;140.16;-3.53;34.03 
0.482;-0.21;0.41;0.82;22.68;0.07;-19.69;68.77;-369.16;-425.00;0.94;141.33;-4.18;34.90 
0.512;-0.15;0.47;0.64;17.95;-3.76;-4.45;76.74;-373.96;-424.00;0.81;142.27;-4.32;35.64 
0.543;-0.20;0.40;0.64;15.58;11.83;6.61;76.74;-370.12;-421.00;0.78;142.70;-4.44;36.43 
0.573;-0.21;0.21;0.67;14.40;26.57;3.90;84.71;-365.31;-427.00;0.73;142.81;-4.90;37.12 
0.603;-0.17;0.30;0.77;13.01;33.04;-4.10;84.71;-357.62;-426.00;0.84;142.94;-5.72;37.51 
0.633;-0.18;0.42;0.84;6.89;25.39;2.71;89.70;-350.89;-426.00;0.96;143.02;-6.43;37.90 
0.663;-0.22;0.26;0.77;0.77;25.32;-4.10;88.70;-342.24;-427.00;0.84;143.03;-7.01;38.06 
0.693;-0.19;0.18;0.74;-0.90;28.24;-15.58;91.69;-336.47;-424.00;0.78;143.20;-7.85;37.94 
0.723;-0.15;0.46;0.74;6.05;39.37;-13.43;93.68;-329.74;-428.00;0.88;143.58;-8.87;37.96 
0.754;-0.23;0.52;0.90;5.84;42.64;-1.60;96.67;-316.28;-428.00;1.06;143.71;-9.95;38.28 
0.784;-0.33;0.57;0.90;-1.60;46.82;4.24;95.68;-307.63;-428.00;1.12;143.56;-10.94;38.48 
0.814;-0.50;0.54;1.17;0.35;62.68;14.19;96.67;-296.09;-423.00;1.38;142.85;-12.04;38.63 
0.844;-0.66;0.39;1.54;-2.92;31.17;4.59;95.68;-281.67;-426.00;1.72;142.03;-13.10;38.67 
0.874;-0.59;0.34;1.26;-18.02;-20.52;-31.93;94.68;-274.94;-427.00;1.43;142.38;-13.53;38.21 
0.904;-0.51;0.47;0.87;-34.71;2.64;-31.10;88.70;-273.02;-425.00;1.11;143.42;-13.97;37.14 
0.934;-0.54;0.32;0.96;-23.30;20.87;-15.37;80.73;-269.18;-426.00;1.15;143.79;-14.91;36.15 
0.965;-0.50;0.22;0.93;-20.73;-18.57;-9.95;78.73;-268.22;-424.00;1.08;144.02;-15.31;35.39 
0.995;-0.46;0.33;0.70;-37.84;-46.96;-14.47;67.77;-273.02;-427.00;0.90;144.64;-14.87;34.35 
1.025;-0.58;0.32;0.51;-46.54;-37.63;-6.82;55.81;-280.71;-432.00;0.84;145.12;-14.19;33.07 
1.056;-0.52;0.15;0.57;-40.35;-19.41;-0.07;50.83;-286.48;-431.00;0.79;145.23;-13.84;31.92 
1.086;-0.53;-0.02;0.72;-40.28;-24.21;-15.58;41.86;-288.40;-435.00;0.89;145.36;-13.73;30.61 
1.116;-0.53;-0.06;0.70;-38.12;-32.83;-17.25;26.91;-295.13;-434.00;0.88;145.78;-13.51;29.05 
1.146;-0.52;-0.10;0.62;-22.75;-26.16;-9.11;20.93;-299.94;-433.00;0.82;146.27;-13.22;27.89 
1.177;-0.38;0.00;0.69;-20.87;-6.89;-28.31;15.95;-307.63;-431.00;0.79;147.06;-13.47;27.00 
1.207;-0.30;0.06;0.90;-17.81;-18.64;-20.94;15.95;-307.63;-436.00;0.95;147.94;-13.67;26.09 
1.237;-0.36;0.18;0.76;-17.95;-13.50;-15.17;5.98;-314.36;-431.00;0.86;148.61;-13.36;25.37 
1.268;-0.28;0.36;0.92;-32.28;-7.65;4.80;2.99;-317.24;-434.00;1.03;149.02;-13.41;24.75 
1.298;-0.39;0.01;0.89;-54.89;-26.85;27.27;-4.98;-319.17;-431.00;0.97;148.26;-12.93;23.64 
1.328;-0.31;-0.32;0.69;-47.37;-36.10;33.74;-15.95;-319.17;-428.00;0.82;147.25;-11.93;22.03 
1.358;-0.26;-0.21;0.46;-32.49;-21.29;26.99;-27.91;-325.90;-429.00;0.57;146.33;-10.89;20.64 
1.387;-0.22;-0.10;0.46;-17.67;16.14;39.72;-37.87;-326.86;-428.00;0.52;145.38;-10.59;19.87 
1.417;-0.22;-0.32;0.59;-2.99;43.20;40.28;-33.89;-320.13;-427.00;0.71;144.01;-11.09;19.45 
1.447;-0.26;-0.09;0.77;-0.70;40.28;12.10;-34.88;-309.55;-433.00;0.82;143.08;-12.11;19.25 
1.478;-0.33;0.02;0.74;0.63;31.58;14.47;-34.88;-297.06;-429.00;0.81;142.69;-12.95;19.43 
1.508;-0.27;-0.06;0.78;5.08;29.43;11.55;-38.87;-288.40;-430.00;0.83;142.21;-13.79;19.52 
1.538;-0.27;0.03;0.74;9.25;19.90;2.78;-37.87;-284.56;-431.00;0.79;142.05;-14.47;19.66 
1.568;-0.37;0.04;0.75;2.37;22.54;-4.87;-33.89;-277.83;-433.00;0.84;142.20;-15.11;19.82 
1.597;-0.30;0.18;0.88;-10.23;17.88;-3.13;-40.86;-272.06;-435.00;0.95;142.40;-15.87;19.71 
1.626;-0.35;0.07;0.75;-16.77;-2.09;10.57;-38.87;-270.14;-432.00;0.83;142.36;-16.03;19.45 
1.656;-0.30;-0.14;0.70;-10.43;16.28;11.83;-45.85;-266.29;-429.00;0.77;142.12;-16.16;19.03 
1.686;-0.32;-0.16;0.84;-0.56;25.53;3.34;-44.85;-261.49;-432.00;0.91;141.77;-16.80;18.68 
1.716;-0.41;0.02;0.88;1.46;13.77;5.57;-45.85;-254.76;-427.00;0.97;141.76;-17.36;18.59 
1.746;-0.39;0.05;0.86;0.00;25.39;11.76;-44.85;-248.99;-432.00;0.95;141.61;-17.86;18.68 
1.776;-0.46;0.05;0.98;-3.20;25.81;15.86;-37.87;-241.30;-432.00;1.08;141.19;-18.57;18.73 
1.805;-0.43;-0.10;1.06;-2.43;12.17;13.98;-44.85;-231.68;-430.00;1.15;140.79;-19.07;18.67 
1.835;-0.36;0.00;1.04;-0.63;10.50;15.72;-42.86;-231.68;-429.00;1.10;140.51;-19.24;18.63 
1.865;-0.57;0.10;1.11;-6.47;18.64;27.41;-46.84;-227.84;-429.00;1.25;139.98;-19.39;18.70 
1.894;-0.76;0.26;1.23;-8.00;38.75;40.35;-45.85;-216.30;-432.00;1.47;138.96;-19.87;18.86 
1.924;-0.66;0.16;1.25;-2.85;18.02;67.27;-41.86;-206.69;-431.00;1.42;137.32;-20.22;19.38 
1.954;-0.48;0.06;1.00;7.10;11.48;85.08;-34.88;-200.92;-434.00;1.11;135.31;-19.83;20.17 
1.984;-0.52;0.15;0.66;14.05;20.73;93.22;-25.91;-199.00;-435.00;0.85;132.83;-19.25;21.44 
2.014;-0.64;0.28;0.54;14.12;40.83;102.89;-7.97;-181.69;-437.00;0.88;130.01;-19.21;23.01 
2.044;-0.78;0.37;0.65;6.12;40.14;118.47;3.99;-174.00;-437.00;1.08;126.58;-19.19;24.70 
2.075;-0.63;0.45;0.77;-13.63;19.55;133.57;18.94;-164.39;-437.00;1.09;122.53;-18.46;26.33 
2.105;-0.65;0.30;0.71;-27.34;19.48;123.27;25.91;-158.62;-438.00;1.01;118.50;-17.18;27.21 
2.135;-0.54;0.15;0.74;-1.81;30.12;124.52;36.88;-149.01;-433.00;0.93;114.59;-16.20;27.98 
2.166;-0.58;0.25;0.74;3.55;21.15;112.07;50.83;-142.28;-433.00;0.97;110.81;-15.20;29.29 
2.196;-0.44;0.24;0.70;-9.53;11.27;102.26;64.78;-139.39;-432.00;0.86;107.51;-14.00;30.28 
2.226;-0.31;0.20;0.51;-12.03;-0.42;91.06;66.77;-136.51;-429.00;0.63;104.71;-12.68;30.81 
2.255;-0.34;0.22;0.47;-12.17;-0.77;76.94;79.73;-136.51;-429.00;0.62;102.55;-11.40;31.25 
2.284;-0.38;0.16;0.35;-3.55;17.60;69.29;82.72;-135.55;-433.00;0.54;100.46;-10.59;31.64 
2.314;-0.41;0.25;0.44;1.11;32.21;64.35;85.71;-127.86;-428.00;0.65;98.32;-10.35;32.19 
2.344;-0.30;0.50;0.53;-2.16;26.02;57.67;94.68;-123.05;-423.00;0.79;96.23;-10.21;32.86 
2.375;-0.42;0.40;0.51;-4.03;17.32;64.97;98.67;-119.21;-421.00;0.77;94.17;-9.62;33.50 
2.405;-0.48;0.21;0.50;1.60;19.41;55.65;109.63;-111.52;-420.00;0.72;92.18;-9.15;34.04 
2.435;-0.44;0.07;0.70;12.87;19.06;39.51;117.60;-107.67;-415.00;0.83;90.60;-8.99;34.56 
2.465;-0.50;0.25;0.73;14.47;-11.06;17.32;126.57;-105.75;-418.00;0.92;89.94;-8.77;35.04 
2.495;-0.51;0.22;0.67;17.46;-31.37;-3.27;129.56;-108.63;-418.00;0.87;90.44;-8.27;35.62 
2.525;-0.39;0.34;0.72;18.09;-31.79;-25.04;134.55;-118.25;-424.00;0.89;91.88;-7.78;36.18 
2.555;-0.26;0.63;0.81;13.63;-20.10;-24.07;134.55;-121.13;-422.00;1.06;93.62;-7.56;36.73 
2.586;-0.41;0.50;0.86;16.77;-23.79;-17.60;131.56;-128.82;-425.00;1.08;95.06;-7.35;37.35 
2.616;-0.33;0.51;0.71;8.83;-21.22;-23.58;132.55;-133.63;-427.00;0.93;96.56;-7.10;37.76 
2.646;-0.28;0.64;0.66;-1.32;3.27;-21.22;128.57;-134.59;-434.00;0.96;97.78;-7.27;38.10 
2.677;-0.42;0.50;0.72;-12.31;10.71;-19.34;125.58;-133.63;-429.00;0.97;98.54;-7.84;38.07 
2.707;-0.38;0.50;0.66;-12.45;12.87;-14.05;119.60;-130.74;-433.00;0.91;99.08;-8.58;37.80 
2.737;-0.30;0.53;0.52;-8.00;12.59;4.10;119.60;-128.82;-430.00;0.80;99.26;-9.01;37.71 
2.767;-0.37;0.46;0.57;-4.31;23.37;16.14;117.60;-123.05;-425.00;0.82;98.81;-9.22;37.89 
2.797;-0.38;0.46;0.64;-7.72;19.27;15.03;119.60;-119.21;-423.00;0.87;98.07;-9.49;38.06 
2.827;-0.46;0.47;0.66;-13.15;33.39;11.20;119.60;-113.44;-422.00;0.93;97.43;-9.85;37.97 
2.857;-0.51;0.44;0.91;-8.83;28.94;16.42;121.59;-107.67;-420.00;1.13;96.38;-10.47;37.92 
2.888;-0.46;0.38;0.67;-11.27;4.45;-3.27;121.59;-104.79;-416.00;0.90;96.21;-10.76;37.64 
2.917;-0.34;0.53;0.71;-11.34;22.96;4.45;114.61;-99.98;-413.00;0.95;96.12;-11.05;37.56 
2.947;-0.45;0.42;0.85;-12.31;14.75;3.69;116.61;-96.13;-414.00;1.05;95.71;-11.42;37.41 
2.977;-0.55;0.34;0.77;-14.19;7.23;-7.10;113.62;-95.17;-410.00;1.01;95.81;-11.66;37.09 
3.006;-0.52;0.54;0.90;-13.36;25.74;-26.64;104.65;-92.29;-410.00;1.17;96.19;-12.44;36.69 
3.036;-0.53;0.73;1.06;-19.27;4.31;-15.44;98.67;-84.60;-407.00;1.39;96.58;-13.35;36.20 
3.065;-0.56;0.48;0.83;-19.48;-7.23;-11.13;89.70;-90.37;-408.00;1.11;97.24;-13.40;35.73 
3.094;-0.58;0.40;0.82;-14.68;18.85;-30.05;87.70;-92.29;-408.00;1.08;97.96;-13.88;35.19 
3.123;-0.71;0.44;0.94;-22.40;25.18;-58.78;77.74;-89.41;-402.00;1.26;98.94;-15.19;34.43 
3.152;-0.70;0.51;1.07;-29.29;2.92;-62.40;62.79;-85.56;-404.00;1.38;100.62;-16.73;33.20 
3.181;-0.66;0.34;0.88;-31.65;-36.73;-48.49;43.85;-95.17;-401.00;1.15;102.87;-17.26;31.93 
3.211;-0.55;0.16;0.59;-39.65;-31.86;-47.79;30.90;-102.86;-404.00;0.82;105.21;-17.20;30.61 
3.241;-0.58;0.10;0.66;-49.81;-13.91;-55.37;15.95;-110.55;-401.00;0.88;107.38;-17.62;28.80 
3.272;-0.62;0.07;0.82;-34.30;-21.63;-43.34;-1.00;-118.25;-402.00;1.03;109.45;-18.06;26.89 
3.302;-0.49;0.03;0.84;-16.07;-21.77;-17.32;-14.95;-128.82;-401.00;0.97;111.02;-18.03;25.78 
3.332;-0.53;0.03;0.59;-14.96;-17.74;-21.22;-21.93;-131.70;-400.00;0.79;112.30;-17.81;25.09 
3.362;-0.45;0.10;0.54;-15.03;0.97;-23.03;-21.93;-137.47;-399.00;0.71;113.43;-18.08;24.46 
3.392;-0.46;0.10;0.62;-14.33;0.97;-18.37;-34.88;-143.24;-395.00;0.78;114.37;-18.55;23.83 
3.422;-0.43;0.11;0.75;-15.79;-4.94;-13.50;-37.87;-145.16;-399.00;0.87;115.20;-18.79;23.24 
3.451;-0.51;0.13;0.68;-22.47;-15.10;-2.43;-47.84;-144.20;-395.00;0.86;115.83;-18.69;22.66 
3.481;-0.38;0.00;0.56;-22.82;-28.38;-0.21;-47.84;-152.85;-397.00;0.68;116.44;-18.24;22.01 
3.511;-0.29;-0.06;0.46;-19.06;-29.43;-0.28;-54.82;-154.78;-396.00;0.55;117.09;-17.51;21.33 
3.541;-0.21;0.00;0.48;-17.53;-26.16;-8.63;-60.79;-161.51;-397.00;0.52;117.92;-16.79;20.64 
3.572;-0.32;0.08;0.46;-15.79;-32.14;-4.45;-63.78;-170.16;-400.00;0.57;118.78;-16.07;20.01 
3.602;-0.31;0.21;0.51;-11.13;-24.00;8.70;-69.76;-176.89;-399.00;0.63;119.41;-15.27;19.72 
3.632;-0.41;0.03;0.78;-9.46;-10.71;16.97;-68.77;-180.73;-400.00;0.88;119.57;-14.72;19.66 
3.662;-0.52;0.00;0.98;-2.02;-27.90;16.07;-70.76;-183.62;-402.00;1.11;119.64;-14.01;19.74 
3.692;-0.37;0.02;0.91;9.11;-51.13;25.39;-69.76;-190.35;-403.00;0.98;119.91;-12.56;20.08 
3.722;-0.37;0.02;0.80;-0.14;-41.46;15.72;-66.77;-202.84;-407.00;0.88;120.22;-11.03;20.34 
3.752;-0.42;0.13;0.74;-0.35;-25.53;12.10;-66.77;-205.73;-413.00;0.86;120.56;-10.04;20.42 
3.783;-0.42;0.09;0.71;1.32;-7.37;14.33;-63.78;-211.50;-414.00;0.83;120.73;-9.62;20.59 
3.813;-0.36;0.00;0.76;3.69;-7.23;12.80;-60.79;-210.53;-415.00;0.84;120.76;-9.41;20.70 
3.843;-0.39;0.00;0.71;4.59;-15.58;7.93;-60.79;-209.57;-415.00;0.81;120.90;-8.92;21.13 
3.873;-0.41;0.01;0.62;3.62;-8.14;3.90;-58.80;-213.42;-417.00;0.74;121.30;-8.67;21.20 
3.903;-0.34;0.19;0.90;6.75;16.28;4.87;-60.79;-211.50;-417.00;0.98;121.60;-8.79;21.45 
3.933;-0.52;0.07;1.13;5.91;-8.42;18.02;-54.82;-209.57;-418.00;1.25;121.54;-8.99;21.78 
3.963;-0.38;0.05;0.81;3.34;-24.63;11.06;-54.82;-210.53;-418.00;0.90;121.69;-8.41;21.94 
3.994;-0.35;0.04;0.67;7.65;1.46;3.34;-49.83;-218.23;-417.00;0.76;122.02;-8.09;22.08 
4.024;-0.46;0.18;0.85;8.70;6.19;1.18;-45.85;-218.23;-417.00;0.98;122.32;-8.41;22.43 
4.054;-0.39;0.22;0.80;4.59;-6.68;5.50;-48.84;-211.50;-421.00;0.92;122.67;-8.52;22.76 
4.085;-0.33;0.14;0.70;3.48;-2.78;8.56;-50.83;-214.38;-422.00;0.79;122.91;-8.45;23.01 
4.115;-0.30;0.07;0.70;4.94;5.63;7.72;-45.85;-217.26;-422.00;0.76;123.01;-8.51;23.19 
4.144;-0.29;0.18;0.88;4.38;7.65;8.00;-42.86;-213.42;-421.00;0.94;123.12;-8.66;23.40 
4.174;-0.38;0.18;0.89;2.09;3.20;15.86;-39.87;-210.53;-424.00;0.98;123.08;-8.74;23.63 
4.204;-0.37;0.06;0.83;2.02;3.06;12.38;-41.86;-209.57;-425.00;0.91;122.98;-8.76;23.74 
4.234;-0.38;0.06;0.94;3.55;1.39;6.12;-35.88;-209.57;-422.00;1.02;123.02;-8.86;23.79 
4.264;-0.30;0.18;0.94;3.20;-12.45;8.63;-36.88;-208.61;-421.00;1.00;123.24;-8.75;23.90 
4.295;-0.26;0.20;0.68;5.01;-7.58;14.26;-35.88;-210.53;-423.00;0.75;123.46;-8.31;24.12 
4.325;-0.30;0.09;0.72;8.14;14.40;10.30;-32.89;-210.53;-424.00;0.79;123.45;-8.43;24.41 
4.355;-0.38;0.10;0.94;9.81;8.07;9.46;-30.90;-205.73;-423.00;1.02;123.41;-8.81;24.67 
4.384;-0.40;0.22;0.82;11.20;-0.97;10.92;-26.91;-205.73;-424.00;0.94;123.56;-8.90;25.04 
4.413;-0.34;0.19;0.69;11.55;13.63;15.37;-21.93;-201.88;-424.00;0.79;123.59;-9.01;25.51 
4.442;-0.26;0.23;0.78;11.62;23.23;13.57;-16.94;-198.04;-427.00;0.85;123.40;-9.44;25.96 
4.472;-0.31;0.22;0.81;7.23;14.05;13.57;-14.95;-192.27;-426.00;0.89;123.16;-9.82;26.40 
4.501;-0.27;0.14;0.85;9.11;14.40;2.50;-9.97;-190.35;-425.00;0.90;123.12;-10.14;26.71 
4.530;-0.22;0.12;1.08;7.51;-1.95;-12.59;-9.97;-188.42;-425.00;1.11;123.52;-10.43;26.87 
4.560;-0.36;0.35;0.93;2.64;-23.23;-18.71;-9.97;-188.42;-429.00;1.06;124.60;-10.35;26.89 
4.591;-0.20;0.38;0.77;-3.62;-22.61;-11.97;-12.96;-196.11;-429.00;0.88;125.77;-9.96;26.96 
4.621;-0.18;0.26;0.69;-9.53;-12.31;-12.10;-17.94;-200.92;-429.00;0.76;126.66;-9.61;26.88 
4.651;-0.26;0.14;0.78;-10.50;-0.14;-19.97;-17.94;-202.84;-427.00;0.83;127.44;-9.71;26.46 
4.682;-0.38;0.33;0.86;-4.87;-1.81;-16.00;-21.93;-205.73;-428.00;1.00;128.29;-10.06;26.16 
4.712;-0.26;0.18;0.86;-8.35;-7.51;-9.74;-27.91;-208.61;-428.00;0.92;129.03;-10.17;25.95 
4.742;-0.31;0.11;0.83;-7.93;-6.26;-11.69;-22.92;-210.53;-423.00;0.89;129.66;-10.17;25.62 
4.772;-0.30;0.18;0.76;-9.04;-0.97;-12.73;-28.90;-213.42;-425.00;0.84;130.33;-10.34;25.27 
4.802;-0.31;0.20;0.86;-4.73;5.70;-6.61;-33.89;-214.38;-423.00;0.94;130.88;-10.67;25.01 
4.832;-0.38;0.18;1.02;-4.24;-9.95;-1.74;-33.89;-212.46;-427.00;1.10;131.33;-10.81;24.84 
4.862;-0.40;0.15;0.84;-4.94;-19.69;0.56;-34.88;-217.26;-424.00;0.94;131.81;-10.55;24.63 
4.893;-0.31;0.10;0.80;-4.10;-14.47;-2.37;-36.88;-222.07;-428.00;0.86;132.31;-10.18;24.43 
4.923;-0.26;0.09;0.74;-3.90;-8.83;-6.40;-36.88;-224.95;-430.00;0.79;132.87;-10.02;24.20 
4.953;-0.22;0.08;0.73;-3.34;-1.39;-11.13;-40.86;-225.92;-423.00;0.77;133.46;-10.03;23.94 
4.983;-0.24;0.15;0.90;-1.39;4.10;-11.48;-40.86;-227.84;-422.00;0.94;134.08;-10.31;23.73 
5.013;-0.26;0.18;0.91;-5.84;-2.43;-9.60;-40.86;-225.92;-425.00;0.96;134.69;-10.56;23.55 
5.043;-0.38;0.22;0.86;-8.35;-8.21;-4.80;-41.86;-229.76;-425.00;0.97;135.24;-10.56;23.28 
5.073;-0.32;0.12;0.82;-6.40;-6.82;1.04;-45.85;-232.65;-423.00;0.89;135.63;-10.54;23.06 
5.103;-0.33;0.06;0.86;-4.17;-6.19;0.42;-47.84;-230.72;-423.00;0.92;135.93;-10.48;22.84 
5.132;-0.27;0.03;0.83;-2.37;-5.15;-3.90;-48.84;-232.65;-422.00;0.87;136.30;-10.45;22.60 
5.161;-0.25;0.02;0.80;-1.32;0.49;-9.46;-45.85;-238.41;-425.00;0.84;136.78;-10.54;22.37 
5.191;-0.25;0.07;0.81;-0.83;1.60;-12.94;-49.83;-237.45;-425.00;0.85;137.40;-10.78;22.15 
5.220;-0.27;0.13;0.83;0.21;0.56;-12.94;-52.82;-234.57;-422.00;0.88;138.09;-11.05;21.99 
5.250;-0.25;0.14;0.86;0.42;-2.78;-9.74;-49.83;-237.45;-424.00;0.91;138.75;-11.21;21.87 
5.280;-0.26;0.12;0.90;-0.90;-2.30;-7.30;-52.82;-237.45;-423.00;0.94;139.33;-11.29;21.74 
5.310;-0.30;0.14;0.84;-0.97;-1.95;-6.05;-51.83;-239.37;-423.00;0.90;139.86;-11.40;21.59 
5.340;-0.31;0.06;0.83;0.07;-4.03;-6.96;-51.83;-241.30;-421.00;0.89;140.35;-11.52;21.46 
5.370;-0.27;0.10;0.86;-0.77;-7.23;-9.18;-53.82;-242.26;-425.00;0.91;140.94;-11.55;21.27 
5.401;-0.25;0.11;0.77;0.90;-2.37;-9.11;-50.83;-246.10;-422.00;0.82;141.56;-11.57;21.11 
5.431;-0.24;0.14;0.86;0.28;0.14;-7.10;-56.81;-245.14;-422.00;0.90;142.13;-11.73;21.02 
5.461;-0.23;0.13;0.90;-1.32;-3.13;-5.15;-56.81;-246.10;-425.00;0.94;142.63;-11.82;20.90 
5.492;-0.23;0.10;0.79;-2.85;0.42;-4.24;-54.82;-248.03;-423.00;0.83;143.06;-11.91;20.73 
5.522;-0.28;0.06;0.89;-1.88;2.50;-5.29;-51.83;-245.14;-425.00;0.93;143.46;-12.09;20.50 
5.552;-0.26;0.09;0.91;-1.46;-0.90;-5.84;-52.82;-249.95;-421.00;0.95;143.88;-12.25;20.31 
5.582;-0.22;0.06;0.91;-0.83;-3.76;-5.98;-59.80;-251.87;-424.00;0.94;144.33;-12.32;20.11 
5.611;-0.27;0.02;0.85;-0.28;-2.43;-8.14;-57.81;-250.91;-422.00;0.89;144.83;-12.36;19.90 
5.640;-0.27;0.06;0.86;1.32;-2.23;-11.06;-58.80;-250.91;-420.00;0.90;145.38;-12.51;19.69 
5.670;-0.27;0.06;0.88;0.97;-4.38;-11.48;-57.81;-255.72;-425.00;0.92;146.00;-12.63;19.53 
5.701;-0.26;0.10;0.83;0.97;-5.57;-10.99;-58.80;-256.68;-424.00;0.88;146.68;-12.68;19.38 
5.730;-0.26;0.09;0.86;0.00;-3.69;-9.88;-58.80;-259.56;-426.00;0.90;147.31;-12.72;19.20 
5.759;-0.23;0.12;0.87;-0.63;-5.91;-7.86;-58.80;-254.76;-424.00;0.91;147.85;-12.75;19.03 
5.789;-0.31;0.06;0.86;-0.14;-10.30;-5.91;-62.79;-259.56;-421.00;0.92;148.35;-12.68;18.83 
5.818;-0.29;0.08;0.82;1.67;-6.82;-5.22;-60.79;-262.45;-422.00;0.87;148.84;-12.58;18.67 
5.847;-0.25;0.12;0.90;0.63;-4.59;-3.90;-60.79;-265.33;-425.00;0.94;149.26;-12.55;18.57 
5.876;-0.24;0.09;0.86;0.28;-5.63;-1.60;-61.79;-266.29;-426.00;0.90;149.63;-12.51;18.48 
5.905;-0.23;0.06;0.78;0.14;0.00;-0.35;-57.81;-268.22;-423.00;0.82;149.93;-12.51;18.36 
5.935;-0.22;0.10;0.82;-0.77;1.81;-0.63;-57.81;-268.22;-426.00;0.85;150.21;-12.61;18.23 
5.965;-0.26;0.07;0.86;-0.49;0.49;-0.21;-58.80;-268.22;-424.00;0.90;150.46;-12.72;18.10 
5.995;-0.30;0.09;0.85;0.28;0.00;0.21;-62.79;-268.22;-425.00;0.91;150.73;-12.82;17.95 
6.025;-0.30;0.14;0.86;2.99;1.39;2.16;-58.80;-266.29;-425.00;0.92;150.99;-12.95;17.90 
6.055;-0.34;0.13;0.86;1.74;1.25;3.62;-58.80;-266.29;-425.00;0.93;151.18;-13.08;17.90 
6.086;-0.34;0.10;0.91;4.87;-0.63;3.06;-56.81;-263.41;-429.00;0.98;151.40;-13.21;17.93 
6.116;-0.26;0.15;0.89;-0.21;-10.64;3.34;-57.81;-266.29;-427.00;0.94;151.65;-13.12;17.96 
6.146;-0.15;0.06;0.72;-5.77;-7.44;-2.71;-57.81;-269.18;-426.00;0.74;151.89;-12.86;17.79 
6.176;-0.12;0.09;0.72;0.83;12.66;-5.70;-59.80;-270.14;-427.00;0.74;152.21;-12.95;17.57 
6.206;-0.22;0.10;0.90;2.43;12.10;-7.93;-60.79;-264.37;-423.00;0.93;152.59;-13.44;17.44 
6.236;-0.25;0.06;0.89;4.17;0.28;-10.64;-56.81;-266.29;-426.00;0.93;153.09;-13.75;17.33 
6.266;-0.17;0.10;0.94;5.98;-1.32;-9.25;-57.81;-266.29;-429.00;0.96;153.67;-13.84;17.25 
6.297;-0.21;0.14;0.94;3.27;-1.60;-4.66;-51.83;-267.25;-427.00;0.97;154.19;-13.88;17.25 
6.327;-0.23;0.13;0.89;0.07;-6.47;-1.25;-54.82;-268.22;-425.00;0.93;154.57;-13.80;17.20 
6.356;-0.24;0.06;0.86;0.14;-3.90;1.81;-53.82;-268.22;-426.00;0.89;154.83;-13.67;17.11 
6.386;-0.26;0.03;0.82;0.07;-0.07;-0.14;-51.83;-270.14;-426.00;0.86;155.03;-13.66;16.96 
6.416;-0.22;0.09;0.84;0.35;2.30;-1.32;-56.81;-268.22;-430.00;0.87;155.29;-13.76;16.80 
6.446;-0.22;0.06;0.86;-2.16;3.90;-2.92;-56.81;-268.22;-427.00;0.89;155.56;-13.92;16.63 
6.476;-0.24;0.05;0.86;-0.90;0.97;-3.83;-53.82;-273.02;-426.00;0.89;155.86;-14.08;16.40 
6.506;-0.26;0.09;0.86;1.67;0.21;-3.41;-54.82;-271.10;-430.00;0.90;156.20;-14.19;16.24 
6.536;-0.24;0.10;0.90;1.53;1.81;-4.59;-57.81;-270.14;-427.00;0.94;156.55;-14.31;16.15 
6.566;-0.26;0.10;0.91;2.02;-2.09;-4.73;-56.81;-270.14;-427.00;0.95;156.95;-14.40;16.03 
6.597;-0.25;0.10;0.84;3.27;-3.06;-4.24;-54.82;-271.10;-429.00;0.88;157.37;-14.38;15.94 
6.627;-0.27;0.11;0.83;3.20;4.17;-2.99;-52.82;-271.10;-424.00;0.88;157.75;-14.50;15.92 
6.657;-0.27;0.10;0.84;3.06;7.23;-1.88;-55.81;-269.18;-426.00;0.89;158.09;-14.76;15.87 
6.688;-0.35;0.11;0.74;2.30;14.89;-0.63;-52.82;-270.14;-430.00;0.83;158.37;-15.17;15.82 
6.718;-0.30;0.08;0.85;-0.28;25.88;-3.06;-51.83;-268.22;-426.00;0.90;158.61;-16.01;15.79 
6.748;-0.37;-0.01;0.81;-6.40;15.03;-9.74;-51.83;-259.56;-427.00;0.89;158.88;-16.70;15.65 
6.778;-0.29;0.07;0.74;-8.14;18.16;-15.03;-52.82;-256.68;-427.00;0.80;159.36;-17.30;15.27 
6.809;-0.16;0.25;0.76;-5.70;16.90;1.04;-57.81;-254.76;-422.00;0.82;159.68;-18.00;14.97 
6.839;-0.21;0.19;0.75;4.31;14.89;23.79;-54.82;-249.95;-425.00;0.80;159.49;-18.31;15.12 
6.869;-0.37;0.18;0.80;0.28;23.37;35.48;-55.81;-240.34;-421.00;0.90;158.80;-18.66;15.48 
6.900;-0.22;0.05;0.82;-10.57;30.26;37.63;-51.83;-230.72;-423.00;0.85;157.69;-19.21;15.59 
6.929;-0.22;0.12;0.69;-2.16;17.67;39.37;-50.83;-220.15;-421.00;0.73;156.63;-19.58;15.64 
6.959;-0.31;0.01;0.61;1.25;21.91;39.44;-48.84;-215.34;-418.00;0.68;155.60;-19.77;15.92 
6.989;-0.41;-0.05;0.58;4.87;48.90;28.52;-44.85;-205.73;-415.00;0.71;154.64;-20.61;16.14 
7.019;-0.40;0.26;0.84;8.90;65.74;19.76;-42.86;-186.50;-416.00;0.97;153.93;-22.32;16.53 
7.049;-0.45;0.26;0.95;6.89;36.80;33.88;-37.87;-174.96;-413.00;1.08;153.16;-23.71;17.08 
7.079;-0.43;0.18;0.65;2.37;18.30;44.31;-30.90;-166.31;-414.00;0.80;152.17;-24.11;17.67 
7.110;-0.34;0.27;0.51;0.97;40.70;57.46;-24.92;-153.82;-408.00;0.67;150.74;-24.49;18.39 
7.140;-0.38;0.30;0.60;2.37;64.77;72.42;-17.94;-139.39;-405.00;0.77;148.62;-25.49;19.41 
7.170;-0.44;0.25;0.64;-2.50;44.52;91.83;-9.97;-122.09;-398.00;0.82;145.95;-26.25;20.58 
7.200;-0.54;0.18;0.55;-8.90;51.97;96.83;1.99;-109.59;-397.00;0.79;142.84;-26.53;21.78 
7.230;-0.46;0.14;0.67;-6.05;68.45;95.30;21.93;-87.48;-386.00;0.82;139.37;-27.13;22.90 
7.260;-0.66;0.07;0.79;-3.62;40.49;98.02;32.89;-72.10;-379.00;1.03;135.90;-27.56;24.09 
7.290;-0.65;0.18;0.66;-7.72;34.64;85.36;42.86;-61.53;-377.00;0.94;132.94;-27.37;25.17 
7.321;-0.54;0.14;0.78;-8.97;49.88;76.94;61.79;-53.84;-370.00;0.96;129.93;-27.51;26.06 
7.351;-0.65;0.18;0.89;-9.67;24.14;72.21;72.75;-38.45;-365.00;1.12;127.05;-27.54;26.89 
7.381;-0.58;0.20;0.73;-11.48;5.08;64.63;84.71;-34.61;-360.00;0.95;124.97;-26.91;27.58 
7.411;-0.54;0.14;0.77;-7.37;13.50;48.97;91.69;-28.84;-362.00;0.95;123.36;-26.28;28.11 
7.440;-0.68;0.19;0.81;-5.08;7.23;34.99;98.67;-26.92;-361.00;1.07;122.21;-25.98;28.48 
7.470;-0.64;0.26;0.81;-2.57;1.60;19.83;108.63;-25.96;-360.00;1.06;121.69;-25.75;28.67 
7.500;-0.77;0.34;0.82;1.39;4.80;4.24;106.64;-22.11;-363.00;1.18;121.72;-25.61;28.83 
7.530;-0.90;0.78;1.21;-5.63;-6.68;-10.16;108.63;-19.23;-361.00;1.70;122.17;-25.84;28.74 
7.560;-0.68;0.45;1.14;-6.96;-40.83;-1.25;105.64;-21.15;-362.00;1.40;123.08;-25.31;28.69 
7.590;-0.34;0.22;0.62;-21.22;-43.13;-7.79;103.65;-28.84;-369.00;0.74;124.49;-24.22;28.15 
7.621;-0.17;0.32;0.54;-16.77;2.37;-6.82;96.67;-35.57;-371.00;0.65;125.22;-23.71;27.40 
7.651;-0.35;0.70;0.85;-1.95;5.01;5.43;96.67;-37.49;-373.00;1.16;125.49;-23.47;27.54 
7.681;-0.45;0.34;0.82;-11.34;-11.76;-3.06;96.67;-33.65;-374.00;1.00;125.64;-23.35;27.63 
7.712;-0.28;0.30;0.58;-15.30;-22.19;-18.85;93.68;-38.45;-374.00;0.71;126.56;-22.91;27.17 
7.742;-0.49;0.32;0.51;-22.05;-1.60;-26.37;82.72;-43.26;-375.00;0.78;127.63;-23.07;26.51 
7.772;-0.51;0.26;0.54;-19.34;28.73;-30.54;74.75;-39.42;-374.00;0.79;128.44;-23.89;25.59 
7.802;-0.51;0.38;0.80;-13.01;37.43;-33.53;63.78;-37.49;-373.00;1.02;128.92;-25.48;24.68 
7.833;-0.55;0.47;0.88;-11.34;-8.83;-13.01;60.79;-35.57;-366.00;1.14;129.63;-26.28;24.12 
7.863;-0.50;0.18;0.59;-26.78;-39.86;-2.71;52.82;-38.45;-371.00;0.79;130.49;-25.76;23.62 
7.893;-0.35;0.19;0.39;-20.66;-10.57;-0.42;48.84;-43.26;-370.00;0.56;131.04;-25.18;22.86 
7.924;-0.44;0.42;0.49;-21.43;27.06;-0.97;46.84;-40.38;-372.00;0.78;131.14;-25.52;22.52 
7.954;-0.64;0.34;0.60;-32.49;27.97;3.48;43.85;-32.69;-367.00;0.94;130.57;-26.55;21.97 
7.984;-0.55;0.33;0.70;-15.44;10.02;19.48;37.87;-25.96;-362.00;0.95;129.94;-27.05;21.47 
8.014;-0.53;0.50;0.66;-21.08;19.76;24.63;44.85;-24.03;-359.00;0.98;129.33;-27.18;21.56 
8.044;-0.57;0.30;0.75;-34.85;25.04;39.79;40.86;-14.42;-357.00;0.99;127.85;-27.58;21.31 
8.074;-0.50;0.10;0.56;-21.22;11.69;52.10;47.84;-9.61;-348.00;0.76;126.21;-27.66;21.13 
8.104;-0.42;0.24;0.51;-10.71;29.36;42.02;54.82;-2.88;-345.00;0.70;124.62;-27.62;21.50 
8.135;-0.50;0.09;1.22;-25.04;42.78;21.63;59.80;10.57;-341.00;1.32;123.05;-28.62;21.58 
8.165;-0.54;0.06;0.84;-23.30;-59.97;10.57;59.80;11.54;-334.00;1.00;123.09;-28.05;20.90 
8.195;-0.34;0.11;0.37;0.00;-27.48;18.64;63.78;0.00;-347.00;0.51;123.73;-26.56;20.63 
8.225;-0.64;0.33;0.54;-11.76;23.86;2.71;64.78;3.85;-345.00;0.90;123.70;-26.54;20.85 
8.254;-0.83;0.27;1.01;-22.12;22.33;-4.87;63.78;7.69;-339.00;1.33;123.46;-27.55;20.43 
8.284;-0.68;0.18;0.90;-13.36;-28.94;-7.17;60.79;11.54;-338.00;1.14;123.90;-27.64;19.82 
8.314;-0.54;0.16;0.62;-3.20;-29.57;-13.15;58.80;5.77;-342.00;0.84;125.00;-26.87;19.49 
8.345;-0.39;0.18;0.60;2.78;-8.83;-24.07;60.79;0.96;-345.00;0.74;126.23;-26.59;19.21 
8.375;-0.36;0.22;0.77;4.38;-7.65;-26.30;58.80;0.96;-343.00;0.88;127.57;-26.66;19.00 
8.405;-0.34;0.22;0.84;4.87;-19.34;-28.66;52.82;0.00;-343.00;0.93;129.02;-26.49;18.80 
8.436;-0.46;0.30;0.82;10.02;-36.31;-28.10;52.82;-8.65;-347.00;0.99;130.80;-25.90;18.59 
8.466;-0.55;0.31;0.83;17.60;-40.49;-16.83;51.83;-14.42;-352.00;1.04;132.56;-25.06;18.76 
8.496;-0.47;0.26;0.86;22.05;-43.27;-8.35;52.82;-23.07;-360.00;1.01;134.11;-24.05;19.18 
8.526;-0.33;0.28;0.87;20.80;-17.53;-10.78;59.80;-27.88;-365.00;0.97;135.46;-23.09;19.75 
8.556;-0.37;0.30;0.94;6.40;0.35;-0.83;63.78;-33.65;-368.00;1.05;136.36;-22.83;20.23 
8.586;-0.58;0.10;1.04;-8.70;-3.06;8.97;63.78;-34.61;-369.00;1.19;136.67;-22.81;20.25 
8.616;-0.32;0.17;0.82;-8.77;-18.50;20.17;62.79;-38.45;-370.00;0.90;136.71;-22.35;20.06 
8.647;-0.36;-0.03;0.78;-5.22;-7.72;31.23;62.79;-41.34;-375.00;0.86;136.41;-21.69;20.05 
8.677;-0.27;-0.30;0.66;3.69;16.90;14.75;73.75;-40.38;-369.00;0.77;135.90;-21.42;19.98 
8.707;-0.29;0.03;0.77;19.97;35.76;-11.55;74.75;-36.53;-360.00;0.82;136.03;-22.16;19.97 
8.737;-0.63;0.20;0.84;35.48;39.65;-33.25;72.75;-32.69;-352.00;1.07;136.96;-23.34;20.38 
8.767;-0.63;0.13;1.02;31.86;36.31;-52.66;75.74;-24.99;-347.00;1.21;138.58;-25.11;20.76 
8.797;-0.65;0.23;1.01;26.78;-8.97;-54.54;70.76;-24.03;-341.00;1.22;140.80;-26.28;20.69 
8.827;-0.55;0.12;0.51;23.23;-20.38;-40.77;63.78;-27.88;-347.00;0.76;143.25;-26.49;20.57 
8.858;-0.26;0.14;0.37;31.37;27.69;-41.53;65.78;-31.72;-347.00;0.47;145.47;-27.21;20.72 
8.888;-0.31;0.08;0.66;39.72;55.93;-43.20;63.78;-25.96;-340.00;0.73;147.34;-28.98;21.00 
8.918;-0.56;0.20;0.82;18.64;30.68;-46.40;63.78;-19.23;-338.00;1.01;149.06;-30.90;20.90 
8.949;-0.61;0.41;0.66;30.05;0.00;-19.27;57.81;-16.34;-332.00;0.99;150.96;-31.84;20.88 
8.979;-0.58;0.26;0.66;25.46;-9.32;-4.24;67.77;-15.38;-332.00;0.92;152.37;-31.97;21.54 
9.009;-0.51;0.05;0.66;5.63;-17.04;-11.20;69.76;-16.34;-335.00;0.84;153.46;-31.82;21.70 
9.039;-0.46;0.03;0.60;4.24;-41.88;-20.17;71.76;-20.19;-341.00;0.76;154.62;-31.44;21.24 
9.068;-0.54;0.35;0.34;10.85;-53.36;-13.57;67.77;-29.80;-349.00;0.73;156.33;-30.42;21.18 
9.097;-0.57;0.28;0.26;9.74;-28.45;-0.21;72.75;-39.42;-356.00;0.69;157.53;-29.67;21.50 
9.126;-0.40;0.04;0.40;3.62;6.19;-0.97;74.75;-43.26;-350.00;0.57;158.17;-29.61;21.69 
9.157;-0.51;0.27;0.62;22.26;27.27;-9.11;74.75;-37.49;-350.00;0.85;158.79;-30.37;21.73 
9.186;-0.66;0.49;0.77;16.42;-1.11;8.70;77.74;-33.65;-340.00;1.13;159.67;-30.98;22.23 
9.216;-0.48;0.27;0.84;10.99;-22.75;18.92;82.72;-37.49;-344.00;1.00;160.07;-30.52;22.82 
9.246;-0.45;0.29;0.73;8.56;-39.44;21.22;86.71;-43.26;-342.00;0.91;160.30;-29.47;23.33 
9.275;-0.40;0.32;0.54;0.49;-36.52;18.64;91.69;-50.95;-346.00;0.74;160.51;-28.16;23.77 
9.304;-0.43;0.38;0.62;-2.43;-2.43;24.97;92.69;-58.64;-346.00;0.84;160.47;-27.45;24.10 
9.334;-0.66;0.50;0.90;-3.13;6.75;36.94;99.66;-58.64;-342.00;1.22;159.90;-27.26;24.58 
9.364;-0.73;0.41;1.22;-14.96;-7.65;24.90;102.65;-61.53;-340.00;1.48;159.12;-26.86;24.84 
9.394;-0.71;0.14;1.34;-25.32;-7.30;-1.25;100.66;-58.64;-340.00;1.52;158.72;-26.56;24.44 
9.423;-0.59;0.28;1.50;-24.90;9.18;-27.13;93.68;-60.56;-338.00;1.64;158.94;-26.69;23.38 
9.452;-0.60;0.64;1.48;-19.41;-19.20;2.85;82.72;-62.49;-336.00;1.72;159.53;-27.07;22.38 
9.481;-0.34;0.29;0.89;4.52;-61.84;42.64;82.72;-68.26;-344.00;1.00;159.28;-25.63;22.51 
9.511;-0.15;0.19;0.48;14.26;-54.33;31.17;90.69;-80.75;-352.00;0.54;159.11;-23.46;23.31 
9.542;-0.06;0.15;0.62;17.11;-22.75;6.40;98.67;-86.52;-357.00;0.64;159.29;-21.95;23.90 
9.571;-0.19;0.39;0.74;9.81;-8.63;-9.74;96.67;-88.44;-359.00;0.86;160.07;-21.42;24.37 
9.601;-0.26;0.26;0.68;-0.63;-5.57;-11.41;100.66;-89.41;-358.00;0.77;160.82;-21.24;24.51 
9.632;-0.31;0.22;0.67;-3.69;11.69;-19.34;93.68;-92.29;-364.00;0.77;161.59;-21.57;24.25 
9.662;-0.37;0.26;0.75;-9.39;20.80;-21.91;86.71;-90.37;-359.00;0.88;162.35;-22.34;23.74 
9.692;-0.33;0.46;0.77;-16.28;19.13;-14.26;82.72;-89.41;-357.00;0.96;162.97;-23.19;23.23 
9.721;-0.31;0.58;0.78;-20.45;20.66;1.11;85.71;-87.48;-355.00;1.02;163.14;-23.80;22.79 
9.750;-0.32;0.49;0.84;-22.89;13.77;16.00;70.76;-83.64;-351.00;1.02;162.81;-24.15;22.52 
9.779;-0.38;0.40;0.80;-31.10;3.06;21.70;69.76;-80.75;-347.00;0.97;162.12;-24.18;22.17 
9.808;-0.29;0.42;0.76;-39.65;-3.83;21.91;67.77;-80.75;-347.00;0.92;161.26;-23.88;21.66 
9.837;-0.22;0.40;0.78;-40.90;-0.42;19.97;60.79;-84.60;-346.00;0.90;160.31;-23.52;21.00 
9.867;-0.27;0.35;0.73;-47.79;-8.00;11.76;58.80;-86.52;-342.00;0.85;159.45;-23.14;20.13 
9.897;-0.28;0.38;0.69;-44.52;-8.97;8.28;42.86;-88.44;-342.00;0.84;158.82;-22.72;19.14 
9.928;-0.28;0.30;0.66;-42.85;0.97;7.03;35.88;-89.41;-339.00;0.78;158.33;-22.45;18.15 
9.958;-0.29;0.24;0.73;-25.95;27.55;4.38;26.91;-90.37;-337.00;0.82;157.85;-22.74;17.24 
9.988;-0.39;0.28;1.02;-12.10;48.49;12.45;20.93;-84.60;-331.00;1.13;157.49;-23.70;16.92 
10.018;-0.60;0.18;1.19;5.57;12.73;13.15;18.94;-79.79;-322.00;1.34;157.11;-24.55;16.94 
10.048;-0.61;0.26;1.01;34.64;-4.10;28.52;21.93;-82.68;-324.00;1.21;157.12;-24.51;17.69 
10.078;-0.43;0.24;0.75;34.71;-10.64;28.17;29.90;-80.75;-326.00;0.90;157.23;-24.07;19.06 
10.108;-0.25;0.00;0.56;20.80;-5.77;15.44;35.88;-82.68;-334.00;0.61;157.40;-23.59;20.14 
10.139;-0.42;-0.03;0.78;-0.14;18.43;-2.57;35.88;-82.68;-335.00;0.89;157.72;-23.74;20.22 
10.169;-0.59;0.09;1.07;-5.70;1.46;5.01;34.88;-85.56;-334.00;1.23;157.96;-24.27;19.84 
10.199;-0.40;0.14;1.06;-9.25;-38.47;22.75;31.89;-84.60;-334.00;1.14;157.92;-23.71;19.63 
10.230;-0.27;0.13;0.94;-16.35;-56.56;51.41;29.90;-89.41;-342.00;0.99;157.28;-21.86;19.59 
10.260;-0.20;0.14;0.78;-20.80;-32.49;70.33;33.89;-96.13;-346.00;0.82;155.69;-19.75;19.72 
10.290;-0.29;-0.10;0.79;-27.13;-8.49;58.85;35.88;-97.10;-348.00;0.85;153.78;-18.44;19.52 
10.320;-0.32;-0.24;0.70;-23.37;-2.92;25.81;38.87;-100.94;-347.00;0.81;152.55;-17.88;18.86 
10.351;-0.24;-0.25;0.67;-16.35;0.90;-7.30;34.88;-97.10;-347.00;0.75;152.23;-17.78;17.92 
10.381;-0.25;-0.16;0.88;-12.94;7.44;-37.50;24.92;-99.02;-348.00;0.93;153.01;-18.16;16.96 
10.411;-0.35;-0.06;1.02;-13.01;-8.77;-48.00;15.95;-100.94;-341.00;1.08;154.40;-18.56;15.86 
10.442;-0.21;0.05;0.87;-5.22;-21.43;-47.51;4.98;-105.75;-344.00;0.90;156.16;-18.49;14.91 
10.472;-0.14;0.04;0.80;-5.57;-12.94;-46.68;1.00;-111.52;-346.00;0.81;157.94;-18.24;14.14 
10.502;-0.16;0.01;0.82;-7.44;-9.74;-42.85;-11.96;-117.28;-344.00;0.84;159.53;-18.16;13.38 
10.532;-0.08;0.04;0.74;-6.33;-10.50;-35.34;-14.95;-122.09;-345.00;0.75;160.95;-18.02;12.64 
10.562;0.00;0.00;0.64;5.57;3.27;-23.30;-18.94;-124.97;-344.00;0.64;162.15;-17.86;12.13 
10.592;0.02;-0.02;0.72;18.64;26.99;-13.98;-18.94;-127.86;-344.00;0.72;163.04;-18.18;12.08 
10.622;-0.09;0.00;0.90;28.24;23.79;-4.17;-16.94;-121.13;-340.00;0.90;163.69;-18.77;12.47 
10.653;-0.34;-0.12;1.07;29.08;22.12;-14.96;-12.96;-120.17;-345.00;1.13;164.38;-19.28;13.08 
10.682;-0.22;-0.05;1.47;8.49;23.17;-43.06;-12.96;-119.21;-344.00;1.49;165.65;-20.24;13.07 
10.711;-0.07;0.43;1.58;-7.30;-28.31;-21.22;-16.94;-124.01;-341.00;1.64;166.93;-20.35;12.56 
10.742;-0.17;0.03;0.96;2.64;-65.39;19.13;-19.93;-135.55;-346.00;0.98;167.28;-18.66;12.42 
10.771;-0.31;-0.46;0.73;7.72;5.63;-13.36;-19.93;-139.39;-353.00;0.92;167.41;-17.55;12.20 
10.800;-0.67;-0.12;1.07;7.10;20.80;-39.17;-20.93;-136.51;-353.00;1.27;168.37;-18.52;11.75 
10.830;-0.65;0.13;0.94;2.50;-34.02;-37.50;-21.93;-144.20;-352.00;1.15;169.83;-18.90;11.26 
10.860;-0.42;0.24;0.56;9.53;-48.14;-28.10;-30.90;-149.01;-355.00;0.74;171.27;-18.00;11.03 
10.890;-0.30;0.29;0.58;18.71;-18.71;-21.57;-28.90;-163.43;-365.00;0.71;172.47;-17.35;11.28 
10.920;-0.40;0.15;0.82;20.17;-13.15;-23.37;-25.91;-165.35;-365.00;0.92;173.54;-17.21;11.65 
10.951;-0.42;0.02;0.86;28.10;-22.75;-28.38;-26.91;-174.96;-366.00;0.96;174.80;-16.98;11.92 
10.981;-0.37;0.05;0.69;27.90;-26.92;-40.97;-23.92;-177.85;-371.00;0.78;176.36;-16.62;12.20 
