Time(s) acc_x(g) acc_y(g) acc_z(g) gyr_x(°/s) gyr_y(°/s) gyr_z(°/s) mag_x(G) mag_y(G) mag_z(G) SVM(g) yaw(°) pitch(°) roll(°)
0.000;-0.18;0.10;0.58;-33.67;15.17;72.07;-37.75;-381.65;-391.00;0.62;149.22;-7.17;5.56 
0.030;-0.15;0.02;0.62;-28.87;17.46;70.61;-43.71;-371.21;-388.00;0.64;147.29;-7.47;5.01 
0.061;-0.19;-0.10;0.67;-26.02;21.50;60.52;-51.65;-360.76;-386.00;0.70;145.54;-7.86;4.44 
0.091;-0.17;-0.09;0.82;-6.40;18.78;46.19;-57.61;-349.37;-380.00;0.84;144.17;-8.33;4.15 
0.121;-0.07;-0.12;0.90;8.97;5.50;42.78;-54.63;-339.88;-383.00;0.91;143.22;-8.50;4.30 
0.151;-0.14;-0.02;0.96;13.22;-3.20;43.13;-55.63;-341.78;-387.00;0.97;142.34;-8.30;4.82 
0.180;-0.08;0.02;1.00;12.10;-5.36;35.34;-48.67;-337.98;-386.00;1.00;141.62;-7.95;5.46 
0.210;-0.22;0.02;1.00;-2.09;-1.67;31.37;-47.68;-332.28;-385.00;1.02;141.04;-7.62;5.92 
0.240;-0.15;0.06;1.15;-16.97;10.37;27.76;-50.66;-328.48;-387.00;1.16;140.49;-7.53;5.74 
0.271;-0.19;0.11;1.26;-26.43;20.31;29.01;-53.64;-321.84;-384.00;1.28;139.84;-7.84;5.31 
0.300;-0.23;-0.06;1.19;-23.72;-1.60;30.89;-58.61;-319.94;-385.00;1.21;139.16;-7.89;4.62 
0.330;-0.31;-0.18;1.16;-2.78;-8.42;29.43;-57.61;-317.09;-385.00;1.21;138.66;-7.55;4.37 
0.360;-0.41;-0.06;0.92;2.57;-17.74;14.33;-58.61;-317.09;-390.00;1.01;138.43;-7.23;4.42 
0.390;-0.34;0.12;0.70;10.23;-22.26;14.75;-57.61;-320.89;-390.00;0.79;138.40;-6.68;4.79 
0.420;-0.26;0.24;0.62;22.75;-17.60;1.88;-55.63;-323.74;-387.00;0.71;138.67;-6.15;5.56 
0.450;-0.22;0.13;0.70;40.42;2.71;-11.90;-47.68;-326.59;-392.00;0.75;139.26;-5.97;6.75 
0.481;-0.32;0.07;0.90;49.81;3.90;-16.21;-33.77;-322.79;-398.00;0.96;140.22;-6.26;8.24 
0.511;-0.27;0.17;1.02;49.67;-21.84;-26.37;-18.87;-329.43;-404.00;1.07;141.58;-6.24;9.81 
0.541;-0.25;0.18;0.94;44.87;-53.36;-18.30;-14.90;-339.88;-408.00;0.99;142.99;-5.38;11.36 
0.572;-0.25;0.14;0.76;36.24;-74.02;-23.44;-0.99;-350.32;-409.00;0.81;144.43;-3.63;12.75 
0.601;-0.15;0.16;0.54;28.52;-61.63;-33.39;9.93;-372.16;-412.00;0.58;146.00;-1.89;13.86 
0.630;0.00;0.21;0.55;22.40;-33.32;-36.31;12.91;-384.50;-415.00;0.59;147.58;-0.78;14.76 
0.660;-0.04;0.23;0.56;12.59;-5.84;-34.92;20.86;-391.14;-410.00;0.61;149.09;-0.44;15.50 
0.690;-0.06;0.28;0.58;-1.32;8.14;-31.44;22.85;-394.94;-414.00;0.65;150.51;-0.79;15.97 
0.720;0.13;0.38;0.58;-15.51;16.28;-23.23;23.84;-393.04;-413.00;0.71;151.65;-1.28;16.05 
0.750;0.06;0.30;0.73;-28.52;22.05;-18.92;18.87;-389.24;-410.00;0.79;152.44;-1.82;15.71 
0.780;-0.11;0.32;0.91;-29.98;20.03;-21.15;11.92;-383.55;-414.00;0.97;153.19;-2.57;14.99 
0.810;-0.18;0.22;1.13;-25.46;2.57;-8.21;4.97;-382.60;-410.00;1.17;153.82;-3.15;14.26 
0.839;0.16;0.08;1.00;-6.33;-4.87;-2.57;2.98;-381.65;-405.00;1.02;154.20;-3.02;13.65 
0.870;0.04;0.26;1.21;29.63;-18.92;-11.06;1.99;-385.45;-408.00;1.24;154.76;-2.63;13.97 
0.900;-0.30;0.60;1.08;33.25;-28.66;-2.30;7.95;-389.24;-408.00;1.27;155.48;-1.97;15.21 
0.930;-0.43;0.66;0.85;16.90;1.60;4.45;15.89;-392.09;-408.00;1.16;155.85;-1.52;16.22 
0.960;-0.30;0.35;1.00;20.73;30.96;2.23;18.87;-390.19;-408.00;1.10;156.17;-2.29;17.15 
0.990;-0.35;0.00;0.96;-5.98;13.70;26.23;22.85;-380.70;-409.00;1.02;156.26;-3.07;17.59 
1.020;-0.34;0.23;1.02;-44.45;18.85;26.64;17.88;-375.00;-410.00;1.10;155.72;-3.67;16.83 
1.050;-0.43;0.46;1.04;-81.25;20.66;59.76;0.99;-370.26;-406.00;1.22;154.43;-4.01;15.19 
1.081;-0.35;0.33;0.98;-93.77;16.28;74.85;-13.91;-357.92;-399.00;1.09;152.32;-4.37;12.89 
1.111;-0.33;0.22;0.90;-92.66;-18.64;83.55;-42.71;-345.57;-392.00;0.98;149.80;-4.12;10.35 
1.141;-0.30;0.06;0.66;-92.24;-33.53;89.46;-65.56;-350.32;-380.00;0.73;147.34;-3.06;7.77 
1.171;-0.20;0.05;0.49;-82.85;-0.63;94.19;-81.46;-342.73;-374.00;0.53;144.79;-2.41;5.32 
1.201;-0.19;-0.13;0.54;-69.15;47.30;90.02;-96.36;-331.33;-363.00;0.59;142.08;-3.05;3.18 
1.231;-0.18;-0.25;0.79;-63.10;69.01;71.65;-113.24;-300.00;-355.00;0.85;139.79;-4.79;1.25 
1.261;-0.25;-0.30;0.93;-50.99;44.80;58.99;-118.21;-284.81;-347.00;1.01;137.98;-6.56;-0.42 
1.290;-0.26;-0.29;0.90;-32.49;17.74;46.33;-128.14;-273.42;-344.00;0.98;136.70;-7.50;-1.59 
1.319;-0.24;-0.27;0.94;-18.99;6.33;37.63;-127.15;-262.03;-339.00;1.01;135.78;-7.94;-2.28 
1.349;-0.17;-0.10;0.86;-11.55;-4.10;41.53;-131.12;-253.48;-339.00;0.88;135.03;-7.96;-2.62 
1.379;-0.22;-0.10;0.92;-9.11;-7.58;49.25;-130.13;-250.64;-338.00;0.95;133.98;-7.81;-2.66 
1.408;-0.24;-0.16;0.77;-5.15;-3.34;45.15;-130.13;-241.14;-334.00;0.82;132.96;-7.64;-2.68 
1.437;-0.41;-0.13;0.82;-1.74;4.87;39.44;-125.16;-240.19;-335.00;0.93;132.10;-7.64;-2.61 
1.467;-0.35;-0.10;0.94;-1.67;32.56;24.21;-126.16;-228.80;-337.00;1.01;131.42;-8.28;-2.42 
1.496;-0.30;0.00;1.09;-6.54;42.43;26.02;-121.19;-219.31;-331.00;1.13;131.06;-9.40;-2.25 
1.526;-0.34;-0.06;1.07;-15.17;19.62;45.15;-120.20;-199.37;-332.00;1.12;130.43;-10.33;-2.21 
1.556;-0.40;-0.42;1.07;-8.21;22.33;50.85;-117.22;-191.77;-329.00;1.22;129.28;-10.94;-2.26 
1.586;-0.51;-0.34;1.26;-3.83;18.50;24.21;-115.23;-180.38;-327.00;1.40;128.45;-11.68;-2.32 
1.616;-0.45;0.00;1.31;1.88;3.90;26.85;-111.26;-172.79;-326.00;1.39;128.14;-12.00;-2.14 
1.646;-0.55;0.11;0.99;13.91;-29.77;39.72;-109.27;-169.94;-329.00;1.14;127.55;-11.71;-1.53 
1.677;-0.64;0.14;0.69;36.94;-18.99;56.70;-91.39;-165.19;-341.00;0.95;126.52;-11.01;-0.22 
1.706;-0.57;0.26;0.68;52.52;11.41;49.53;-84.44;-161.39;-348.00;0.92;125.30;-11.09;1.66 
1.735;-0.44;0.24;0.76;67.69;28.24;43.69;-68.54;-151.90;-354.00;0.91;124.36;-11.70;3.96 
1.765;-0.34;0.02;0.98;75.06;42.02;21.57;-49.67;-145.25;-361.00;1.04;123.77;-12.77;6.47 
1.795;-0.37;0.06;1.09;70.61;6.75;24.14;-22.85;-130.06;-368.00;1.15;123.64;-13.48;8.82 
1.825;-0.38;0.19;1.05;64.63;-42.64;32.97;-7.95;-133.86;-378.00;1.13;123.63;-12.84;11.14 
1.855;-0.43;0.26;0.75;57.95;-72.00;39.51;9.93;-140.51;-393.00;0.90;123.69;-10.91;13.41 
1.885;-0.42;0.26;0.56;59.20;-51.83;33.67;25.83;-151.90;-403.00;0.75;123.75;-8.84;15.66 
1.915;-0.22;0.33;0.55;73.95;-8.21;29.43;51.65;-162.34;-416.00;0.68;123.84;-7.76;17.99 
1.945;-0.30;0.28;0.67;85.29;5.01;29.57;69.54;-163.29;-421.00;0.79;123.74;-7.58;20.67 
1.976;-0.34;0.35;0.66;87.72;1.81;31.23;91.39;-163.29;-426.00;0.82;123.77;-7.58;23.53 
2.006;-0.19;0.22;0.62;73.25;-14.68;38.96;111.26;-163.29;-431.00;0.68;123.70;-7.04;26.26 
2.036;-0.14;0.34;0.67;66.02;-24.28;36.10;143.04;-169.94;-441.00;0.76;123.80;-6.02;28.61 
2.067;-0.26;0.28;0.59;52.45;-32.77;34.09;156.95;-172.79;-443.00;0.70;124.04;-4.71;30.86 
2.097;-0.12;0.46;0.51;38.96;-25.39;28.24;170.86;-184.18;-447.00;0.70;124.46;-3.47;32.66 
2.127;-0.13;0.49;0.48;32.42;-4.24;16.97;179.80;-189.88;-448.00;0.70;124.77;-2.75;34.16 
2.157;-0.10;0.58;0.48;16.21;13.01;16.49;191.72;-188.93;-451.00;0.76;124.95;-2.61;35.26 
2.188;-0.10;0.60;0.46;2.71;25.81;20.10;197.68;-186.08;-449.00;0.76;124.70;-2.80;35.97 
2.218;-0.13;0.47;0.62;-2.50;29.08;20.73;197.68;-180.38;-448.00;0.79;124.01;-3.18;36.32 
2.248;-0.14;0.50;0.67;-1.95;9.88;13.57;201.65;-177.53;-446.00;0.85;123.56;-3.43;36.45 
2.279;-0.21;0.49;0.63;-12.10;4.03;10.64;199.67;-175.63;-448.00;0.83;123.45;-3.51;36.46 
2.309;-0.18;0.51;0.70;-11.90;11.83;8.42;200.66;-171.84;-448.00;0.88;123.30;-3.63;36.29 
2.339;-0.14;0.51;0.72;-10.92;15.93;5.77;198.67;-167.09;-447.00;0.89;123.18;-3.83;36.12 
2.369;-0.14;0.50;0.77;-9.60;15.65;1.67;194.70;-165.19;-447.00;0.93;123.08;-4.21;36.02 
2.399;-0.13;0.51;0.90;-13.43;7.86;-1.88;197.68;-157.60;-446.00;1.04;123.13;-4.60;35.84 
2.429;-0.30;0.54;0.98;-7.10;-1.53;-4.80;191.72;-157.60;-442.00;1.16;123.42;-4.75;35.59 
2.458;-0.26;0.67;1.07;15.23;-2.85;0.35;195.69;-159.50;-447.00;1.29;124.05;-4.88;35.76 
2.489;-0.23;0.62;0.86;2.43;-24.83;4.80;197.68;-161.39;-445.00;1.08;124.64;-4.53;36.28 
2.519;-0.14;0.70;0.70;1.81;-15.44;-13.84;200.66;-168.99;-452.00;1.00;125.68;-4.26;36.56 
2.549;-0.25;0.65;0.66;-3.55;-7.03;-13.08;196.69;-170.89;-454.00;0.96;126.74;-4.20;36.77 
2.579;-0.32;0.62;0.82;4.66;21.08;-25.39;197.68;-171.84;-454.00;1.08;127.59;-4.80;36.96 
2.609;-0.26;0.58;1.03;7.72;20.80;-26.57;196.69;-169.94;-452.00;1.21;128.53;-6.03;37.23 
2.639;-0.26;0.57;0.88;-11.27;1.88;-31.51;193.71;-162.34;-453.00;1.08;129.55;-6.86;37.13 
2.669;-0.28;0.55;0.78;-23.86;3.06;-34.23;180.79;-164.24;-452.00;0.99;130.70;-7.56;36.59 
2.700;-0.31;0.50;0.74;-30.33;9.11;-36.59;178.80;-165.19;-453.00;0.95;131.75;-8.49;35.68 
2.730;-0.23;0.38;0.70;-36.03;10.09;-31.65;161.92;-162.34;-449.00;0.83;132.69;-9.45;34.54 
2.760;-0.26;0.44;0.74;-32.97;21.22;-21.63;145.03;-159.50;-448.00;0.90;133.22;-10.37;33.44 
2.790;-0.14;0.49;0.77;-31.03;19.97;-6.47;135.10;-162.34;-448.00;0.92;133.40;-11.17;32.56 
2.819;-0.15;0.47;0.82;-44.10;14.68;3.48;125.16;-156.65;-444.00;0.96;133.15;-11.56;31.65 
2.849;-0.24;0.38;0.85;-59.90;6.89;6.26;114.24;-155.70;-444.00;0.96;132.63;-11.73;30.34 
2.879;-0.33;0.22;0.85;-64.97;-6.05;7.10;107.28;-154.75;-440.00;0.94;132.06;-11.72;28.58 
2.909;-0.34;0.06;0.74;-55.44;-15.23;-7.79;77.48;-162.34;-440.00;0.82;131.86;-11.52;26.63 
2.939;-0.15;0.06;0.70;-49.25;-13.57;-16.83;64.57;-166.14;-442.00;0.72;132.24;-11.30;24.87 
2.969;-0.22;0.01;0.68;-43.20;-4.94;-17.88;50.66;-171.84;-438.00;0.71;132.84;-11.20;23.58 
2.999;-0.22;0.16;0.66;-38.19;5.63;-20.24;46.69;-173.74;-436.00;0.71;133.46;-11.48;22.13 
3.028;-0.22;0.17;0.75;-29.15;3.76;-19.06;23.84;-173.74;-433.00;0.80;134.05;-11.90;20.98 
3.058;-0.24;0.22;0.91;-30.19;-7.37;-16.07;17.88;-172.79;-433.00;0.97;134.67;-12.10;20.09 
3.089;-0.30;0.14;0.86;-27.62;-30.40;-6.89;10.93;-180.38;-432.00;0.92;135.34;-11.62;19.28 
3.119;-0.34;0.19;0.74;-29.15;-28.38;-5.63;4.97;-187.98;-435.00;0.84;135.90;-10.85;18.30 
3.149;-0.26;0.25;0.66;-23.72;-11.62;-3.69;-5.96;-193.67;-431.00;0.75;136.36;-10.37;17.56 
3.179;-0.22;0.10;0.73;-14.05;1.67;-8.14;-16.89;-196.52;-429.00;0.77;136.76;-10.30;17.01 
3.209;-0.20;0.03;0.86;-12.38;-4.10;-8.97;-19.87;-200.32;-428.00;0.88;137.30;-10.39;16.53 
3.238;-0.26;0.15;0.88;-11.97;-10.43;-5.43;-24.83;-199.37;-427.00;0.93;137.87;-10.26;16.08 
3.268;-0.22;0.22;0.89;-8.49;-17.74;6.75;-23.84;-202.22;-429.00;0.94;138.26;-9.92;15.83 
3.299;-0.32;0.21;0.86;-10.02;-21.84;11.48;-28.81;-208.86;-431.00;0.94;138.41;-9.29;15.71 
3.329;-0.30;0.15;0.84;-5.84;-18.43;10.78;-30.79;-214.56;-435.00;0.90;138.46;-8.67;15.55 
3.359;-0.19;0.26;0.83;-1.18;-13.98;12.03;-27.81;-217.41;-431.00;0.89;138.61;-8.16;15.55 
3.390;-0.27;0.13;0.87;1.74;-17.67;12.94;-26.82;-220.26;-435.00;0.92;138.68;-7.65;15.71 
3.419;-0.22;0.07;0.80;-2.99;-19.90;10.85;-29.80;-225.00;-436.00;0.83;138.80;-7.06;15.75 
3.448;-0.19;0.02;0.75;-5.36;-8.77;9.95;-27.81;-226.90;-439.00;0.77;138.91;-6.61;15.65 
3.477;-0.12;0.06;0.87;-4.73;4.66;2.78;-30.79;-229.75;-435.00;0.88;139.01;-6.52;15.47 
3.507;-0.18;0.10;1.03;-4.45;1.25;-2.78;-33.77;-227.85;-435.00;1.05;139.35;-6.63;15.35 
3.537;-0.28;0.14;0.96;-12.10;-22.05;3.20;-34.77;-228.80;-434.00;1.01;139.71;-6.42;15.15 
3.567;-0.30;0.18;0.66;-20.24;-22.68;12.24;-39.73;-236.40;-436.00;0.75;139.88;-5.75;14.80 
3.598;-0.18;0.06;0.66;-3.13;3.34;-4.03;-41.72;-237.34;-435.00;0.69;139.93;-5.50;14.35 
3.628;-0.06;0.10;0.90;5.77;16.90;-6.05;-43.71;-238.29;-436.00;0.91;140.46;-5.81;14.30 
3.658;-0.20;0.12;1.02;4.31;-4.45;-5.29;-42.71;-237.34;-435.00;1.05;140.99;-6.08;14.46 
3.688;-0.21;0.11;0.85;3.34;-13.01;-6.40;-39.73;-237.34;-436.00;0.88;141.54;-5.91;14.57 
3.718;-0.14;0.16;0.82;3.97;-5.98;-6.40;-40.73;-240.19;-437.00;0.85;142.16;-5.71;14.72 
3.748;-0.10;0.16;0.90;4.59;-1.60;-3.20;-39.73;-243.04;-439.00;0.92;142.70;-5.64;14.89 
3.777;-0.11;0.14;0.94;2.64;3.34;1.04;-38.74;-245.89;-439.00;0.96;143.10;-5.67;15.02 
3.806;-0.18;0.15;0.96;-0.56;1.60;4.52;-37.75;-242.09;-436.00;0.99;143.34;-5.74;15.08 
3.836;-0.18;0.10;0.86;0.21;-3.20;4.38;-40.73;-243.04;-442.00;0.88;143.53;-5.72;15.07 
3.866;-0.15;0.07;0.86;3.20;0.14;3.97;-33.77;-241.14;-436.00;0.88;143.76;-5.66;15.10 
3.897;-0.10;0.10;0.87;2.50;3.20;5.77;-36.75;-242.09;-439.00;0.88;143.96;-5.69;15.16 
3.927;-0.10;0.12;0.95;2.50;4.10;6.47;-35.76;-238.29;-439.00;0.96;144.09;-5.71;15.27 
3.957;-0.11;0.10;0.90;0.97;3.55;5.50;-35.76;-238.29;-440.00;0.91;144.23;-5.77;15.32 
3.986;-0.14;0.06;0.88;0.83;0.63;5.43;-31.79;-239.24;-441.00;0.89;144.38;-5.77;15.33 
4.015;-0.13;0.06;0.88;2.78;-1.32;2.99;-32.78;-238.29;-442.00;0.89;144.57;-5.76;15.34 
4.045;-0.13;0.08;0.91;4.10;-1.46;2.43;-32.78;-236.40;-440.00;0.92;144.84;-5.71;15.40 
4.075;-0.14;0.08;0.88;4.59;-1.04;0.77;-29.80;-238.29;-441.00;0.89;145.15;-5.70;15.48 
4.105;-0.18;0.11;0.85;3.97;-1.53;-0.63;-26.82;-238.29;-442.00;0.88;145.53;-5.69;15.59 
4.135;-0.18;0.14;0.89;2.99;-1.46;-1.67;-29.80;-239.24;-442.00;0.92;145.91;-5.72;15.68 
4.165;-0.18;0.11;0.85;1.95;-2.50;-2.23;-29.80;-238.29;-442.00;0.88;146.31;-5.78;15.74 
4.196;-0.14;0.13;0.85;0.56;-1.32;-0.90;-29.80;-242.09;-442.00;0.87;146.72;-5.78;15.74 
4.226;-0.15;0.14;0.88;1.11;1.67;1.25;-26.82;-241.14;-445.00;0.90;147.05;-5.85;15.77 
4.255;-0.14;0.12;0.89;0.35;-1.67;1.39;-28.81;-241.14;-443.00;0.91;147.33;-5.88;15.75 
4.286;-0.14;0.13;0.84;1.39;0.21;2.64;-28.81;-241.14;-446.00;0.86;147.60;-5.88;15.75 
4.316;-0.12;0.12;0.85;2.50;0.83;1.25;-26.82;-241.14;-446.00;0.87;147.86;-5.89;15.79 
4.346;-0.17;0.07;0.91;2.85;0.77;-0.21;-26.82;-242.09;-442.00;0.93;148.16;-5.96;15.79 
4.376;-0.15;0.11;0.90;2.16;-1.04;-0.70;-23.84;-243.04;-443.00;0.92;148.49;-6.01;15.81 
4.407;-0.15;0.14;0.90;2.78;-2.57;0.63;-28.81;-239.24;-444.00;0.92;148.83;-5.98;15.83 
4.437;-0.18;0.10;0.84;3.41;-2.71;0.28;-24.83;-243.04;-444.00;0.86;149.17;-5.96;15.88 
4.467;-0.18;0.12;0.90;3.83;-2.71;2.09;-24.83;-241.14;-444.00;0.93;149.47;-5.94;15.97 
4.497;-0.22;0.16;0.82;4.80;-3.62;3.34;-20.86;-243.04;-444.00;0.86;149.75;-5.93;16.07 
4.526;-0.20;0.17;0.82;6.96;-0.28;4.31;-21.85;-243.04;-446.00;0.86;150.00;-5.93;16.22 
4.556;-0.21;0.19;0.82;10.64;3.34;6.47;-15.89;-242.09;-446.00;0.87;150.21;-6.03;16.49 
4.586;-0.22;0.19;0.84;15.86;7.23;8.90;-12.91;-242.09;-444.00;0.89;150.36;-6.20;16.92 
4.616;-0.20;0.18;0.84;18.16;12.45;9.67;-8.94;-239.24;-450.00;0.88;150.49;-6.54;17.51 
4.646;-0.18;0.16;0.86;16.56;16.21;9.53;-1.99;-235.45;-449.00;0.89;150.61;-6.99;18.05 
4.676;-0.22;0.19;0.89;13.84;11.06;10.78;-1.99;-227.85;-448.00;0.94;150.68;-7.40;18.54 
4.707;-0.16;0.17;0.82;11.76;6.68;10.02;4.97;-224.05;-451.00;0.85;150.75;-7.61;18.90 
4.737;-0.16;0.14;0.85;12.38;5.77;6.05;9.93;-224.05;-451.00;0.88;150.88;-7.77;19.23 
4.767;-0.18;0.16;0.78;11.97;6.26;7.17;13.91;-222.15;-450.00;0.82;151.06;-7.92;19.54 
4.798;-0.10;0.19;0.74;10.23;15.17;4.45;16.89;-218.36;-450.00;0.77;151.27;-8.17;19.85 
4.828;-0.03;0.25;0.86;7.51;27.69;3.41;19.87;-211.71;-448.00;0.90;151.45;-8.72;20.13 
4.858;-0.11;0.23;0.95;5.29;27.90;1.95;25.83;-206.01;-450.00;0.98;151.55;-9.42;20.30 
4.888;-0.10;0.28;1.04;5.29;18.85;-2.30;26.82;-200.32;-449.00;1.08;151.79;-10.13;20.41 
4.919;-0.14;0.26;1.05;4.31;-0.97;-0.49;26.82;-199.37;-448.00;1.09;152.16;-10.41;20.49 
4.949;-0.14;0.30;0.96;4.24;-11.55;3.27;28.81;-196.52;-448.00;1.02;152.45;-10.21;20.60 
4.979;-0.16;0.28;0.84;2.57;-17.25;3.97;31.79;-199.37;-447.00;0.90;152.77;-9.78;20.75 
5.010;-0.19;0.29;0.68;-4.52;-13.36;0.63;27.81;-206.96;-450.00;0.76;153.10;-9.32;20.78 
5.039;-0.24;0.28;0.70;-10.57;4.38;0.35;23.84;-206.96;-451.00;0.79;153.37;-9.27;20.60 
5.068;-0.25;0.23;0.74;-10.64;13.50;-6.61;25.83;-205.07;-447.00;0.81;153.65;-9.71;20.32 
5.097;-0.24;0.16;0.69;-10.09;16.83;-10.50;21.85;-196.52;-446.00;0.75;154.04;-10.35;19.93 
5.127;-0.25;0.14;0.70;-7.58;16.56;-14.33;17.88;-198.42;-445.00;0.76;154.59;-11.13;19.49 
5.157;-0.22;0.17;0.69;-9.53;13.63;-17.32;16.89;-192.72;-443.00;0.74;155.20;-11.83;19.07 
5.187;-0.23;0.16;0.67;-15.37;17.67;-28.31;6.95;-188.93;-441.00;0.73;155.98;-12.58;18.51 
5.218;-0.28;0.20;0.68;-19.62;19.41;-33.88;2.98;-187.98;-437.00;0.76;157.01;-13.56;17.71 
5.248;-0.26;0.14;0.66;-24.07;23.93;-40.56;0.00;-183.23;-435.00;0.72;158.16;-14.68;16.70 
5.278;-0.23;0.18;0.75;-27.41;26.23;-38.96;-11.92;-180.38;-432.00;0.80;159.23;-15.86;15.52 
5.309;-0.29;0.22;0.77;-32.35;19.48;-37.77;-22.85;-171.84;-426.00;0.85;160.33;-16.85;14.29 
5.338;-0.30;0.08;0.81;-42.02;24.97;-41.95;-33.77;-168.99;-421.00;0.87;161.22;-17.86;12.74 
5.368;-0.44;0.00;0.72;-43.76;34.92;-53.43;-47.68;-163.29;-413.00;0.84;162.27;-19.10;10.93 
5.398;-0.45;0.02;0.77;-50.64;46.82;-58.92;-62.58;-159.50;-407.00;0.89;163.44;-20.62;8.92 
5.428;-0.35;0.01;0.74;-36.73;41.32;-78.75;-85.43;-148.10;-390.00;0.82;165.05;-22.44;6.54 
5.458;-0.14;-0.06;0.68;-24.56;40.21;-61.08;-97.35;-146.20;-385.00;0.70;166.87;-23.77;4.61 
5.487;-0.30;-0.10;0.74;-25.53;27.83;-74.99;-112.25;-142.41;-376.00;0.80;168.57;-24.90;2.86 
5.517;-0.30;0.00;0.56;-25.95;21.29;-66.50;-121.19;-142.41;-369.00;0.64;170.46;-25.59;1.02 
5.547;-0.34;-0.04;0.84;-25.39;54.33;-76.87;-133.11;-142.41;-359.00;0.91;172.19;-26.67;-0.89 
5.576;-0.79;-0.04;1.20;-23.65;48.07;-66.71;-150.00;-137.66;-348.00;1.44;174.05;-27.98;-2.65 
5.607;-0.72;-0.05;1.22;-23.79;38.54;-55.03;-159.93;-138.61;-331.00;1.42;175.58;-29.20;-4.53 
5.636;-0.70;-0.06;1.27;5.15;35.90;-4.10;-167.88;-131.96;-322.00;1.45;176.38;-30.34;-5.56 
5.665;-0.61;-0.18;1.15;27.76;39.79;24.83;-161.92;-128.17;-319.00;1.31;176.46;-31.34;-5.28 
5.695;-0.48;-0.31;1.22;15.58;20.03;7.17;-156.95;-119.62;-319.00;1.35;176.32;-32.42;-4.73 
5.725;-0.33;-0.11;0.95;-1.88;-21.77;14.89;-151.98;-117.72;-318.00;1.01;176.38;-32.09;-4.85 
5.755;-0.44;-0.26;0.76;-0.35;-25.39;26.09;-150.00;-117.72;-322.00;0.92;175.77;-31.23;-4.86 
5.785;-0.38;-0.33;0.70;16.63;-14.40;26.37;-146.02;-122.47;-324.00;0.86;175.22;-30.55;-4.80 
5.816;-0.39;-0.27;0.71;37.08;-1.04;25.25;-138.08;-123.42;-328.00;0.85;175.03;-30.32;-4.18 
5.846;-0.44;-0.11;0.74;38.19;0.00;36.10;-119.20;-119.62;-333.00;0.87;174.87;-30.29;-3.03 
5.876;-0.39;-0.10;0.82;33.18;2.92;32.42;-111.26;-114.87;-339.00;0.91;174.59;-30.37;-1.90 
5.907;-0.38;-0.04;0.79;30.12;-22.75;31.30;-101.32;-113.93;-344.00;0.88;174.27;-30.04;-0.85 
5.937;-0.30;0.02;0.75;33.74;-25.46;33.60;-84.44;-115.82;-354.00;0.81;174.03;-29.10;0.29 
5.967;-0.40;0.07;0.73;35.27;-27.83;41.39;-75.50;-118.67;-359.00;0.84;173.75;-28.28;1.58 
5.997;-0.57;0.02;0.69;30.96;-38.61;42.09;-64.57;-117.72;-367.00;0.90;173.22;-27.31;2.89 
6.028;-0.42;-0.10;0.74;39.58;-46.26;34.99;-50.66;-120.57;-372.00;0.86;172.83;-26.01;4.12 
6.058;-0.33;0.10;0.82;41.88;-31.58;47.37;-31.79;-131.96;-385.00;0.89;172.48;-24.58;5.66 
6.088;-0.43;0.10;0.84;37.22;-10.30;42.71;-18.87;-131.01;-389.00;0.95;172.04;-23.86;7.24 
6.119;-0.40;0.22;0.86;21.36;-15.23;27.83;-4.97;-128.17;-394.00;0.97;171.71;-23.45;8.41 
6.149;-0.49;0.15;0.97;5.70;-47.65;23.86;-1.99;-131.01;-395.00;1.10;171.38;-22.32;9.11 
6.179;-0.34;-0.06;0.90;-15.37;-54.75;31.17;1.99;-146.20;-402.00;0.96;170.86;-20.69;9.09 
6.209;-0.51;0.20;0.70;0.49;-28.31;28.24;1.99;-152.85;-407.00;0.89;170.10;-19.25;8.91 
6.239;-0.34;0.16;0.72;29.77;9.74;12.52;4.97;-152.85;-406.00;0.81;170.11;-19.17;9.52 
6.269;-0.29;0.00;0.78;43.20;6.12;10.92;14.90;-151.90;-406.00;0.83;170.36;-19.46;10.51 
6.299;-0.29;0.00;0.78;47.51;-4.10;-2.09;28.81;-150.95;-409.00;0.83;171.00;-19.45;11.58 
6.330;-0.22;0.14;0.74;42.23;-14.12;4.80;41.72;-153.80;-411.00;0.78;171.83;-19.17;12.79 
6.360;-0.33;0.12;0.66;31.44;-8.49;6.96;51.65;-155.70;-413.00;0.75;172.44;-18.63;14.08 
6.390;-0.33;0.14;0.62;19.48;-2.50;-3.06;53.64;-155.70;-413.00;0.72;173.06;-18.55;14.64 
6.420;-0.32;0.39;0.65;24.97;-4.17;11.34;62.58;-159.50;-418.00;0.82;173.53;-18.58;15.27 
6.450;-0.29;0.44;0.55;40.42;-0.90;28.03;70.53;-160.44;-416.00;0.76;173.61;-18.38;16.60 
6.480;-0.26;0.32;0.64;49.46;-3.83;29.22;84.44;-155.70;-414.00;0.76;173.63;-18.27;18.25 
6.510;-0.22;0.34;0.65;50.30;-20.80;38.68;94.37;-157.60;-417.00;0.77;173.47;-17.65;20.01 
6.540;-0.18;0.49;0.48;48.07;-28.10;52.94;110.26;-163.29;-420.00;0.71;173.11;-16.47;22.02 
6.570;-0.15;0.37;0.48;46.40;-18.71;62.96;134.10;-168.04;-423.00;0.62;172.24;-15.18;24.14 
6.600;-0.11;0.26;0.55;34.85;-19.27;67.13;147.02;-174.69;-421.00;0.62;170.96;-13.78;25.88 
6.631;-0.08;0.66;0.70;42.92;-16.56;51.27;160.92;-176.58;-423.00;0.97;169.83;-12.20;27.57 
6.661;-0.58;1.11;1.42;115.62;15.72;37.91;183.77;-179.43;-414.00;1.89;169.69;-11.75;30.44 
6.690;-0.33;0.74;1.48;68.38;-34.37;65.60;211.59;-182.28;-415.00;1.69;169.54;-11.00;33.75 
6.720;-0.03;1.10;1.26;-4.94;21.22;17.39;219.53;-187.98;-412.00;1.67;168.92;-10.21;34.65 
6.750;-0.19;0.98;1.23;-23.58;39.58;27.34;220.53;-186.08;-410.00;1.58;168.04;-10.44;34.53 
6.780;-0.28;0.74;1.11;-23.58;1.81;28.03;214.57;-182.28;-407.00;1.36;167.29;-10.75;34.08 
6.810;-0.06;0.56;0.70;-18.64;-15.44;35.13;209.60;-185.13;-410.00;0.90;166.45;-10.03;33.70 
6.841;0.08;0.30;0.51;-13.08;-1.11;28.38;204.63;-186.08;-412.00;0.60;165.54;-9.23;33.48 
6.871;0.11;0.42;0.45;-1.95;10.57;12.38;207.61;-187.98;-414.00;0.63;165.09;-8.87;33.45 
6.901;0.05;0.55;0.41;5.15;18.43;15.86;208.61;-189.88;-414.00;0.69;164.83;-8.72;33.79 
6.931;0.00;0.54;0.50;6.96;29.50;16.07;207.61;-181.33;-411.00;0.74;164.62;-8.95;34.42 
6.961;-0.05;0.62;0.64;4.24;37.22;11.48;207.61;-183.23;-412.00;0.89;164.46;-9.51;34.90 
6.991;-0.11;0.72;0.77;-10.09;35.34;11.69;210.59;-173.74;-405.00;1.06;164.26;-10.16;35.07 
7.021;-0.15;0.67;0.85;-18.30;34.23;16.90;209.60;-168.04;-399.00;1.09;163.87;-10.83;34.94 
7.052;-0.14;0.57;0.77;-31.72;31.17;17.11;200.66;-161.39;-399.00;0.97;163.21;-11.30;34.37 
7.081;-0.14;0.51;0.78;-33.46;29.84;13.36;195.69;-157.60;-395.00;0.94;162.59;-11.81;33.61 
7.111;-0.15;0.46;0.70;-30.33;9.88;13.29;192.71;-154.75;-394.00;0.85;162.08;-12.09;32.92 
7.142;-0.08;0.49;0.59;-28.73;14.05;0.70;184.77;-155.70;-392.00;0.77;161.79;-12.17;32.23 
7.172;-0.11;0.50;0.72;-27.90;35.41;-2.09;178.80;-149.05;-391.00;0.88;161.69;-12.82;31.52 
7.202;-0.16;0.55;0.74;-38.61;30.61;1.60;170.86;-144.31;-389.00;0.94;161.49;-13.68;30.72 
7.232;-0.02;0.55;0.70;-44.73;33.74;6.82;159.93;-138.61;-387.00;0.89;161.06;-14.36;29.85 
7.262;-0.13;0.51;0.84;-48.14;43.76;4.38;151.98;-132.91;-381.00;0.99;160.43;-15.21;28.81 
7.292;-0.26;0.44;0.86;-45.70;25.32;9.74;142.05;-127.22;-375.00;1.00;159.78;-16.00;27.70 
7.322;-0.10;0.46;0.77;-46.75;28.03;9.53;133.11;-123.42;-371.00;0.90;159.07;-16.47;26.62 
7.353;-0.09;0.35;0.88;-47.44;24.63;9.39;119.20;-118.67;-367.00;0.95;158.14;-16.92;25.31 
7.383;-0.17;0.38;0.87;-45.43;1.81;8.35;117.22;-115.82;-369.00;0.96;157.38;-17.12;24.07 
7.413;-0.10;0.46;0.74;-49.53;-6.19;11.06;100.33;-115.82;-366.00;0.88;156.85;-16.82;22.95 
7.443;-0.10;0.46;0.74;-44.66;9.25;12.24;91.39;-115.82;-359.00;0.88;156.19;-16.51;21.92 
7.473;-0.14;0.44;0.79;-50.92;18.30;10.85;84.44;-115.82;-361.00;0.92;155.49;-16.68;20.96 
7.503;-0.11;0.42;0.82;-41.67;14.19;9.46;77.48;-112.98;-355.00;0.93;154.89;-16.87;20.04 
7.533;-0.10;0.34;0.87;-31.65;13.50;1.95;63.58;-111.08;-351.00;0.94;154.46;-16.94;19.18 
7.564;-0.26;0.20;1.02;-12.45;17.11;-4.73;57.61;-108.23;-351.00;1.07;154.47;-17.31;18.47 
7.593;-0.30;0.34;1.05;8.28;9.39;-3.27;53.64;-108.23;-349.00;1.14;154.83;-17.64;18.35 
7.623;-0.25;0.35;1.04;25.88;-3.62;-4.31;57.61;-108.23;-348.00;1.13;155.44;-17.77;18.89 
7.654;-0.26;0.22;0.99;24.07;-33.32;-6.47;65.56;-112.98;-355.00;1.05;156.35;-17.21;19.62 
7.683;-0.33;-0.06;1.02;26.64;-23.37;-20.38;64.57;-119.62;-359.00;1.07;157.63;-16.57;20.08 
7.713;-0.51;-0.04;0.98;-9.18;-36.10;-13.01;65.56;-124.37;-360.00;1.11;158.79;-16.00;20.10 
7.743;-0.51;0.18;0.82;-43.06;-14.26;-4.38;58.61;-131.01;-367.00;0.98;159.33;-15.55;19.13 
7.772;-0.29;0.26;0.76;-53.50;6.19;2.37;48.67;-131.96;-365.00;0.85;159.14;-15.61;17.68 
7.801;-0.27;-0.06;0.77;-52.10;1.53;13.50;36.75;-130.06;-360.00;0.82;158.51;-15.75;15.98 
7.831;-0.24;-0.02;0.84;-45.70;-2.16;15.65;27.81;-131.96;-361.00;0.87;157.96;-15.65;14.54 
7.861;-0.29;0.01;0.82;-37.77;-1.81;19.34;17.88;-132.91;-356.00;0.87;157.26;-15.48;13.31 
7.891;-0.19;-0.05;0.86;-29.70;-8.14;11.34;11.92;-128.17;-353.00;0.88;156.76;-15.25;12.18 
7.921;-0.18;-0.05;0.85;-26.64;-14.19;6.61;5.96;-132.91;-351.00;0.87;156.59;-14.81;11.29 
7.952;-0.19;0.10;0.83;-27.90;-12.31;3.06;0.99;-134.81;-354.00;0.86;156.61;-14.31;10.55 
7.982;-0.22;0.05;0.79;-22.47;0.21;0.90;-5.96;-137.66;-357.00;0.82;156.56;-14.03;9.65 
8.011;-0.19;0.00;0.80;-23.51;15.79;-7.44;-6.95;-134.81;-353.00;0.82;156.79;-14.21;9.08 
8.041;-0.26;0.00;0.86;-9.53;18.02;-13.77;-12.91;-135.76;-350.00;0.90;157.25;-14.74;8.50 
8.071;-0.20;-0.04;0.90;-3.34;9.18;-14.47;-19.87;-131.01;-347.00;0.92;157.90;-15.17;8.08 
8.101;-0.18;-0.02;0.81;0.63;6.12;-8.83;-18.87;-131.96;-346.00;0.83;158.52;-15.36;7.82 
8.131;-0.14;-0.02;0.78;3.06;11.41;-3.34;-16.89;-131.01;-344.00;0.79;159.04;-15.59;7.85 
8.162;-0.16;-0.06;0.80;6.40;9.32;0.90;-21.85;-130.06;-341.00;0.82;159.39;-15.81;7.87 
8.192;-0.16;-0.10;0.81;10.78;0.49;-0.49;-15.89;-130.06;-344.00;0.83;159.73;-15.85;7.93 
8.222;-0.07;-0.09;0.81;16.77;-2.50;1.46;-14.90;-128.17;-345.00;0.82;160.16;-15.66;8.11 
8.253;-0.18;-0.05;0.79;22.05;-2.43;-1.67;-13.91;-130.06;-349.00;0.81;160.67;-15.35;8.52 
8.282;-0.18;-0.08;0.78;26.02;9.25;-4.45;-3.97;-130.06;-350.00;0.80;161.21;-15.29;8.98 
8.311;-0.14;-0.03;0.90;22.82;10.16;-6.12;-0.99;-133.86;-348.00;0.91;161.82;-15.46;9.46 
8.340;-0.06;0.02;0.98;16.70;10.78;-11.27;4.97;-131.01;-350.00;0.98;162.50;-15.66;9.82 
8.370;-0.08;0.05;1.02;13.43;1.39;-9.95;3.97;-131.01;-348.00;1.02;163.24;-15.73;10.04 
