Time(s) acc_x(g) acc_y(g) acc_z(g) gyr_x(°/s) gyr_y(°/s) gyr_z(°/s) mag_x(G) mag_y(G) mag_z(G) SVM(g) yaw(°) pitch(°) roll(°)
0.000;-0.26;0.13;0.88;-3.55;3.06;1.81;120.78;134.67;-344.00;0.93;6.62;-10.79;14.62 
0.030;-0.26;0.09;0.91;-3.55;-0.70;1.74;121.77;136.58;-348.00;0.95;6.53;-10.80;14.55 
0.061;-0.26;0.10;0.90;-2.50;-4.87;2.23;119.79;135.62;-347.00;0.94;6.42;-10.70;14.46 
0.091;-0.23;0.09;0.85;-2.02;-6.05;1.11;117.81;133.71;-349.00;0.89;6.32;-10.49;14.41 
0.121;-0.25;0.11;0.84;-1.81;-2.30;-0.90;119.79;131.80;-351.00;0.88;6.27;-10.36;14.34 
0.151;-0.23;0.10;0.88;-1.81;0.35;-1.39;120.78;130.85;-350.00;0.92;6.27;-10.33;14.28 
0.181;-0.25;0.12;0.86;-2.57;-1.25;-0.14;118.80;134.67;-353.00;0.90;6.25;-10.33;14.23 
0.211;-0.25;0.07;0.84;-3.34;-1.32;0.70;120.78;129.89;-351.00;0.88;6.20;-10.28;14.16 
0.241;-0.26;0.07;0.88;-3.90;-0.90;1.53;119.79;130.85;-349.00;0.92;6.13;-10.23;14.05 
0.271;-0.26;0.09;0.88;-5.01;-1.18;1.25;116.82;130.85;-353.00;0.92;6.04;-10.18;13.93 
0.301;-0.26;0.13;0.87;-5.84;-1.32;2.57;120.78;128.94;-348.00;0.92;5.93;-10.14;13.81 
0.331;-0.24;0.07;0.89;-5.70;-0.63;3.76;116.82;129.89;-350.00;0.92;5.77;-10.08;13.68 
0.362;-0.26;0.08;0.83;-6.12;0.14;5.01;115.83;128.94;-354.00;0.87;5.60;-10.06;13.53 
0.391;-0.25;0.07;0.82;-4.94;1.32;6.54;114.84;132.76;-353.00;0.86;5.37;-10.06;13.41 
0.420;-0.26;0.07;0.86;-4.45;2.09;6.96;116.82;130.85;-347.00;0.90;5.14;-10.09;13.32 
0.451;-0.26;0.07;0.87;-4.80;2.43;6.40;116.82;133.71;-351.00;0.91;4.88;-10.08;13.23 
0.481;-0.20;0.04;0.86;-5.08;6.26;3.62;117.81;130.85;-350.00;0.88;4.66;-10.13;13.09 
0.511;-0.21;0.03;0.85;-5.77;11.97;-1.04;117.81;133.71;-349.00;0.88;4.54;-10.34;12.91 
0.541;-0.25;0.05;0.92;-3.41;7.58;-6.82;112.86;133.71;-349.00;0.95;4.59;-10.64;12.78 
0.572;-0.26;0.04;0.90;-1.18;-0.77;-9.60;112.86;134.67;-344.00;0.94;4.79;-10.82;12.65 
0.601;-0.23;0.06;0.89;-0.21;-9.81;-14.61;108.90;131.80;-349.00;0.92;5.13;-10.70;12.55 
0.630;-0.22;0.08;0.84;-0.07;-12.52;-16.42;107.91;129.89;-348.00;0.87;5.53;-10.45;12.48 
0.660;-0.21;0.08;0.77;-2.64;-8.97;-16.35;104.94;127.98;-347.00;0.80;5.97;-10.17;12.37 
0.689;-0.26;0.05;0.86;-3.83;0.42;-17.67;103.95;129.89;-355.00;0.90;6.43;-10.17;12.17 
0.719;-0.27;0.06;0.92;-2.99;-1.88;-15.30;98.01;126.07;-352.00;0.96;6.89;-10.30;11.94 
0.749;-0.27;0.05;0.91;-3.90;-10.85;-13.01;95.04;127.02;-353.00;0.95;7.27;-10.22;11.74 
0.779;-0.22;0.02;0.85;-5.77;-10.16;-13.70;91.08;126.07;-357.00;0.88;7.63;-9.98;11.48 
0.809;-0.18;0.01;0.81;-6.89;-5.43;-14.33;85.14;124.16;-355.00;0.83;7.99;-9.82;11.18 
0.839;0.19;-0.47;0.81;-3.55;0.90;-9.53;86.13;123.20;-352.00;0.96;8.35;-9.76;10.83 
0.870;0.20;0.91;0.81;72.83;-44.03;-138.85;99.99;117.47;-362.00;1.23;8.88;-8.54;13.23 
0.900;-0.22;0.17;1.20;-44.73;38.47;43.62;81.18;115.56;-355.00;1.23;8.44;-9.66;11.21 
0.930;-0.28;-0.04;1.00;-10.43;-4.80;-19.97;81.18;119.38;-350.00;1.04;7.86;-9.87;10.65 
0.961;-0.17;0.10;0.80;-15.03;-10.02;0.00;76.23;119.38;-356.00;0.82;7.94;-9.59;10.23 
0.991;-0.18;0.09;0.84;-14.82;2.02;-3.55;76.23;117.47;-353.00;0.86;7.91;-9.45;9.78 
1.021;-0.19;0.14;0.90;-14.26;2.50;-0.97;71.28;115.56;-355.00;0.93;7.90;-9.57;9.41 
1.051;-0.19;0.14;0.88;-16.42;-3.34;3.20;68.31;116.52;-353.00;0.91;7.79;-9.54;9.04 
1.080;-0.22;0.13;0.81;-18.50;-2.02;6.05;67.32;113.65;-348.00;0.85;7.53;-9.43;8.61 
1.110;-0.24;0.17;0.84;-18.16;4.73;9.74;64.35;115.56;-352.00;0.89;7.21;-9.47;8.23 
1.140;-0.22;0.15;0.85;-19.34;4.17;15.03;62.37;118.43;-348.00;0.89;6.75;-9.63;7.88 
1.171;-0.22;0.13;0.83;-21.57;-3.62;18.50;62.37;119.38;-350.00;0.87;6.10;-9.61;7.49 
1.201;-0.26;0.03;0.82;-23.17;-5.43;18.37;60.39;119.38;-350.00;0.86;5.41;-9.44;7.01 
1.231;-0.28;-0.03;0.74;-24.42;-2.85;15.51;58.41;115.56;-348.00;0.79;4.75;-9.21;6.49 
1.262;-0.30;-0.03;0.63;-25.53;-3.62;6.61;57.42;118.43;-350.00;0.70;4.25;-9.22;5.74 
1.292;-0.22;0.00;0.44;-23.65;-6.96;-4.17;50.49;119.38;-349.00;0.49;4.08;-9.25;4.98 
1.321;-0.11;0.02;0.39;-20.94;-12.17;-4.03;46.53;118.43;-349.00;0.41;4.11;-9.05;4.37 
1.350;-0.05;0.05;0.33;-16.70;-9.04;-4.80;39.60;111.74;-350.00;0.34;4.08;-8.71;3.92 
1.380;-0.02;0.10;0.30;-15.17;-6.61;-17.46;33.66;110.79;-346.00;0.32;4.27;-8.44;3.55 
1.410;0.02;0.19;0.31;-12.59;-10.43;-14.96;32.67;108.88;-349.00;0.36;4.71;-8.17;3.19 
1.439;-0.11;0.04;0.33;-20.87;-18.57;-0.35;29.70;107.92;-347.00;0.35;4.80;-7.68;3.02 
1.470;-0.14;-0.03;0.30;-20.52;-9.39;-15.10;26.73;102.19;-346.00;0.33;4.84;-7.15;2.46 
1.499;-0.06;-0.10;0.37;-13.01;8.14;-35.41;16.83;101.24;-344.00;0.39;5.51;-7.24;1.79 
1.529;-0.06;-0.17;0.51;-11.90;-0.90;-44.66;10.89;102.19;-343.00;0.54;6.55;-7.39;1.10 
1.560;-0.22;-0.14;0.71;-16.49;-12.73;-71.93;3.96;97.42;-341.00;0.76;8.16;-7.20;0.29 
1.590;-0.17;-0.04;0.88;-30.26;-9.88;-103.72;-14.85;92.64;-338.00;0.90;10.67;-7.16;-0.78 
1.620;-0.13;0.12;0.93;-43.41;-28.17;-97.39;-34.65;78.32;-335.00;0.95;13.45;-6.55;-2.19 
1.650;-0.26;0.41;0.98;-67.76;-35.90;-91.34;-54.45;70.68;-333.00;1.09;16.19;-5.54;-3.78 
1.681;-0.71;-0.16;1.18;-128.63;-45.43;-7.03;-77.22;55.39;-328.00;1.39;17.61;-4.55;-6.54 
1.710;-0.11;-0.59;1.48;-136.90;-47.72;-24.21;-96.03;48.71;-313.00;1.60;17.24;-2.79;-11.11 
1.740;0.25;-0.78;1.97;-56.90;-67.76;-60.80;-134.64;41.07;-312.00;2.13;18.03;-1.02;-14.46 
1.770;-0.68;-0.26;1.22;-33.74;-207.30;-31.72;-147.51;15.28;-316.00;1.42;19.15;3.56;-15.81 
1.800;-0.34;-0.26;0.40;-72.49;-180.17;-77.29;-156.42;-21.97;-328.00;0.59;20.52;9.42;-17.18 
1.830;0.51;-1.51;1.30;-118.54;-54.05;-86.68;-177.21;-54.44;-325.00;2.06;23.23;13.67;-19.80 
1.860;2.13;-3.47;3.37;-139.90;-336.35;-123.69;-220.77;-103.15;-319.00;5.29;28.13;19.13;-21.76 
1.890;0.36;-0.88;1.06;-332.80;-306.57;-92.10;-236.61;-135.62;-314.00;1.42;30.35;25.64;-28.45 
1.919;-0.03;0.46;0.34;-305.46;-99.76;37.15;-298.00;-180.51;-226.00;0.57;32.22;31.14;-36.35 
1.949;-0.25;0.83;0.20;-207.23;32.00;-94.96;-317.80;-186.24;-162.00;0.89;34.61;32.43;-40.98 
1.980;0.82;-0.02;0.66;-152.07;-145.18;-27.55;-336.61;-204.39;-110.00;1.05;37.41;34.59;-42.79 
2.010;0.95;-0.14;0.00;-153.46;-335.30;24.28;-345.52;-214.89;-70.00;0.96;38.80;38.85;-44.85 
2.040;1.34;0.13;-1.58;-197.77;-420.17;22.40;-348.49;-215.85;-29.00;2.08;40.89;42.14;-46.85 
2.071;0.53;-1.64;-1.66;-170.99;-272.49;171.69;-349.48;-203.43;19.00;2.39;41.61;39.89;-49.76 
2.100;0.10;-1.54;-1.79;-98.16;-105.60;67.90;-336.61;-156.63;79.00;2.36;40.11;34.34;-52.61 
2.130;0.14;-0.53;-1.51;88.83;111.65;-41.46;-333.64;-156.63;72.00;1.61;39.94;33.64;-53.10 
2.160;0.33;-0.19;-0.59;115.62;247.30;6.68;-341.56;-169.05;53.00;0.70;38.81;35.49;-53.25 
2.190;0.53;-0.30;0.34;-11.62;136.07;23.51;-342.55;-170.96;36.00;0.70;36.55;35.77;-54.11 
2.220;0.54;-0.30;-0.05;-45.01;-122.37;0.90;-345.52;-169.05;43.00;0.62;37.01;36.20;-53.66 
2.250;0.30;0.70;-0.82;-24.49;-175.79;50.50;-338.59;-158.54;46.00;1.12;37.65;35.23;-53.89 
2.281;-0.09;-0.77;-1.07;9.39;-84.17;49.18;-340.57;-143.26;52.00;1.32;36.78;32.34;-55.64 
2.311;-0.06;-1.20;-0.96;34.16;38.26;-4.03;-335.62;-138.49;44.00;1.54;35.73;30.88;-56.94 
2.341;0.26;-1.14;-0.62;22.33;116.94;-38.26;-343.54;-147.08;33.00;1.32;35.44;31.58;-56.83 
2.371;0.62;-0.82;-0.37;14.33;78.12;-16.49;-346.51;-150.90;38.00;1.09;35.51;32.86;-56.18 
2.401;0.62;-0.90;-0.51;25.11;-25.39;15.58;-342.55;-152.81;33.00;1.21;35.32;32.95;-56.26 
2.431;0.62;-1.05;-0.73;30.19;-6.75;5.08;-344.53;-149.95;29.00;1.42;34.97;32.47;-56.73 
2.461;0.54;-0.83;-0.68;39.93;38.26;4.80;-344.53;-148.99;18.00;1.20;34.53;32.26;-57.09 
2.492;0.56;-0.74;-0.55;58.99;61.15;5.15;-339.58;-145.17;7.00;1.08;33.84;32.25;-57.41 
2.522;0.63;-0.66;-0.42;62.54;70.26;15.65;-345.52;-144.22;-7.00;1.00;32.96;32.21;-57.72 
2.552;0.50;-0.65;-0.35;67.48;74.30;28.80;-340.57;-138.49;-18.00;0.89;31.70;31.69;-58.31 
2.583;0.55;-0.77;-0.38;91.55;82.92;20.94;-338.59;-127.02;-45.00;1.02;30.18;30.97;-58.81 
2.613;0.44;-0.95;-0.20;111.10;104.70;38.26;-337.60;-122.25;-65.00;1.07;28.26;29.86;-59.14 
2.643;0.18;-1.34;0.30;78.96;154.64;41.25;-335.62;-111.74;-85.00;1.38;25.68;27.75;-59.59 
2.673;0.11;-1.34;0.66;26.02;121.46;2.85;-328.69;-96.46;-100.00;1.50;23.87;25.54;-59.80 
2.703;0.46;-0.81;0.70;10.57;32.90;1.95;-326.71;-90.73;-103.00;1.17;23.60;24.82;-59.41 
2.733;0.34;-0.87;0.58;6.61;2.50;9.46;-318.79;-88.82;-101.00;1.10;23.21;24.37;-59.36 
2.763;0.14;-0.94;0.61;-6.68;0.97;-12.66;-317.80;-88.82;-100.00;1.13;23.01;24.16;-59.36 
2.794;0.22;-1.02;0.46;-18.37;-13.29;-29.15;-319.78;-90.73;-101.00;1.14;23.40;24.52;-59.27 
2.824;0.33;-0.98;0.18;-29.22;-23.23;-42.30;-325.72;-99.33;-95.00;1.05;24.43;25.56;-58.95 
2.854;0.44;-0.92;0.10;-33.25;-18.37;-44.94;-326.71;-109.83;-90.00;1.02;25.82;26.95;-58.49 
2.884;0.50;-0.92;0.05;-30.75;-0.28;-42.23;-329.68;-115.56;-83.00;1.05;27.28;28.30;-57.92 
2.914;0.60;-0.90;0.09;-28.80;-1.04;-35.69;-331.66;-123.20;-79.00;1.09;28.64;29.51;-57.28 
2.944;0.63;-0.87;0.05;-26.78;-21.43;-25.95;-333.64;-134.67;-68.00;1.08;29.82;30.62;-56.70 
2.973;0.61;-0.86;-0.06;-21.36;-30.26;-19.13;-334.63;-137.53;-65.00;1.06;30.70;31.51;-56.35 
3.004;0.60;-0.84;-0.14;-17.81;-23.30;-13.84;-337.60;-140.40;-63.00;1.04;31.41;32.25;-56.10 
3.034;0.57;-0.78;-0.12;-16.28;-6.33;-15.93;-336.61;-146.13;-57.00;0.97;32.00;32.81;-55.88 
3.064;0.59;-0.78;-0.09;-14.05;-2.43;-17.11;-335.62;-147.08;-55.00;0.98;32.66;33.39;-55.51 
3.095;0.59;-0.79;-0.11;-8.63;-6.05;-13.29;-340.57;-154.72;-50.00;0.99;33.26;33.94;-55.15 
3.125;0.57;-0.82;-0.19;-2.99;-4.10;-10.71;-338.59;-155.68;-49.00;1.02;33.70;34.34;-54.89 
3.155;0.54;-0.88;-0.22;2.23;6.96;-14.33;-341.56;-158.54;-51.00;1.06;34.03;34.65;-54.66 
3.185;0.56;-0.94;-0.21;9.46;21.77;-23.51;-338.59;-162.36;-49.00;1.11;34.46;35.06;-54.24 
3.215;0.59;-0.90;-0.19;15.10;34.78;-27.69;-338.59;-169.05;-53.00;1.09;35.08;35.66;-53.53 
3.245;0.62;-0.80;-0.10;19.69;39.30;-25.67;-343.54;-173.82;-60.00;1.02;35.75;36.29;-52.70 
3.275;0.58;-0.82;0.00;23.79;32.90;-24.00;-341.56;-173.82;-66.00;1.00;36.28;36.78;-51.95 
3.306;0.59;-0.86;-0.06;30.96;36.52;-29.08;-339.58;-183.37;-70.00;1.04;36.91;37.36;-51.05 
3.336;0.62;-0.91;-0.08;36.31;52.87;-34.57;-337.60;-186.24;-80.00;1.10;37.64;37.99;-49.94 
3.366;0.66;-0.80;0.10;34.50;53.29;-29.63;-337.60;-191.01;-88.00;1.04;38.37;38.49;-48.79 
3.396;0.70;-0.86;0.19;32.90;36.17;-25.74;-335.62;-195.79;-99.00;1.13;39.00;38.88;-47.73 
3.426;0.66;-0.77;0.22;28.94;22.61;-21.36;-334.63;-197.70;-107.00;1.04;39.54;39.25;-46.78 
3.456;0.66;-0.74;0.27;28.10;12.03;-22.26;-329.68;-202.48;-118.00;1.03;40.03;39.64;-45.94 
3.486;0.67;-0.84;0.18;27.90;6.26;-27.97;-330.67;-204.39;-122.00;1.09;40.66;40.25;-44.99 
3.517;0.70;-0.73;0.11;21.57;17.32;-24.77;-325.72;-210.12;-130.00;1.02;41.37;40.91;-44.02 
3.547;0.66;-0.65;0.21;18.16;24.83;-26.78;-323.74;-216.80;-134.00;0.95;42.13;41.48;-43.02 
3.576;0.66;-0.62;0.26;18.16;18.43;-26.37;-324.73;-218.71;-139.00;0.94;42.81;41.97;-42.14 
3.606;0.74;-0.62;0.21;17.39;18.37;-22.75;-319.78;-225.40;-145.00;0.99;43.54;42.52;-41.22 
3.636;0.69;-0.64;0.26;19.20;23.72;-20.45;-318.79;-227.31;-150.00;0.98;44.10;42.89;-40.45 
3.666;0.70;-0.74;0.26;25.32;26.16;-20.24;-316.81;-229.22;-151.00;1.05;44.59;43.11;-39.66 
3.696;0.77;-0.71;0.29;19.34;30.75;-22.75;-310.87;-233.99;-167.00;1.09;45.03;43.26;-38.88 
3.726;0.74;-0.53;0.36;16.97;39.30;-14.54;-311.86;-232.08;-169.00;0.98;45.51;43.29;-38.14 
3.756;0.77;-0.44;0.43;17.95;32.49;-7.58;-305.92;-230.17;-173.00;0.99;45.83;43.10;-37.50 
3.786;0.74;-0.46;0.37;15.65;21.43;2.30;-306.91;-233.04;-177.00;0.95;45.90;42.86;-37.08 
3.817;0.75;-0.51;0.36;16.49;22.47;5.43;-305.92;-230.17;-183.00;0.98;45.82;42.55;-36.83 
3.847;0.65;-0.58;0.32;18.16;23.72;6.89;-306.91;-226.35;-186.00;0.93;45.56;42.09;-36.74 
3.877;0.68;-0.63;0.38;19.55;31.03;-0.77;-303.94;-219.67;-192.00;1.00;45.35;41.59;-36.57 
3.907;0.66;-0.63;0.43;18.16;33.74;-1.04;-306.91;-220.62;-197.00;1.01;45.24;41.07;-36.31 
3.937;0.64;-0.62;0.46;20.17;29.15;-4.73;-301.96;-214.89;-205.00;1.00;45.21;40.56;-35.95 
3.967;0.66;-0.64;0.48;17.81;30.19;-3.13;-302.95;-215.85;-211.00;1.04;45.20;40.13;-35.57 
3.997;0.63;-0.60;0.45;12.66;34.02;-2.09;-295.02;-215.85;-212.00;0.98;45.15;39.60;-35.29 
4.028;0.66;-0.53;0.43;7.44;35.20;1.53;-298.99;-208.21;-215.00;0.95;45.10;38.99;-35.10 
4.058;0.59;-0.56;0.46;8.14;30.19;-4.24;-297.01;-207.25;-223.00;0.93;45.05;38.40;-34.97 
4.087;0.57;-0.66;0.46;4.87;28.80;-7.37;-294.03;-208.21;-221.00;0.99;45.12;37.96;-34.82 
4.117;0.53;-0.67;0.44;7.79;38.19;-13.08;-295.02;-204.39;-223.00;0.96;45.25;37.50;-34.68 
4.146;0.51;-0.74;0.48;13.98;41.04;-24.90;-294.03;-204.39;-226.00;1.02;45.56;36.97;-34.30 
4.175;0.51;-0.66;0.54;13.08;40.49;-27.76;-291.06;-204.39;-232.00;0.99;46.16;36.67;-33.67 
4.204;0.54;-0.52;0.58;11.97;37.84;-31.72;-292.05;-205.34;-232.00;0.95;46.88;36.41;-32.96 
4.234;0.54;-0.47;0.62;14.96;28.87;-21.57;-291.06;-208.21;-239.00;0.95;47.64;36.23;-32.15 
4.264;0.62;-0.45;0.54;13.84;18.99;-15.93;-287.10;-210.12;-243.00;0.94;48.28;36.23;-31.40 
4.294;0.62;-0.50;0.58;11.76;23.51;-8.70;-288.09;-211.07;-245.00;0.99;48.65;36.14;-30.90 
4.324;0.66;-0.46;0.59;9.88;21.91;-5.98;-286.11;-210.12;-247.00;1.00;48.92;35.91;-30.51 
4.353;0.62;-0.44;0.54;7.79;23.72;-1.25;-286.11;-210.12;-251.00;0.93;49.02;35.63;-30.31 
4.382;0.62;-0.38;0.52;7.37;29.29;-0.56;-286.11;-206.30;-251.00;0.89;49.12;35.27;-30.13 
4.413;0.58;-0.43;0.52;10.30;29.57;3.97;-284.13;-203.43;-253.00;0.89;49.13;34.73;-29.96 
4.443;0.58;-0.39;0.54;11.27;34.92;9.32;-283.14;-199.61;-257.00;0.88;48.99;34.02;-29.84 
4.473;0.64;-0.47;0.66;12.87;32.70;11.97;-279.18;-192.93;-261.00;1.03;48.70;33.15;-29.80 
4.504;0.56;-0.47;0.60;10.50;30.40;18.71;-279.18;-184.33;-262.00;0.95;48.29;32.31;-29.82 
4.534;0.46;-0.47;0.63;5.77;38.33;18.99;-278.19;-180.51;-270.00;0.91;47.72;31.25;-30.02 
4.564;0.46;-0.44;0.69;5.22;36.31;20.24;-279.18;-171.91;-269.00;0.94;47.16;30.13;-30.28 
4.594;0.42;-0.43;0.69;4.80;36.38;24.07;-278.19;-161.41;-273.00;0.92;46.56;28.97;-30.54 
4.625;0.35;-0.46;0.74;3.06;39.30;23.23;-276.21;-154.72;-271.00;0.94;45.79;27.57;-30.89 
4.655;0.40;-0.39;0.76;2.16;36.03;23.10;-276.21;-141.35;-272.00;0.94;45.14;26.29;-31.19 
4.685;0.33;-0.39;0.74;3.34;32.07;26.71;-272.25;-140.40;-275.00;0.90;44.46;25.07;-31.45 
4.716;0.32;-0.41;0.70;4.03;33.81;29.08;-270.27;-127.02;-275.00;0.87;43.69;23.85;-31.74 
4.746;0.35;-0.46;0.75;4.66;34.37;34.30;-270.27;-119.38;-272.00;0.95;42.81;22.54;-32.04 
4.776;0.35;-0.50;0.75;4.31;22.40;39.23;-268.29;-111.74;-276.00;0.97;41.81;21.32;-32.38 
4.806;0.30;-0.51;0.59;5.01;20.87;39.37;-266.31;-101.24;-273.00;0.84;40.67;20.30;-32.84 
4.836;0.37;-0.52;0.67;5.57;38.61;35.48;-263.34;-89.78;-279.00;0.93;39.58;19.05;-33.23 
4.866;0.31;-0.53;0.74;10.85;44.03;37.36;-262.35;-81.18;-275.00;0.96;38.61;17.54;-33.46 
4.896;0.29;-0.54;0.65;21.36;51.48;35.55;-259.38;-69.72;-275.00;0.89;37.64;15.89;-33.50 
4.927;0.25;-0.67;0.64;26.85;64.83;33.04;-254.43;-57.30;-274.00;0.96;36.73;13.79;-33.31 
4.957;0.22;-0.66;0.79;22.33;65.88;28.87;-245.52;-41.07;-281.00;1.05;35.98;11.48;-32.95 
4.987;0.17;-0.63;1.00;5.98;56.63;37.36;-238.59;-26.74;-277.00;1.19;35.23;9.32;-32.66 
5.017;0.05;-0.87;1.08;-7.65;36.59;20.10;-235.62;-17.19;-278.00;1.39;34.41;7.61;-32.97 
5.047;-0.07;-0.82;0.93;-11.83;2.23;9.18;-233.64;-12.42;-272.00;1.24;33.84;6.91;-33.47 
5.077;-0.09;-0.69;0.85;-20.66;19.13;-6.61;-238.59;-9.55;-272.00;1.10;33.60;6.54;-34.09 
5.107;-0.02;-0.56;0.91;-30.26;19.97;-1.25;-239.58;-10.51;-267.00;1.07;33.56;6.10;-34.84 
5.138;-0.08;-0.59;0.92;-41.11;26.09;13.29;-246.51;-7.64;-263.00;1.10;33.19;5.47;-35.95 
5.168;-0.04;-0.57;0.98;-55.79;25.53;29.57;-248.49;-0.96;-251.00;1.13;32.18;4.29;-37.47 
5.198;0.03;-0.60;0.84;-59.69;2.85;40.83;-252.45;11.46;-237.00;1.03;30.73;3.41;-39.27 
5.229;-0.12;-0.87;0.67;-62.82;13.08;45.98;-252.45;15.28;-231.00;1.10;28.66;2.40;-41.41 
5.259;-0.14;-0.81;0.66;-55.93;30.68;43.34;-252.45;26.74;-216.00;1.05;26.55;0.90;-43.55 
5.289;-0.13;-0.65;0.70;-53.84;25.53;37.29;-255.42;31.52;-206.00;0.96;24.73;-0.62;-45.31 
5.319;-0.02;-0.51;0.75;-50.37;20.38;43.55;-254.43;42.98;-189.00;0.91;23.05;-1.86;-46.79 
5.350;-0.22;-0.46;0.73;-38.82;24.77;53.36;-250.47;54.44;-179.00;0.89;21.04;-3.44;-47.93 
5.380;-0.21;-0.45;0.65;-41.18;22.61;56.35;-247.50;59.21;-173.00;0.82;18.86;-5.24;-48.75 
5.410;-0.21;-0.40;0.62;-40.14;28.38;56.21;-244.53;69.72;-158.00;0.77;16.75;-7.18;-49.34 
5.441;-0.25;-0.52;0.42;-57.95;17.95;64.56;-235.62;88.82;-152.00;0.71;14.16;-9.06;-50.23 
5.471;-0.22;-0.64;0.37;-68.38;16.56;62.82;-232.65;95.51;-138.00;0.77;10.99;-11.07;-51.58 
5.501;-0.21;-0.61;0.30;-62.19;32.90;55.23;-225.72;104.10;-126.00;0.71;7.89;-12.95;-53.01 
5.531;-0.25;-0.57;0.51;-47.10;51.90;48.00;-220.77;111.74;-118.00;0.80;5.34;-15.00;-53.83 
5.561;-0.24;-0.55;0.55;-46.75;23.93;47.58;-209.88;126.07;-94.00;0.81;3.03;-16.91;-54.23 
5.591;-0.27;-0.51;0.49;-51.20;-1.18;41.18;-207.90;127.98;-89.00;0.76;0.74;-18.23;-54.63 
5.621;-0.22;-0.58;0.35;-50.16;-14.26;37.98;-198.00;136.58;-80.00;0.71;-1.43;-19.13;-55.14 
5.652;-0.26;-0.69;0.25;-39.86;-21.22;40.14;-191.07;141.35;-77.00;0.78;-3.66;-19.90;-55.63 
5.682;-0.29;-0.82;0.21;-20.24;-14.05;28.03;-185.13;152.81;-76.00;0.89;-5.44;-20.57;-55.84 
5.712;-0.20;-0.84;0.36;0.70;-6.26;15.58;-181.17;154.72;-73.00;0.94;-6.35;-20.96;-55.78 
5.742;-0.31;-0.88;0.40;-4.10;-40.97;9.18;-179.19;158.54;-78.00;1.02;-6.62;-20.92;-55.63 
5.772;-0.54;-0.90;0.32;-11.48;-65.60;1.32;-173.25;153.77;-83.00;1.10;-6.96;-20.33;-55.65 
5.802;-0.50;-0.82;0.35;-14.12;-43.48;-14.40;-176.22;152.81;-97.00;1.02;-7.08;-19.52;-56.03 
5.832;-0.37;-0.86;0.34;-5.43;-43.76;1.60;-179.19;148.04;-99.00;1.00;-7.05;-18.77;-56.44 
5.862;-0.51;-0.90;0.29;-0.56;-49.67;16.21;-178.20;150.90;-108.00;1.07;-7.46;-18.41;-56.30 
5.892;-0.50;-0.81;0.26;-0.90;-16.90;14.68;-176.22;151.86;-113.00;0.99;-8.11;-18.45;-56.01 
5.922;-0.39;-0.70;0.42;6.05;11.69;26.99;-172.26;156.63;-121.00;0.90;-8.80;-19.01;-55.51 
5.952;-0.51;-0.81;0.58;4.17;4.17;45.22;-164.34;161.41;-120.00;1.12;-10.03;-20.27;-54.47 
5.981;-0.54;-0.74;0.57;3.20;6.61;36.31;-157.41;163.32;-117.00;1.08;-11.38;-21.54;-53.37 
6.011;-0.44;-0.75;0.60;0.77;3.27;28.45;-151.47;170.00;-122.00;1.06;-12.40;-22.53;-52.47 
6.040;-0.42;-0.63;0.56;-4.52;-10.78;13.84;-147.51;172.87;-117.00;0.94;-13.14;-23.06;-51.86 
6.070;-0.40;-0.59;0.52;-0.07;-13.01;11.20;-142.56;175.73;-121.00;0.88;-13.54;-23.22;-51.41 
6.100;-0.46;-0.58;0.52;4.10;-14.68;5.63;-142.56;175.73;-124.00;0.90;-13.82;-23.26;-50.93 
6.130;-0.43;-0.58;0.53;4.87;-9.53;5.22;-141.57;174.78;-128.00;0.90;-13.97;-23.25;-50.45 
6.159;-0.49;-0.61;0.50;3.48;-10.37;5.63;-141.57;171.91;-129.00;0.93;-14.16;-23.28;-49.97 
6.188;-0.50;-0.66;0.49;-0.77;-6.47;7.65;-139.59;176.69;-135.00;0.96;-14.40;-23.35;-49.60 
6.217;-0.49;-0.66;0.49;-6.33;-0.21;9.88;-137.61;174.78;-130.00;0.96;-14.78;-23.54;-49.34 
6.247;-0.46;-0.71;0.50;-8.77;2.37;11.62;-133.65;178.60;-133.00;0.98;-15.32;-23.90;-49.14 
6.276;-0.46;-0.69;0.51;-9.60;2.78;10.16;-137.61;177.64;-133.00;0.97;-15.83;-24.23;-48.97 
6.305;-0.44;-0.73;0.50;-7.79;-0.35;9.46;-133.65;180.51;-131.00;0.99;-16.32;-24.53;-48.81 
6.336;-0.44;-0.71;0.46;-7.17;-4.66;4.94;-132.66;180.51;-130.00;0.95;-16.70;-24.69;-48.71 
6.366;-0.43;-0.78;0.42;-6.96;-3.76;4.94;-134.64;182.42;-131.00;0.98;-17.01;-24.75;-48.67 
6.396;-0.43;-0.77;0.42;-5.77;0.83;1.25;-126.72;182.42;-129.00;0.98;-17.22;-24.78;-48.68 
6.426;-0.43;-0.77;0.40;-3.69;6.54;2.99;-129.69;181.46;-129.00;0.97;-17.42;-24.89;-48.67 
6.456;-0.45;-0.72;0.46;-4.45;6.47;4.94;-126.72;179.55;-125.00;0.97;-17.67;-25.09;-48.59 
6.486;-0.46;-0.73;0.46;-4.10;1.18;2.78;-127.71;183.37;-122.00;0.98;-17.93;-25.27;-48.49 
6.516;-0.42;-0.76;0.42;-3.20;-2.57;1.81;-129.69;183.37;-124.00;0.96;-18.09;-25.30;-48.41 
6.547;-0.42;-0.78;0.43;-2.09;-5.63;3.83;-126.72;184.33;-125.00;0.98;-18.26;-25.28;-48.34 
6.577;-0.39;-0.73;0.35;0.28;-6.12;4.38;-125.73;182.42;-128.00;0.90;-18.39;-25.22;-48.27 
6.607;-0.39;-0.75;0.33;1.74;-4.31;7.10;-122.76;183.37;-127.00;0.91;-18.60;-25.24;-48.09 
6.637;-0.46;-0.73;0.34;6.75;-2.92;4.24;-121.77;182.42;-130.00;0.93;-18.85;-25.34;-47.85 
6.666;-0.48;-0.77;0.38;14.82;1.53;8.56;-122.76;182.42;-131.00;0.98;-19.04;-25.51;-47.45 
6.695;-0.51;-0.77;0.44;19.76;-3.34;9.04;-119.79;183.37;-135.00;1.02;-19.26;-25.73;-46.84 
6.725;-0.50;-0.71;0.46;21.63;-4.59;12.24;-114.84;187.19;-135.00;0.98;-19.46;-25.92;-46.08 
6.755;-0.49;-0.70;0.52;23.10;-9.74;15.37;-110.88;189.10;-143.00;1.00;-19.77;-26.16;-45.11 
6.785;-0.49;-0.72;0.59;21.43;-18.43;16.97;-108.90;191.01;-144.00;1.05;-20.10;-26.28;-44.14 
6.815;-0.47;-0.72;0.50;20.52;-23.03;15.37;-106.92;191.01;-152.00;0.99;-20.41;-26.23;-43.21 
6.846;-0.43;-0.68;0.49;20.59;-22.89;16.21;-99.00;191.01;-159.00;0.94;-20.69;-26.05;-42.32 
6.876;-0.39;-0.63;0.50;21.50;-18.02;15.86;-92.07;191.01;-169.00;0.89;-21.00;-25.92;-41.44 
6.906;-0.42;-0.63;0.56;21.77;-16.35;16.83;-90.09;191.01;-170.00;0.94;-21.32;-25.83;-40.52 
6.936;-0.45;-0.63;0.58;20.31;-15.79;12.87;-88.11;189.10;-179.00;0.97;-21.64;-25.74;-39.62 
6.966;-0.42;-0.64;0.68;22.54;-17.67;8.00;-82.17;190.06;-183.00;1.02;-21.79;-25.48;-38.74 
6.995;-0.46;-0.62;0.79;22.05;-30.12;11.69;-78.21;186.24;-194.00;1.10;-21.93;-25.08;-37.83 
7.024;-0.42;-0.55;0.70;23.23;-41.95;12.80;-74.25;190.06;-204.00;0.98;-22.09;-24.43;-36.91 
7.053;-0.40;-0.50;0.65;25.74;-43.76;17.04;-70.29;189.10;-213.00;0.91;-22.34;-23.62;-35.85 
7.083;-0.39;-0.50;0.66;25.88;-41.18;19.90;-63.36;181.46;-224.00;0.92;-22.71;-22.88;-34.75 
7.113;-0.40;-0.49;0.65;26.85;-37.70;22.61;-60.39;185.28;-220.00;0.91;-23.21;-22.20;-33.59 
7.144;-0.39;-0.49;0.65;28.24;-35.90;25.25;-47.52;178.60;-240.00;0.90;-23.86;-21.60;-32.33 
7.174;-0.34;-0.50;0.71;29.77;-30.96;24.28;-39.60;176.69;-252.00;0.93;-24.53;-21.02;-31.04 
7.204;-0.38;-0.49;0.74;31.37;-34.37;24.77;-27.72;172.87;-256.00;0.97;-25.18;-20.45;-29.76 
7.235;-0.39;-0.52;0.73;31.93;-39.65;21.98;-22.77;173.82;-266.00;0.98;-25.84;-19.71;-28.44 
7.265;-0.38;-0.54;0.70;34.16;-42.85;20.73;-9.90;167.14;-281.00;0.96;-26.45;-18.73;-27.13 
7.295;-0.38;-0.52;0.75;32.56;-38.26;18.23;-6.93;163.32;-286.00;0.99;-27.04;-17.80;-25.88 
7.325;-0.38;-0.44;0.80;33.11;-38.82;13.22;0.00;162.36;-298.00;0.99;-27.52;-16.85;-24.72 
7.356;-0.31;-0.46;0.76;35.06;-41.95;10.78;10.89;153.77;-310.00;0.94;-27.94;-15.74;-23.48 
7.386;-0.30;-0.42;0.76;34.37;-43.27;8.28;16.83;148.04;-315.00;0.92;-28.29;-14.49;-22.29 
7.416;-0.26;-0.38;0.75;37.08;-43.83;8.63;26.73;142.31;-324.00;0.88;-28.63;-13.23;-21.10 
7.447;-0.27;-0.39;0.77;36.31;-40.14;6.68;31.68;137.53;-334.00;0.90;-28.96;-11.96;-19.85 
7.477;-0.21;-0.40;0.70;40.63;-47.30;10.43;43.56;131.80;-342.00;0.83;-29.37;-10.56;-18.57 
7.507;-0.20;-0.40;0.70;43.13;-40.70;12.31;54.45;123.20;-350.00;0.83;-29.85;-9.25;-17.30 
7.537;-0.15;-0.35;0.70;48.28;-37.43;16.28;61.38;118.43;-355.00;0.80;-30.41;-8.09;-15.94 
7.567;-0.14;-0.30;0.76;57.32;-30.61;17.74;72.27;116.52;-363.00;0.83;-31.12;-6.95;-14.22 
7.597;-0.09;-0.31;0.89;56.07;-20.17;18.37;91.08;107.92;-370.00;0.95;-31.87;-6.09;-12.43 
7.627;-0.04;-0.33;1.06;57.46;-23.93;13.77;102.96;105.06;-377.00;1.11;-32.49;-5.22;-10.63 
7.658;-0.19;-0.47;1.19;60.17;-27.69;2.99;114.84;102.19;-380.00;1.29;-33.06;-4.26;-8.82 
7.688;-0.26;-0.38;1.30;61.15;-24.21;-21.22;127.71;98.37;-389.00;1.38;-32.94;-3.24;-6.95 
7.717;-0.17;-0.23;1.30;64.77;-32.14;-51.13;132.66;92.64;-392.00;1.33;-32.12;-2.19;-5.18 
7.746;-0.17;-0.10;1.03;71.86;-46.05;-54.47;138.60;80.23;-397.00;1.05;-30.80;-0.88;-3.22 
7.775;-0.18;0.02;0.79;47.65;-42.30;-42.16;142.56;72.59;-400.00;0.81;-29.48;0.64;-1.45 
7.804;-0.18;0.10;0.75;28.10;-9.39;-15.10;144.54;67.81;-404.00;0.78;-28.78;1.56;-0.01 
7.833;-0.08;0.14;0.86;22.96;28.52;-16.49;146.52;66.86;-403.00;0.87;-28.46;1.53;0.97 
7.862;-0.22;0.23;1.02;18.99;35.62;-1.67;146.52;72.59;-399.00;1.07;-28.22;0.61;1.86 
7.892;-0.22;0.23;1.14;15.23;28.66;14.96;155.43;80.23;-391.00;1.18;-28.56;-0.27;2.65 
7.922;-0.16;0.18;1.04;8.35;23.30;28.38;159.39;83.09;-389.00;1.07;-29.26;-0.90;3.25 
7.953;-0.10;0.07;1.04;-0.56;29.50;33.39;163.35;87.87;-388.00;1.05;-30.37;-1.46;3.57 
7.983;-0.10;0.07;1.00;-0.42;38.96;24.83;169.29;90.73;-387.00;1.01;-31.40;-2.17;3.71 
8.013;-0.15;0.11;0.96;0.63;51.27;29.98;172.26;98.37;-381.00;0.98;-32.36;-3.22;3.93 
8.044;-0.16;0.11;0.98;-3.41;62.47;33.25;181.17;105.06;-367.00;1.00;-33.55;-4.68;4.16 
8.074;-0.11;0.06;0.99;-4.45;60.17;31.44;182.16;116.52;-363.00;1.00;-34.83;-6.29;4.28 
8.104;-0.13;0.02;0.97;0.21;49.04;20.03;184.14;123.20;-361.00;0.98;-35.95;-7.65;4.41 
8.134;-0.18;0.02;0.90;4.31;35.76;10.09;187.11;131.80;-351.00;0.92;-36.67;-8.67;4.62 
8.163;-0.20;0.02;0.82;7.44;26.02;2.30;192.06;132.76;-345.00;0.84;-37.10;-9.40;4.93 
8.193;-0.26;0.06;0.75;5.50;22.54;-1.67;192.06;138.49;-342.00;0.80;-37.30;-9.98;5.27 
8.223;-0.32;0.14;0.62;3.48;20.52;-4.17;193.05;141.35;-339.00;0.71;-37.42;-10.58;5.54 
8.254;-0.33;0.18;0.52;5.91;16.63;1.53;190.08;143.26;-335.00;0.64;-37.54;-11.15;5.91 
8.284;-0.31;0.13;0.53;7.44;16.77;-1.67;195.03;145.17;-331.00;0.63;-37.72;-11.70;6.39 
8.314;-0.28;0.07;0.54;6.47;17.18;-6.82;195.03;149.95;-331.00;0.61;-37.76;-12.27;6.77 
8.344;-0.26;0.05;0.54;4.03;9.60;-6.75;194.04;152.81;-332.00;0.60;-37.73;-12.68;7.02 
8.374;-0.21;0.00;0.61;5.22;-0.56;1.18;194.04;153.77;-322.00;0.65;-37.56;-13.32;8.06 
8.403;-0.34;0.14;0.61;11.48;3.13;-12.24;196.02;157.59;-331.00;0.71;-37.40;-13.35;8.46 
8.432;-0.31;0.17;0.70;7.65;9.32;-9.53;193.05;155.68;-328.00;0.78;-37.12;-13.59;8.84 
8.462;-0.49;0.09;0.61;13.36;11.06;-24.21;194.04;158.54;-325.00;0.79;-36.92;-13.76;9.10 
8.492;-0.26;0.14;0.78;6.33;30.75;-26.30;190.08;164.27;-321.00;0.83;-36.55;-14.70;9.41 
8.521;-0.33;0.19;0.84;8.56;15.03;-15.65;193.05;167.14;-316.00;0.92;-36.01;-15.33;9.66 
8.551;-0.40;0.15;1.04;6.19;-38.19;-2.23;188.10;166.18;-322.00;1.12;-35.61;-15.08;9.78 
8.581;-0.50;0.06;0.85;11.55;-36.87;-17.74;191.07;159.50;-321.00;0.99;-35.20;-13.81;10.11 
8.610;-0.38;0.10;0.78;13.08;-39.23;-20.38;187.11;152.81;-333.00;0.87;-34.45;-12.74;10.38 
8.640;-0.42;0.11;0.85;7.17;-49.32;-27.34;186.12;151.86;-338.00;0.95;-33.53;-11.49;10.55 
8.670;-0.35;0.09;0.71;4.03;-41.25;-28.17;181.17;144.22;-346.00;0.80;-32.54;-10.20;10.67 
8.700;-0.37;0.10;0.78;4.66;-27.97;-32.42;175.23;139.44;-350.00;0.87;-31.59;-9.38;10.72 
8.730;-0.34;0.09;0.78;9.04;-26.78;-33.25;174.24;130.85;-353.00;0.86;-30.53;-8.80;10.81 
8.760;-0.35;0.11;0.80;7.37;-32.07;-29.84;169.29;130.85;-357.00;0.88;-29.49;-8.12;11.00 
8.790;-0.36;0.17;0.75;4.38;-29.15;-25.18;166.32;127.02;-361.00;0.85;-28.59;-7.41;11.13 
8.820;-0.34;0.21;0.74;5.15;-14.89;-21.98;160.38;122.25;-366.00;0.84;-27.84;-6.94;11.32 
8.851;-0.30;0.17;0.82;8.21;1.95;-16.70;159.39;121.29;-367.00;0.89;-27.24;-6.93;11.59 
8.881;-0.26;0.07;0.91;13.50;6.40;-12.17;158.40;122.25;-362.00;0.95;-26.83;-7.19;11.89 
8.911;-0.22;0.02;0.93;21.98;0.07;-8.97;163.35;125.11;-363.00;0.96;-26.50;-7.32;12.35 
8.941;-0.13;0.02;0.94;18.71;-10.57;-12.73;164.34;121.29;-366.00;0.95;-26.15;-7.13;12.87 
8.971;-0.06;0.18;0.94;8.56;-14.89;-15.93;166.32;118.43;-365.00;0.96;-25.67;-6.66;13.25 
9.001;-0.05;0.23;0.99;3.20;-14.75;-13.91;162.36;116.52;-373.00;1.02;-25.24;-6.10;13.49 
9.030;-0.05;0.27;1.02;9.04;19.97;-25.81;161.37;120.34;-370.00;1.06;-24.64;-6.39;14.23 
9.060;-0.08;0.20;1.14;-8.70;-37.50;5.29;159.39;116.52;-370.00;1.16;-24.57;-6.19;14.00 
9.090;-0.09;0.15;0.84;-13.08;-43.90;3.20;159.39;108.88;-375.00;0.86;-24.79;-4.71;13.60 
9.120;-0.02;0.11;0.77;-11.97;-26.02;4.94;155.43;109.83;-379.00;0.78;-24.99;-3.49;13.21 
9.151;0.02;0.11;0.81;-7.03;-16.83;5.63;158.40;102.19;-381.00;0.82;-25.23;-2.68;12.96 
9.181;0.00;0.13;0.80;-1.53;-13.36;9.81;158.40;97.42;-382.00;0.81;-25.58;-1.94;12.86 
9.211;-0.06;0.02;0.86;1.88;-7.86;7.51;158.40;95.51;-385.00;0.86;-25.95;-1.39;12.84 
9.241;0.00;-0.06;0.91;1.39;-5.01;-0.35;161.37;93.60;-388.00;0.91;-26.16;-1.04;12.94 
9.271;-0.06;-0.06;0.91;2.23;-8.49;-5.29;164.34;91.69;-386.00;0.91;-26.17;-0.66;13.01 
9.301;0.00;-0.03;0.86;4.24;-12.24;-7.44;162.36;91.69;-391.00;0.86;-26.00;-0.25;13.10 
9.331;-0.06;0.00;0.83;5.70;-9.53;-11.97;159.39;90.73;-391.00;0.83;-25.75;0.09;13.09 
9.362;-0.09;0.00;0.85;6.75;-0.63;-17.04;159.39;89.78;-393.00;0.85;-25.39;0.27;13.17 
9.391;-0.18;-0.02;0.87;3.41;7.79;-25.46;162.36;90.73;-389.00;0.89;-24.85;0.05;13.23 
9.421;-0.15;0.08;0.95;2.64;10.43;-34.57;152.46;90.73;-391.00;0.97;-24.09;-0.29;13.37 
9.452;-0.20;0.15;0.94;3.69;8.83;-35.48;148.50;95.51;-386.00;0.97;-23.11;-0.88;13.39 
9.481;-0.15;0.26;0.87;7.23;-7.23;-24.56;145.53;98.37;-390.00;0.92;-22.15;-1.15;13.63 
9.511;-0.19;0.29;0.83;4.52;-11.41;-15.72;147.51;94.55;-387.00;0.90;-21.50;-1.03;13.91 
9.541;-0.14;0.25;0.81;-3.13;-2.09;-5.43;141.57;89.78;-390.00;0.86;-21.19;-0.91;14.03 
9.571;-0.06;0.29;0.73;-5.91;11.62;0.21;145.53;90.73;-389.00;0.79;-21.17;-0.98;13.99 
9.601;-0.15;0.30;0.90;-0.70;26.30;2.85;140.58;95.51;-389.00;0.96;-21.33;-1.44;14.00 
9.631;-0.15;0.25;1.06;6.40;23.44;5.98;142.56;99.33;-388.00;1.10;-21.54;-2.16;14.14 
9.662;-0.13;0.20;1.01;12.31;-2.02;8.00;147.51;98.37;-383.00;1.04;-21.82;-2.39;14.41 
9.692;-0.11;0.23;0.84;14.47;-12.87;1.11;153.45;102.19;-387.00;0.88;-22.02;-2.00;14.82 
9.722;-0.06;0.29;0.82;12.59;-10.99;-3.20;155.43;99.33;-388.00;0.87;-21.99;-1.57;15.29 
9.752;-0.06;0.24;0.82;12.38;-2.23;-1.53;155.43;95.51;-390.00;0.86;-21.95;-1.25;15.77 
9.781;-0.07;0.26;0.89;10.16;3.48;-3.90;158.40;97.42;-388.00;0.93;-21.87;-1.27;16.17 
9.811;-0.09;0.25;0.89;4.59;0.35;-5.57;158.40;97.42;-391.00;0.93;-21.76;-1.31;16.40 
9.841;-0.14;0.30;0.89;2.85;-6.54;-4.73;157.41;94.55;-388.00;0.95;-21.66;-1.22;16.56 
9.871;-0.14;0.31;0.86;0.63;-10.02;-0.28;155.43;95.51;-387.00;0.92;-21.63;-0.98;16.67 
9.901;-0.17;0.25;0.86;-0.42;-9.25;5.01;160.38;94.55;-389.00;0.91;-21.72;-0.68;16.74 
9.931;-0.14;0.22;0.82;-0.07;-3.13;6.96;157.41;90.73;-388.00;0.86;-21.92;-0.43;16.78 
9.962;-0.14;0.22;0.81;-0.35;5.98;9.18;164.34;89.78;-391.00;0.85;-22.22;-0.36;16.83 
9.992;-0.18;0.23;0.84;-2.64;13.98;8.83;164.34;91.69;-392.00;0.89;-22.56;-0.59;16.80 
10.021;-0.20;0.18;0.91;-2.85;14.33;7.58;158.40;94.55;-391.00;0.95;-22.90;-0.97;16.69 
10.051;-0.20;0.14;0.90;-1.74;12.24;4.80;163.35;99.33;-387.00;0.93;-23.16;-1.36;16.58 
10.081;-0.19;0.17;0.87;-1.74;9.88;0.56;164.34;100.28;-380.00;0.91;-23.33;-1.72;16.45 
10.111;-0.17;0.18;0.86;-0.56;8.42;-1.74;164.34;104.10;-384.00;0.89;-23.39;-2.02;16.41 
10.141;-0.18;0.17;0.89;-0.97;6.33;-5.77;165.33;101.24;-384.00;0.92;-23.36;-2.24;16.35 
10.172;-0.19;0.21;0.87;-0.70;7.37;-8.35;165.33;105.06;-381.00;0.91;-23.19;-2.53;16.30 
10.202;-0.18;0.25;0.85;-3.62;10.85;-12.87;161.37;105.06;-379.00;0.90;-22.95;-2.92;16.21 
10.232;-0.19;0.19;0.84;-3.06;8.00;-9.60;158.40;106.01;-381.00;0.88;-22.71;-3.27;16.12 
10.262;-0.26;0.18;0.82;-6.68;14.33;-15.51;154.44;105.06;-377.00;0.88;-22.49;-3.71;15.92 
10.291;-0.21;0.25;0.84;-4.73;21.29;-12.87;154.44;111.74;-376.00;0.90;-22.14;-4.40;15.74 
10.321;-0.22;0.22;0.84;-4.10;16.21;-8.70;148.50;114.61;-371.00;0.90;-21.90;-5.05;15.61 
