Time(s) acc_x(g) acc_y(g) acc_z(g) gyr_x(°/s) gyr_y(°/s) gyr_z(°/s) mag_x(G) mag_y(G) mag_z(G) SVM(g) yaw(°) pitch(°) roll(°)
0.000;-0.08;0.18;1.30;13.57;-13.63;-9.88;172.26;129.89;-353.00;1.31;-63.88;-13.01;1.01 
0.031;-0.01;0.10;0.94;-1.25;-47.30;-15.03;175.23;126.07;-357.00;0.95;-63.45;-11.64;1.31 
0.061;0.02;0.02;0.79;-9.88;-31.10;-23.23;175.23;117.47;-363.00;0.79;-62.81;-10.10;1.14 
0.091;0.05;0.00;0.74;-15.86;-19.48;-31.93;165.33;112.70;-366.00;0.74;-62.01;-9.02;0.71 
0.121;0.04;0.06;0.74;-15.79;-8.35;-32.07;158.40;112.70;-369.00;0.74;-61.03;-8.28;0.19 
0.151;-0.10;0.07;0.72;-10.57;10.85;-26.71;150.48;111.74;-371.00;0.73;-60.22;-8.02;-0.21 
0.181;-0.19;0.10;0.78;-6.75;32.63;-27.13;150.48;111.74;-365.00;0.81;-59.51;-8.54;-0.46 
0.211;-0.25;0.10;1.02;-4.94;36.10;-21.36;139.59;120.34;-360.00;1.05;-58.94;-9.55;-0.60 
0.241;-0.24;0.15;1.05;2.92;7.44;-18.99;135.63;126.07;-358.00;1.09;-58.40;-10.25;-0.58 
0.271;-0.25;0.14;0.95;6.40;-14.68;-7.37;135.63;124.16;-356.00;0.99;-58.07;-10.06;-0.34 
0.301;-0.17;0.18;0.85;13.08;-17.04;-2.23;132.66;123.20;-361.00;0.89;-57.93;-9.45;0.11 
0.332;-0.16;0.19;0.74;18.23;-15.03;9.60;136.62;119.38;-364.00;0.78;-58.03;-8.86;0.84 
0.362;-0.18;0.18;0.74;21.43;0.77;15.72;141.57;116.52;-365.00;0.78;-58.41;-8.51;1.79 
0.392;-0.19;0.10;0.83;16.63;15.30;14.19;147.51;119.38;-363.00;0.86;-58.93;-8.72;2.60 
0.422;-0.25;0.00;0.92;8.21;11.83;7.51;154.44;123.20;-362.00;0.95;-59.32;-9.09;3.12 
0.452;-0.29;0.01;1.02;3.55;4.03;-1.04;157.41;125.11;-364.00;1.06;-59.50;-9.36;3.33 
0.482;-0.25;0.09;1.00;6.75;-5.57;-11.83;155.43;125.11;-361.00;1.03;-59.35;-9.35;3.48 
0.511;-0.22;0.10;1.02;16.07;-10.23;-11.27;157.41;123.20;-363.00;1.05;-59.02;-9.11;3.82 
0.540;-0.22;0.13;0.91;24.42;-13.57;-11.27;155.43;121.29;-364.00;0.95;-58.65;-8.71;4.45 
0.569;-0.24;0.15;0.84;26.99;-13.70;-12.73;158.40;119.38;-366.00;0.89;-58.24;-8.32;5.26 
0.599;-0.20;0.10;0.75;24.21;-13.50;-14.61;162.36;116.52;-368.00;0.78;-57.79;-8.01;6.07 
0.629;-0.22;0.12;0.74;15.93;-10.37;-19.13;160.38;114.61;-372.00;0.78;-57.23;-7.69;6.71 
0.659;-0.22;0.12;0.75;9.53;-3.34;-24.35;162.36;112.70;-376.00;0.79;-56.57;-7.56;7.10 
0.688;-0.25;0.10;0.83;2.37;-0.21;-27.34;159.39;113.65;-376.00;0.87;-55.82;-7.63;7.27 
0.719;-0.26;0.20;0.86;-2.43;-9.39;-25.32;151.47;114.61;-374.00;0.92;-55.00;-7.65;7.21 
0.749;-0.23;0.23;0.86;-4.87;-5.50;-20.73;150.48;112.70;-375.00;0.92;-54.30;-7.51;7.13 
0.779;-0.12;0.22;0.94;-4.45;-3.34;-16.49;150.48;115.56;-373.00;0.97;-53.75;-7.45;7.09 
0.809;-0.18;0.17;0.91;-3.90;-13.08;-4.45;143.55;112.70;-375.00;0.94;-53.44;-7.18;7.04 
0.839;-0.21;0.20;0.88;-5.01;-8.00;-3.62;141.57;107.92;-377.00;0.93;-53.33;-6.87;7.02 
0.869;-0.22;0.23;0.80;-2.71;7.58;-3.62;143.55;107.92;-378.00;0.86;-53.24;-6.91;7.04 
0.899;-0.18;0.14;0.90;0.56;13.43;2.30;141.57;113.65;-377.00;0.93;-53.31;-7.26;7.17 
0.929;-0.20;0.06;0.90;0.42;2.16;2.71;140.58;111.74;-379.00;0.92;-53.46;-7.48;7.25 
0.959;-0.23;0.05;0.86;-4.24;-3.41;-0.49;142.56;113.65;-375.00;0.89;-53.54;-7.44;7.21 
0.989;-0.18;0.09;0.81;-5.43;2.99;-3.34;142.56;111.74;-379.00;0.83;-53.53;-7.41;7.08 
1.019;-0.16;0.18;0.89;-5.98;4.87;-4.38;143.55;110.79;-374.00;0.92;-53.47;-7.53;6.96 
1.049;-0.16;0.14;0.94;-4.73;-0.07;0.77;137.61;112.70;-371.00;0.96;-53.47;-7.56;6.91 
1.079;-0.19;0.10;0.89;-2.85;-2.02;-0.70;143.55;112.70;-373.00;0.92;-53.51;-7.47;6.87 
1.108;-0.16;0.09;0.90;-1.60;-3.34;-2.99;135.63;110.79;-375.00;0.92;-53.50;-7.36;6.85 
1.138;-0.18;0.08;0.90;-1.88;-7.65;-3.76;138.60;110.79;-373.00;0.92;-53.40;-7.18;6.84 
1.168;-0.16;0.11;0.85;-3.90;-7.58;-3.34;133.65;109.83;-378.00;0.87;-53.30;-6.92;6.78 
1.198;-0.18;0.10;0.83;-4.38;-0.35;-5.63;133.65;110.79;-376.00;0.86;-53.20;-6.78;6.68 
1.229;-0.19;0.10;0.92;-3.83;4.59;-6.12;132.66;108.88;-378.00;0.94;-53.08;-6.85;6.62 
1.259;-0.19;0.14;0.92;-4.59;1.32;-4.59;130.68;108.88;-373.00;0.95;-52.97;-6.97;6.56 
1.289;-0.21;0.11;0.93;-4.03;-3.90;-3.06;129.69;106.97;-378.00;0.96;-52.90;-6.91;6.48 
1.318;-0.17;0.09;0.87;-3.97;-3.20;-4.31;128.70;108.88;-374.00;0.89;-52.83;-6.79;6.41 
1.348;-0.17;0.10;0.88;-5.01;-2.23;-7.30;126.72;107.92;-378.00;0.90;-52.68;-6.69;6.29 
1.378;-0.15;0.10;0.87;-5.57;-1.74;-8.63;122.76;106.97;-380.00;0.89;-52.50;-6.61;6.14 
1.408;-0.16;0.10;0.90;-5.91;-2.37;-9.53;120.78;107.92;-376.00;0.92;-52.28;-6.54;5.98 
1.439;-0.18;0.10;0.88;-5.98;-2.16;-10.43;118.80;107.92;-380.00;0.90;-52.02;-6.49;5.84 
1.469;-0.18;0.12;0.90;-6.12;-2.71;-8.97;118.80;105.06;-377.00;0.93;-51.76;-6.45;5.70 
1.498;-0.16;0.14;0.88;-6.61;-2.78;-7.51;112.86;105.06;-377.00;0.91;-51.55;-6.38;5.57 
1.529;-0.16;0.11;0.88;-7.23;-2.85;-5.70;111.87;105.06;-377.00;0.90;-51.39;-6.31;5.45 
1.559;-0.15;0.10;0.88;-8.21;-2.64;-5.22;112.86;101.24;-378.00;0.90;-51.26;-6.24;5.28 
1.589;-0.16;0.10;0.86;-9.74;-2.30;-4.80;107.91;100.28;-379.00;0.88;-51.15;-6.16;5.07 
1.619;-0.24;0.09;0.82;-10.57;-0.63;-4.03;103.95;102.19;-377.00;0.86;-51.07;-6.16;4.83 
1.649;-0.21;0.10;0.82;-12.10;0.00;-2.71;101.97;102.19;-379.00;0.85;-51.02;-6.20;4.57 
1.678;-0.21;0.14;0.80;-16.49;-0.90;2.50;98.01;102.19;-379.00;0.84;-51.07;-6.23;4.25 
1.708;-0.21;0.09;0.78;-19.06;-2.23;4.52;94.05;101.24;-376.00;0.81;-51.25;-6.25;3.86 
1.739;-0.22;0.03;0.78;-23.86;-2.16;3.13;95.04;101.24;-378.00;0.81;-51.44;-6.29;3.33 
1.769;-0.18;0.02;0.75;-28.24;-7.30;4.03;87.12;100.28;-377.00;0.77;-51.63;-6.24;2.60 
1.799;-0.16;0.02;0.70;-30.82;-15.51;4.66;82.17;98.37;-377.00;0.72;-51.83;-5.98;1.79 
1.829;-0.10;0.06;0.60;-26.99;-17.88;0.77;78.21;99.33;-380.00;0.61;-51.95;-5.52;0.96 
1.859;-0.08;0.08;0.54;-17.18;-10.85;5.08;71.28;92.64;-380.00;0.55;-52.10;-5.03;0.40 
1.889;-0.04;0.06;0.58;-10.78;0.28;3.55;71.28;90.73;-377.00;0.58;-52.28;-4.78;0.17 
1.919;-0.10;0.09;0.62;-13.57;-0.42;3.83;69.30;94.55;-378.00;0.63;-52.43;-4.74;-0.07 
1.949;-0.10;0.15;0.64;-13.77;4.52;3.62;70.29;93.60;-378.00;0.66;-52.58;-4.76;-0.30 
1.979;-0.02;0.10;0.76;-16.07;14.96;-1.04;66.33;97.42;-377.00;0.77;-52.71;-5.08;-0.50 
2.009;-0.03;0.13;0.77;-21.50;-1.39;-9.32;61.38;95.51;-370.00;0.78;-52.65;-5.27;-0.93 
2.040;-0.04;0.10;0.71;-13.77;-13.77;-9.25;56.43;93.60;-374.00;0.72;-52.43;-4.92;-1.32 
2.070;-0.04;-0.02;0.73;-6.05;-20.24;-26.99;53.46;92.64;-367.00;0.73;-51.96;-4.38;-1.56 
2.100;0.00;-0.14;0.74;-3.41;-36.87;-47.86;49.50;83.09;-373.00;0.75;-50.90;-3.46;-1.81 
2.130;-0.04;-0.02;0.66;-13.22;-49.67;-70.96;41.58;78.32;-381.00;0.66;-49.19;-2.09;-2.15 
2.160;-0.07;0.18;0.64;-23.79;-43.83;-98.71;28.71;63.99;-378.00;0.67;-46.69;-0.48;-2.66 
2.189;-0.02;0.51;0.82;-17.39;-21.43;-99.06;10.89;50.62;-378.00;0.97;-43.65;0.50;-2.94 
2.219;-0.11;0.42;0.82;-10.37;-73.39;-63.10;-1.98;42.98;-381.00;0.93;-41.32;1.65;-2.91 
2.250;-0.10;0.19;0.46;-11.62;-108.66;-43.06;-16.83;16.24;-386.00;0.51;-39.84;4.45;-2.86 
2.280;-0.18;0.08;0.34;-23.10;-76.52;-14.89;-18.81;-4.78;-391.00;0.39;-39.03;7.09;-2.88 
2.310;-0.52;-0.49;0.71;-85.08;-47.10;64.63;-24.75;-13.37;-393.00;1.01;-39.61;8.27;-4.48 
2.341;-0.05;-0.49;0.96;-152.97;-36.17;36.80;-51.48;-11.46;-386.00;1.08;-41.18;8.86;-8.70 
2.371;0.50;-0.67;1.46;-96.49;67.76;-15.58;-73.26;-8.60;-378.00;1.68;-40.90;8.51;-12.74 
2.401;-0.08;-0.62;1.79;-56.42;-47.17;-73.39;-95.04;-8.60;-364.00;1.90;-39.05;8.55;-15.26 
2.431;-0.26;-0.32;1.26;-45.01;-117.08;-65.67;-112.86;-24.83;-366.00;1.33;-37.24;11.02;-16.35 
2.461;0.23;-0.23;0.96;-84.80;-167.23;-29.36;-140.58;-68.77;-366.00;1.01;-35.97;15.28;-17.71 
2.491;1.02;-1.45;1.55;-103.30;-148.66;-33.95;-157.41;-94.55;-362.00;2.35;-35.59;20.43;-20.42 
2.521;2.62;-3.07;2.48;-176.77;-171.97;-75.62;-188.10;-130.85;-359.00;4.74;-32.41;25.10;-23.05 
2.551;0.17;-0.50;1.13;-254.96;-227.13;-59.27;-226.71;-155.68;-329.00;1.25;-27.97;29.93;-28.95 
2.581;-0.35;0.46;0.54;-248.35;-72.00;-1.39;-262.35;-185.28;-281.00;0.79;-22.81;33.81;-34.64 
2.611;0.54;1.04;0.22;-205.77;-74.50;-77.77;-300.97;-202.48;-217.00;1.19;-14.68;35.66;-37.88 
2.641;0.93;-0.06;0.33;-138.78;-191.72;40.14;-307.90;-213.94;-196.00;0.99;-6.77;39.23;-40.13 
2.671;1.00;-0.65;-0.54;-112.07;-275.97;64.83;-323.74;-224.44;-149.00;1.31;-1.54;41.85;-43.12 
2.701;0.60;-1.43;-1.05;-145.81;-203.55;93.77;-336.61;-223.49;-119.00;1.87;11.12;42.52;-46.20 
2.731;0.62;-1.79;-0.95;-191.51;-85.91;40.56;-343.54;-211.07;-60.00;2.12;34.63;40.24;-49.72 
2.762;1.00;-1.30;-0.71;-93.43;-35.62;-20.87;-346.51;-205.34;-43.00;1.79;54.10;39.85;-49.92 
2.792;0.51;-0.46;-0.66;-10.78;-76.94;18.78;-344.53;-207.25;-12.00;0.95;63.29;39.91;-49.42 
2.822;0.18;-0.46;-0.78;48.00;-108.03;48.21;-341.56;-203.43;-4.00;0.92;74.02;38.16;-50.57 
2.853;0.22;-1.12;-0.81;48.00;-50.09;42.71;-340.57;-191.01;-16.00;1.40;83.81;35.72;-52.70 
2.883;0.10;-1.02;-0.55;-7.86;37.84;-10.16;-339.58;-190.06;-24.00;1.16;85.36;34.52;-53.90 
2.913;0.17;-0.43;-0.32;-48.56;86.54;-41.74;-338.59;-192.93;-19.00;0.56;79.60;35.21;-53.23 
2.943;0.70;-0.20;-0.13;-38.12;73.18;-37.77;-342.55;-198.66;-15.00;0.74;73.55;36.98;-51.54 
2.973;0.95;-0.54;-0.31;-22.12;-70.89;18.23;-343.54;-204.39;-1.00;1.14;74.07;37.83;-50.50 
3.003;0.68;-1.02;-0.91;-8.70;-85.01;30.05;-343.54;-197.70;5.00;1.53;83.29;36.38;-51.03 
3.033;0.32;-1.06;-1.07;28.59;0.63;16.42;-348.49;-194.84;4.00;1.54;88.51;34.96;-51.91 
3.064;0.36;-0.99;-0.79;29.91;61.08;0.77;-344.53;-192.93;0.00;1.32;85.85;34.60;-52.65 
3.094;0.74;-0.54;-0.61;28.59;64.56;-3.55;-345.52;-191.01;-7.00;1.10;79.80;35.09;-52.75 
3.124;0.77;-0.56;-0.32;38.89;59.13;26.43;-343.54;-191.01;-17.00;1.00;73.02;35.30;-53.12 
3.154;0.77;-0.66;-0.14;37.91;33.81;23.58;-343.54;-183.37;-27.00;1.02;65.78;34.89;-54.06 
3.184;0.65;-0.59;-0.05;40.21;-0.56;32.21;-343.54;-173.82;-38.00;0.88;61.65;34.31;-54.94 
3.214;0.51;-0.80;-0.10;42.09;-12.31;41.67;-341.56;-166.18;-49.00;0.95;58.82;33.19;-56.25 
3.244;0.45;-1.04;-0.13;43.06;-10.50;33.53;-342.55;-156.63;-62.00;1.14;56.01;31.84;-57.74 
3.275;0.30;-1.15;-0.09;42.23;0.28;20.87;-337.60;-152.81;-66.00;1.19;51.89;30.61;-59.12 
3.305;0.39;-1.18;-0.12;34.16;5.57;1.53;-334.63;-148.99;-76.00;1.25;46.43;30.05;-59.82 
3.335;0.42;-1.11;-0.14;20.94;2.99;8.56;-330.67;-146.13;-86.00;1.20;42.21;29.63;-60.30 
3.366;0.38;-1.02;-0.10;13.29;11.62;-4.31;-326.71;-143.26;-88.00;1.09;39.05;29.26;-60.71 
3.396;0.53;-0.86;0.04;1.32;33.95;-17.32;-326.71;-145.17;-89.00;1.01;35.72;29.47;-60.51 
3.426;0.70;-0.76;0.14;-3.55;24.14;-1.04;-329.68;-144.22;-92.00;1.04;32.24;29.96;-60.03 
3.456;0.58;-0.88;0.09;0.28;-4.59;6.96;-328.69;-145.17;-94.00;1.06;31.18;29.87;-60.13 
3.487;0.49;-0.97;0.00;-2.30;-5.70;2.16;-325.72;-142.31;-92.00;1.09;31.37;29.65;-60.35 
3.517;0.46;-0.99;-0.06;-5.22;-0.77;-5.36;-328.69;-144.22;-96.00;1.09;32.47;29.49;-60.51 
3.547;0.58;-0.91;-0.04;-14.82;13.22;-15.86;-327.70;-143.26;-92.00;1.08;34.02;29.62;-60.37 
3.577;0.62;-0.79;0.00;-17.39;2.85;-6.19;-327.70;-147.08;-88.00;1.00;35.69;29.88;-60.11 
3.607;0.58;-0.81;-0.11;-12.38;-26.09;4.52;-329.68;-147.08;-88.00;1.00;39.12;29.88;-60.07 
3.637;0.58;-0.86;-0.24;-10.37;-28.31;9.67;-333.64;-149.95;-82.00;1.06;44.22;29.65;-60.23 
3.667;0.50;-0.93;-0.25;-8.90;-14.75;10.99;-330.67;-146.13;-80.00;1.09;48.95;29.23;-60.57 
3.697;0.50;-0.98;-0.27;-5.43;-1.67;4.94;-330.67;-143.26;-81.00;1.13;51.96;28.84;-60.89 
3.727;0.51;-0.86;-0.26;-0.21;6.82;1.53;-331.66;-146.13;-77.00;1.03;52.97;28.65;-61.03 
3.756;0.54;-0.86;-0.17;2.37;10.50;3.90;-330.67;-144.22;-82.00;1.03;52.43;28.55;-61.14 
3.786;0.52;-0.87;-0.16;2.09;6.26;5.50;-331.66;-141.35;-77.00;1.03;51.56;28.39;-61.30 
3.815;0.48;-0.90;-0.13;0.70;0.49;4.94;-329.68;-141.35;-79.00;1.03;51.44;28.20;-61.49 
3.845;0.53;-0.92;-0.12;-0.07;-1.67;6.75;-328.69;-139.44;-78.00;1.07;51.77;27.97;-61.71 
3.876;0.51;-0.94;-0.14;-0.70;-5.22;6.47;-329.68;-137.53;-77.00;1.08;52.47;27.69;-61.97 
3.906;0.47;-0.94;-0.17;-0.77;-8.35;4.03;-327.70;-136.58;-82.00;1.06;53.88;27.42;-62.20 
3.936;0.49;-0.96;-0.20;-0.35;-5.50;2.50;-331.66;-139.44;-78.00;1.10;55.49;27.17;-62.40 
3.966;0.49;-0.92;-0.19;-0.14;-0.42;1.46;-330.67;-137.53;-77.00;1.06;56.71;27.03;-62.52 
3.996;0.50;-0.90;-0.22;0.21;4.66;-0.28;-329.68;-136.58;-76.00;1.05;57.20;26.95;-62.57 
4.026;0.48;-0.91;-0.14;-1.04;4.87;-1.46;-330.67;-134.67;-79.00;1.04;57.08;26.93;-62.59 
4.056;0.51;-0.95;-0.14;-2.64;1.46;-1.88;-331.66;-136.58;-78.00;1.09;57.23;26.93;-62.57 
4.087;0.50;-0.93;-0.18;-2.30;-2.78;-1.95;-329.68;-136.58;-78.00;1.07;58.11;26.93;-62.55 
4.117;0.51;-0.92;-0.17;-0.90;-2.85;-1.81;-332.65;-137.53;-75.00;1.07;59.40;26.92;-62.52 
4.146;0.51;-0.90;-0.16;-0.77;-0.28;-1.74;-332.65;-138.49;-78.00;1.05;60.38;26.93;-62.48 
4.175;0.51;-0.88;-0.21;-0.28;1.53;-2.43;-333.64;-139.44;-79.00;1.04;61.03;26.97;-62.42 
4.204;0.53;-0.92;-0.14;-1.18;1.39;-1.81;-329.68;-134.67;-78.00;1.07;61.52;27.00;-62.37 
4.233;0.50;-0.94;-0.22;1.11;-0.35;-0.83;-331.66;-140.40;-76.00;1.09;62.00;26.98;-62.37 
4.263;0.51;-0.91;-0.22;2.16;1.39;-1.88;-330.67;-138.49;-76.00;1.07;62.63;26.99;-62.35 
4.293;0.46;-0.91;-0.22;3.27;8.14;-0.49;-330.67;-143.26;-78.00;1.04;62.63;26.96;-62.38 
4.323;0.44;-0.94;-0.18;3.48;16.56;-5.77;-331.66;-140.40;-80.00;1.05;61.21;26.98;-62.39 
4.353;0.52;-0.98;-0.20;2.02;22.26;-8.49;-329.68;-142.31;-83.00;1.13;58.97;27.17;-62.26 
4.384;0.44;-0.95;-0.18;-1.18;28.52;-14.47;-332.65;-143.26;-83.00;1.06;56.19;27.50;-62.00 
4.414;0.42;-0.98;-0.17;-7.37;34.92;-21.08;-330.67;-145.17;-79.00;1.08;53.34;27.98;-61.58 
4.444;0.42;-0.97;-0.18;-8.28;37.77;-30.89;-329.68;-148.99;-78.00;1.07;51.24;28.68;-60.91 
4.475;0.45;-0.97;-0.13;0.42;42.30;-40.07;-331.66;-155.68;-79.00;1.08;48.64;29.69;-59.98 
4.505;0.51;-0.91;-0.06;5.43;39.65;-48.77;-329.68;-164.27;-79.00;1.04;45.98;31.04;-58.74 
4.535;0.55;-0.95;-0.03;10.30;26.64;-50.85;-333.64;-170.96;-85.00;1.10;43.87;32.48;-57.39 
4.565;0.63;-1.02;-0.12;2.23;19.34;-51.69;-331.66;-184.33;-86.00;1.20;43.22;33.92;-55.99 
4.596;0.66;-0.85;-0.22;0.49;21.36;-57.74;-334.63;-195.79;-85.00;1.10;43.70;35.56;-54.36 
4.626;0.69;-0.80;-0.27;4.87;29.50;-53.98;-329.68;-207.25;-90.00;1.09;44.07;37.30;-52.65 
4.656;0.63;-0.77;-0.28;7.17;40.14;-52.59;-331.66;-216.80;-90.00;1.03;43.53;38.85;-51.13 
4.687;0.61;-0.70;-0.27;16.00;53.08;-57.32;-331.66;-230.17;-94.00;0.97;41.85;40.51;-49.48 
4.716;0.65;-0.71;-0.22;28.31;66.64;-57.04;-325.72;-236.86;-104.00;0.99;38.99;42.13;-47.85 
4.746;0.71;-0.77;-0.08;35.13;73.95;-57.60;-321.76;-244.50;-116.00;1.05;34.93;43.59;-46.26 
4.776;0.73;-0.77;0.00;31.79;65.95;-53.77;-323.74;-252.14;-126.00;1.06;30.95;45.02;-44.53 
4.805;0.70;-0.78;0.01;29.08;64.07;-55.65;-318.79;-259.78;-136.00;1.05;27.86;46.31;-42.83 
4.834;0.90;-0.51;-0.05;23.03;78.54;-58.71;-313.84;-267.42;-154.00;1.04;25.90;47.53;-41.11 
4.864;0.95;-0.31;0.08;28.17;94.75;-40.83;-307.90;-271.24;-164.00;1.00;24.00;48.60;-39.31 
4.895;0.91;-0.39;0.34;36.66;86.47;-28.31;-301.96;-271.24;-171.00;1.05;20.84;48.86;-37.85 
4.925;0.93;-0.39;0.46;37.50;61.08;-14.05;-299.98;-266.47;-187.00;1.11;17.89;48.77;-36.62 
4.955;0.80;-0.37;0.40;38.26;59.69;-11.48;-291.06;-266.47;-207.00;0.97;15.26;48.39;-35.75 
4.986;0.74;-0.49;0.45;37.50;64.70;-7.51;-289.08;-260.74;-215.00;1.00;12.73;47.76;-34.94 
5.016;0.68;-0.45;0.50;36.59;71.44;-4.73;-282.15;-257.87;-225.00;0.96;10.41;46.85;-34.23 
5.046;0.66;-0.42;0.69;27.06;97.46;6.54;-281.16;-249.27;-237.00;1.04;8.13;45.36;-33.72 
5.076;0.64;-0.39;0.75;24.21;76.66;15.72;-278.19;-239.72;-247.00;1.06;6.11;43.40;-33.45 
5.106;0.58;-0.43;0.60;16.83;51.48;24.21;-279.18;-224.44;-250.00;0.94;4.26;41.54;-33.57 
5.136;0.72;-0.46;0.36;14.89;48.07;22.05;-278.19;-223.49;-257.00;0.93;2.80;40.03;-33.92 
5.166;0.64;-0.42;0.30;14.68;60.10;24.77;-274.23;-215.85;-262.00;0.82;1.66;38.63;-34.23 
5.197;0.59;-0.49;0.43;4.87;62.33;16.14;-273.24;-199.61;-265.00;0.88;0.77;36.98;-34.57 
5.227;0.69;-0.38;0.54;-1.32;45.43;20.52;-276.21;-191.97;-268.00;0.96;0.23;35.48;-34.98 
5.257;0.72;-0.41;0.51;13.57;36.45;26.30;-277.20;-182.42;-271.00;0.97;-0.50;34.35;-35.31 
5.287;0.60;-0.51;0.59;28.03;46.89;35.41;-271.26;-175.73;-272.00;0.98;-1.85;33.02;-35.48 
5.317;0.44;-0.55;0.77;30.19;33.74;51.62;-268.29;-158.54;-282.00;1.04;-4.02;31.10;-35.68 
5.347;0.36;-0.54;0.63;24.83;22.40;56.49;-264.33;-148.99;-285.00;0.90;-6.43;29.35;-36.12 
5.377;0.38;-0.44;0.63;23.30;46.61;51.27;-261.36;-136.58;-289.00;0.86;-8.65;27.49;-36.60 
5.408;0.31;-0.34;0.77;31.58;50.09;49.18;-257.40;-124.16;-292.00;0.90;-10.78;25.19;-36.74 
5.438;0.32;-0.35;0.73;40.83;33.95;52.10;-244.53;-106.97;-301.00;0.87;-13.12;23.17;-36.40 
5.468;0.41;-0.48;0.67;38.05;37.43;52.03;-235.62;-96.46;-302.00;0.92;-15.38;21.42;-36.05 
5.499;0.42;-0.53;0.70;31.30;47.58;50.85;-230.67;-85.00;-309.00;0.97;-17.47;19.46;-35.75 
5.529;0.24;-0.62;0.71;27.41;55.10;49.11;-223.74;-72.59;-309.00;0.97;-19.40;17.22;-35.55 
5.559;0.24;-0.69;0.77;10.50;64.70;39.79;-215.82;-50.62;-309.00;1.06;-20.78;15.00;-35.54 
5.589;0.34;-0.61;0.82;-1.11;67.90;35.97;-212.85;-41.07;-308.00;1.08;-21.60;12.90;-35.70 
5.620;0.18;-0.86;0.92;-12.17;74.57;20.10;-210.87;-28.65;-302.00;1.27;-22.05;10.59;-36.28 
5.650;0.14;-0.84;0.97;-3.48;50.16;2.85;-209.88;-16.24;-298.00;1.29;-21.97;8.74;-36.70 
5.680;-0.04;-0.77;0.77;-7.58;27.13;-10.57;-209.88;-9.55;-292.00;1.09;-21.70;7.94;-36.86 
5.711;0.00;-0.57;0.83;-16.07;31.93;-24.14;-209.88;-7.64;-286.00;1.01;-20.98;7.37;-37.28 
5.740;0.06;-0.42;0.88;-24.28;22.75;-6.75;-215.82;-6.69;-285.00;0.98;-20.23;7.02;-37.76 
5.770;0.02;-0.51;0.96;-21.43;18.64;3.97;-220.77;-7.64;-276.00;1.09;-19.94;6.45;-38.33 
5.800;0.07;-0.62;0.86;-20.17;2.50;15.30;-222.75;-0.96;-275.00;1.06;-20.04;5.98;-38.91 
5.830;0.06;-0.77;0.82;-28.10;-4.73;20.94;-224.73;-0.96;-272.00;1.13;-20.39;5.65;-39.68 
5.860;0.02;-0.73;0.76;-36.17;-1.67;24.90;-227.70;4.78;-269.00;1.05;-20.71;5.35;-40.76 
5.890;0.00;-0.73;0.73;-32.14;16.42;34.23;-225.72;6.69;-265.00;1.03;-21.19;4.60;-42.04 
5.921;-0.08;-0.75;0.78;-28.52;32.28;43.13;-223.74;21.01;-254.00;1.09;-21.97;3.17;-43.16 
5.951;-0.12;-0.70;0.80;-33.46;32.00;53.08;-222.75;28.65;-249.00;1.07;-23.04;1.30;-44.16 
5.981;-0.18;-0.66;0.73;-37.01;18.37;52.94;-221.76;38.20;-241.00;1.00;-24.31;-0.51;-45.19 
6.011;-0.14;-0.55;0.65;-34.99;21.91;51.62;-220.77;46.80;-236.00;0.86;-25.53;-2.14;-46.19 
6.041;-0.17;-0.50;0.65;-39.23;39.37;60.52;-215.82;60.17;-221.00;0.84;-26.87;-4.11;-47.05 
6.071;-0.16;-0.61;0.62;-48.14;47.30;66.78;-210.87;74.50;-214.00;0.88;-28.26;-6.45;-48.00 
6.101;-0.16;-0.55;0.63;-60.17;32.97;58.71;-205.92;85.00;-200.00;0.85;-29.41;-8.77;-49.07 
6.132;-0.14;-0.42;0.46;-62.54;25.60;61.15;-203.94;94.55;-183.00;0.64;-30.59;-10.74;-50.32 
6.162;-0.21;-0.51;0.34;-69.91;18.64;71.23;-194.04;110.79;-172.00;0.65;-31.99;-12.94;-51.54 
6.191;-0.20;-0.62;0.18;-64.97;21.15;75.06;-194.04;123.20;-160.00;0.68;-33.39;-15.07;-52.62 
6.222;-0.25;-0.66;0.21;-52.87;35.62;66.02;-180.18;134.67;-150.00;0.74;-34.69;-17.34;-53.42 
6.252;-0.22;-0.55;0.23;-44.45;40.35;57.95;-171.27;145.17;-142.00;0.64;-35.73;-19.55;-53.87 
6.282;-0.29;-0.46;0.26;-31.30;43.83;61.22;-155.43;158.54;-122.00;0.60;-36.88;-21.80;-53.78 
6.312;-0.26;-0.51;0.34;-17.11;39.65;51.48;-146.52;168.09;-113.00;0.67;-38.13;-24.00;-53.16 
6.342;-0.26;-0.62;0.43;-4.45;15.51;49.04;-137.61;175.73;-110.00;0.80;-39.39;-25.81;-52.33 
6.372;-0.36;-0.82;0.33;1.67;-13.77;33.95;-129.69;179.55;-109.00;0.95;-40.65;-26.97;-51.46 
6.402;-0.38;-0.97;0.32;3.34;-25.39;5.98;-121.77;182.42;-117.00;1.09;-41.45;-27.31;-51.00 
6.433;-0.42;-0.94;0.34;3.13;-47.93;-16.35;-123.75;179.55;-122.00;1.08;-41.43;-26.54;-51.28 
6.463;-0.66;-0.87;0.43;5.50;-54.89;-23.44;-126.72;176.69;-131.00;1.17;-41.45;-25.37;-51.61 
6.493;-0.38;-0.78;0.60;19.55;-44.10;-22.05;-127.71;173.82;-139.00;1.05;-41.32;-24.03;-51.82 
6.523;-0.45;-0.76;0.67;24.70;-80.90;7.37;-135.63;170.00;-161.00;1.11;-41.95;-22.79;-51.33 
6.553;-0.62;-0.52;0.46;29.29;-63.79;26.23;-128.70;163.32;-176.00;0.93;-43.75;-22.00;-50.22 
6.582;-0.54;-0.58;0.51;39.17;-8.07;47.51;-115.83;166.18;-186.00;0.94;-45.83;-22.50;-48.59 
6.612;-0.46;-0.60;0.82;26.78;2.16;52.52;-107.91;171.91;-190.00;1.12;-47.89;-23.81;-46.67 
6.642;-0.33;-0.66;0.82;13.36;-38.26;45.22;-101.97;175.73;-193.00;1.10;-49.98;-24.55;-45.11 
6.672;-0.33;-0.70;0.77;10.23;-45.50;33.04;-85.14;177.64;-209.00;1.09;-51.90;-24.56;-44.04 
6.702;-0.27;-0.57;0.84;33.67;-61.63;23.58;-78.21;177.64;-219.00;1.05;-53.64;-24.06;-42.97 
6.733;-0.26;-0.54;0.90;58.64;-83.97;22.33;-73.26;173.82;-234.00;1.08;-55.87;-22.91;-41.20 
6.763;-0.30;-0.44;0.86;63.44;-88.42;25.04;-60.39;166.18;-249.00;1.01;-58.46;-21.37;-38.98 
6.793;-0.26;-0.45;0.75;64.77;-78.61;27.34;-44.55;154.72;-280.00;0.91;-60.99;-19.87;-36.71 
6.823;-0.31;-0.41;0.77;66.37;-66.57;28.66;-30.69;147.08;-294.00;0.93;-63.37;-18.62;-34.43 
6.853;-0.33;-0.45;0.80;65.18;-60.10;28.73;-18.81;147.08;-310.00;0.98;-65.64;-17.53;-32.13 
6.883;-0.24;-0.48;0.77;68.66;-64.14;25.18;-1.98;137.53;-324.00;0.94;-67.67;-16.38;-29.92 
6.913;-0.20;-0.51;0.77;69.91;-70.12;20.31;17.82;126.07;-342.00;0.94;-69.54;-14.91;-27.69 
6.944;-0.20;-0.42;0.70;71.58;-76.87;12.80;31.68;116.52;-359.00;0.84;-71.27;-13.05;-25.48 
6.974;-0.16;-0.38;0.72;70.19;-64.07;9.67;42.57;106.01;-367.00;0.83;-72.74;-11.14;-23.28 
7.004;-0.12;-0.36;0.73;67.76;-49.67;13.08;51.48;102.19;-376.00;0.82;-73.85;-9.59;-21.20 
7.035;-0.06;-0.23;0.80;63.65;-43.48;15.79;76.23;86.91;-393.00;0.83;-74.96;-8.29;-19.10 
7.065;0.00;-0.40;0.90;63.10;-29.29;17.95;94.05;79.27;-398.00;0.98;-76.05;-7.18;-17.10 
7.095;0.04;-0.47;1.07;61.29;-25.46;9.60;104.94;76.41;-401.00;1.17;-76.81;-6.37;-15.30 
7.125;0.00;-0.48;1.19;67.48;-44.10;-0.56;120.78;70.68;-409.00;1.28;-77.47;-5.12;-13.37 
7.156;-0.02;-0.30;1.19;55.79;-40.21;-32.77;136.62;60.17;-417.00;1.23;-77.41;-3.55;-11.62 
7.186;0.01;0.00;1.07;55.30;-36.10;-53.98;139.59;49.66;-418.00;1.07;-76.45;-2.01;-10.05 
7.216;-0.02;0.02;1.02;40.07;-40.83;-45.01;140.58;44.89;-426.00;1.02;-75.26;-0.55;-8.49 
7.247;-0.03;0.17;0.97;19.90;-30.89;-27.13;141.57;35.34;-426.00;0.99;-74.32;0.86;-7.59 
7.277;0.04;0.17;0.88;16.14;-7.79;-12.87;143.55;26.74;-429.00;0.90;-73.95;1.67;-7.04 
7.307;0.04;0.09;0.94;16.56;21.29;-12.03;143.55;28.65;-427.00;0.95;-73.62;1.71;-6.36 
7.337;-0.03;0.07;1.00;17.04;33.67;-8.42;151.47;32.47;-422.00;1.00;-73.33;1.02;-5.63 
7.367;-0.04;0.07;1.03;3.27;28.24;-12.94;149.49;39.16;-423.00;1.03;-73.00;0.09;-5.13 
7.396;0.00;0.02;0.92;-4.31;22.47;-7.58;147.51;42.98;-419.00;0.92;-72.71;-0.53;-4.99 
7.426;0.00;0.03;0.88;-4.03;33.53;-5.08;142.56;49.66;-413.00;0.88;-72.49;-1.17;-5.10 
7.457;-0.04;0.05;0.90;0.07;44.52;-6.19;144.54;54.44;-412.00;0.90;-72.32;-2.26;-5.04 
7.487;-0.03;0.03;0.92;9.95;47.72;-9.60;140.58;63.99;-407.00;0.92;-72.09;-3.59;-4.82 
7.517;-0.05;0.00;0.94;15.72;44.87;-9.81;145.53;71.63;-397.00;0.94;-71.78;-4.80;-4.34 
7.548;-0.26;0.03;0.90;9.67;42.71;-9.18;144.54;81.18;-396.00;0.94;-71.51;-6.12;-3.86 
7.578;-0.32;0.09;0.80;-0.77;44.31;-9.25;144.54;85.96;-392.00;0.87;-71.30;-7.46;-3.60 
7.608;-0.30;0.21;0.78;-8.83;51.13;-7.23;140.58;91.69;-385.00;0.86;-71.12;-8.89;-3.59 
7.637;-0.38;0.25;0.86;-5.98;64.90;-4.45;137.61;107.92;-376.00;0.97;-71.02;-10.68;-3.57 
7.666;-0.30;0.22;0.96;5.01;69.84;8.97;139.59;115.56;-365.00;1.03;-71.19;-12.76;-3.33 
7.695;-0.20;0.22;1.03;16.83;56.42;10.09;141.57;123.20;-361.00;1.07;-71.66;-14.61;-2.72 
7.725;-0.10;0.26;1.02;20.45;24.70;17.95;144.54;129.89;-351.00;1.06;-72.19;-15.73;-1.81 
7.756;-0.12;0.31;0.79;13.91;-2.30;25.74;147.51;130.85;-346.00;0.86;-73.01;-15.85;-0.71 
7.786;-0.18;0.26;0.52;0.28;-6.61;23.79;161.37;130.85;-352.00;0.61;-73.94;-15.52;0.12 
7.816;-0.10;0.18;0.42;-8.07;-12.17;15.17;160.38;131.80;-356.00;0.47;-74.68;-15.11;0.55 
7.846;-0.06;0.06;0.33;-5.77;-13.50;8.90;164.34;130.85;-358.00;0.34;-75.15;-14.59;0.70 
7.876;-0.08;-0.02;0.30;-0.97;-17.88;-2.23;166.32;131.80;-358.00;0.31;-75.33;-13.99;0.78 
7.906;-0.21;-0.18;0.46;-8.28;-31.37;-13.70;160.38;126.07;-366.00;0.54;-75.06;-13.30;0.46 
7.936;-0.59;-0.42;0.59;-32.00;-47.93;-2.71;157.41;122.25;-374.00;0.93;-74.77;-12.23;-0.47 
7.967;-0.98;-0.46;0.77;-38.26;-6.26;-50.30;153.45;115.56;-374.00;1.33;-74.35;-11.47;-2.02 
7.997;0.00;0.19;0.90;-23.86;155.97;-119.44;141.57;120.34;-371.00;0.92;-71.45;-13.53;-3.71 
8.027;-0.09;0.68;1.58;30.33;95.44;-16.56;115.83;155.68;-339.00;1.72;-69.26;-17.92;-3.83 
8.058;-0.30;0.12;1.41;18.92;-45.15;12.94;119.79;158.54;-334.00;1.45;-69.61;-18.67;-3.21 
8.088;-0.15;0.02;0.89;16.56;-73.32;-1.32;125.73;148.99;-346.00;0.90;-69.71;-16.64;-2.55 
8.118;-0.09;-0.12;0.73;7.44;-52.80;-5.29;123.75;140.40;-355.00;0.75;-69.59;-14.40;-2.10 
8.148;-0.10;-0.20;0.59;-10.78;-28.38;-15.79;127.71;130.85;-363.00;0.63;-69.27;-13.01;-2.34 
8.178;-0.18;-0.16;0.58;-13.22;0.63;-24.35;119.79;128.94;-368.00;0.63;-68.68;-12.32;-3.05 
8.208;-0.26;-0.09;0.77;-3.41;41.04;-39.65;118.80;128.94;-364.00;0.82;-67.83;-12.87;-3.61 
8.238;-0.21;0.03;1.07;8.77;45.98;-42.43;106.92;137.53;-358.00;1.09;-66.65;-14.12;-3.83 
8.269;-0.18;0.10;1.26;17.74;-14.12;-21.01;102.96;140.40;-352.00;1.28;-65.71;-14.58;-3.53 
8.298;-0.17;0.00;1.02;21.15;-55.93;-11.06;104.94;133.71;-357.00;1.03;-65.29;-13.36;-2.98 
8.328;-0.13;-0.07;0.82;17.88;-52.59;-15.23;108.90;124.16;-365.00;0.83;-64.88;-11.56;-2.46 
8.358;-0.15;-0.14;0.71;14.12;-31.86;-18.23;108.90;116.52;-373.00;0.74;-64.38;-10.12;-2.12 
8.388;-0.14;-0.15;0.70;14.40;-4.87;-32.35;104.94;112.70;-377.00;0.73;-63.65;-9.43;-1.93 
