Time(s) acc_x(g) acc_y(g) acc_z(g) gyr_x(°/s) gyr_y(°/s) gyr_z(°/s) mag_x(G) mag_y(G) mag_z(G) SVM(g) yaw(°) pitch(°) roll(°)
0.000;-0.26;0.04;0.74;-15.30;19.90;19.41;-41.93;-239.57;-403.00;0.79;-177.03;-20.14;5.06 
0.030;-0.30;0.03;0.76;-12.59;22.54;12.31;-40.93;-235.74;-401.00;0.82;-177.62;-20.76;4.69 
0.060;-0.30;0.14;0.76;-9.04;16.56;12.94;-45.92;-230.95;-398.00;0.83;-178.00;-21.30;4.45 
0.090;-0.30;0.13;0.81;-2.64;13.57;19.62;-48.92;-225.20;-398.00;0.87;-178.48;-21.66;4.41 
0.121;-0.34;0.06;0.87;8.97;10.43;26.30;-46.92;-219.45;-400.00;0.94;-179.07;-21.90;4.64 
0.151;-0.39;0.10;0.82;17.88;-5.29;22.96;-39.93;-216.58;-396.00;0.91;-179.60;-21.94;5.19 
0.181;-0.38;0.14;0.74;17.53;-9.04;18.23;-36.94;-211.78;-403.00;0.84;-179.92;-21.64;5.92 
0.212;-0.34;0.10;0.73;7.03;2.99;0.90;-29.95;-218.49;-399.00;0.81;-179.99;-21.51;6.35 
0.242;-0.33;0.06;0.65;3.48;10.02;-3.76;-29.95;-212.74;-400.00;0.73;-179.81;-21.77;6.41 
0.272;-0.26;0.05;0.64;2.99;12.38;-8.49;-27.95;-210.83;-395.00;0.69;-179.46;-22.06;6.29 
0.302;-0.37;0.00;0.66;7.86;39.44;-6.47;-27.95;-206.99;-396.00;0.76;-179.07;-22.81;6.26 
0.331;-0.74;0.03;0.65;5.50;67.62;-10.64;-28.95;-198.37;-393.00;0.99;-178.66;-24.55;6.21 
0.360;-0.49;0.06;0.90;-15.65;86.96;-33.81;-29.95;-184.95;-386.00;1.03;-177.95;-27.16;5.76 
0.390;-0.63;0.22;0.84;-19.41;41.04;-28.24;-35.94;-166.74;-374.00;1.07;-177.21;-29.17;4.77 
0.421;-0.71;0.20;0.72;-8.97;43.06;-22.61;-39.93;-159.08;-370.00;1.03;-176.58;-30.54;3.95 
0.451;-0.74;0.13;0.78;-9.88;64.90;-16.83;-43.93;-151.41;-365.00;1.08;-176.02;-32.37;3.28 
0.481;-0.74;0.18;0.89;-1.04;59.69;-14.19;-47.92;-142.79;-361.00;1.17;-175.54;-34.46;2.80 
0.512;-0.64;0.30;0.71;7.93;47.86;0.77;-49.92;-125.54;-357.00;1.00;-175.06;-36.14;2.75 
0.542;-0.62;0.23;0.61;2.64;59.55;10.78;-47.92;-114.04;-354.00;0.90;-175.01;-37.81;3.09 
0.572;-0.65;0.06;0.57;-2.50;69.36;-2.23;-45.92;-101.58;-347.00;0.87;-175.00;-39.82;3.11 
0.602;-0.62;0.05;0.58;-5.15;60.59;-12.03;-44.92;-90.08;-346.00;0.85;-174.69;-41.87;2.70 
0.631;-0.56;0.20;0.44;-7.30;45.98;-6.05;-49.92;-75.71;-339.00;0.74;-174.40;-43.56;2.29 
0.661;-0.58;0.28;0.37;-9.74;48.21;-3.62;-54.91;-70.91;-336.00;0.74;-174.38;-45.06;2.10 
0.691;-0.63;0.18;0.36;-7.86;54.33;-6.82;-57.90;-65.16;-333.00;0.75;-174.41;-46.73;1.91 
0.722;-0.60;0.08;0.39;-6.54;45.84;-18.57;-57.90;-60.37;-330.00;0.72;-174.09;-48.34;1.43 
0.752;-0.51;0.02;0.37;-3.62;31.79;-28.73;-67.89;-55.58;-320.00;0.63;-173.50;-49.64;0.62 
0.782;-0.62;-0.03;0.20;-15.17;24.07;-35.13;-78.87;-56.54;-319.00;0.65;-172.77;-50.44;-0.42 
0.812;-0.68;-0.10;0.36;-1.32;70.19;-61.01;-90.85;-57.50;-313.00;0.78;-171.66;-51.94;-1.89 
0.842;-0.84;0.13;0.58;4.66;82.85;-56.83;-95.84;-52.71;-304.00;1.03;-169.41;-54.24;-3.70 
0.872;-1.02;0.22;0.59;9.81;57.11;-15.30;-105.82;-46.96;-292.00;1.20;-167.79;-56.17;-4.55 
0.902;-0.87;0.00;0.56;20.45;37.91;5.84;-104.82;-42.17;-282.00;1.03;-166.77;-57.57;-4.53 
0.933;-0.74;-0.12;0.44;17.60;17.95;8.35;-98.83;-35.46;-286.00;0.87;-166.14;-58.35;-4.22 
0.963;-0.90;-0.19;0.26;2.02;41.53;-2.43;-98.83;-33.54;-284.00;0.96;-165.99;-59.04;-4.30 
0.993;-1.02;-0.07;0.38;0.49;73.46;-19.62;-98.83;-25.87;-274.00;1.09;-165.19;-60.83;-4.84 
1.024;-0.98;0.09;0.50;-2.43;60.52;-8.21;-100.83;-23.00;-267.00;1.10;-164.02;-62.78;-5.51 
1.054;-0.96;0.05;0.31;-10.23;54.75;8.77;-104.82;-14.37;-255.00;1.01;-164.02;-64.39;-5.68 
1.084;-1.05;0.00;0.32;-9.95;74.30;15.37;-104.82;-8.62;-247.00;1.10;-164.46;-66.30;-5.73 
1.114;-1.09;0.00;0.40;-11.27;56.97;17.46;-98.83;0.96;-230.00;1.16;-165.10;-68.31;-5.58 
1.145;-1.10;-0.06;0.32;-11.69;44.73;6.96;-98.83;11.50;-224.00;1.15;-166.29;-69.85;-5.51 
1.175;-1.06;0.03;0.30;-10.16;33.18;-1.32;-98.83;10.54;-213.00;1.10;-167.28;-70.93;-5.86 
1.205;-1.15;0.06;0.13;-5.50;33.04;6.96;-101.83;12.46;-208.00;1.16;-168.32;-71.79;-6.05 
1.236;-1.21;0.02;0.27;-8.90;21.29;-10.78;-100.83;15.33;-196.00;1.24;-169.55;-72.70;-6.34 
1.266;-1.12;0.09;0.26;-4.87;12.10;-9.67;-104.82;14.37;-189.00;1.15;-170.88;-72.97;-6.92 
1.296;-1.06;-0.02;0.25;-0.35;11.06;-11.62;-106.82;15.33;-188.00;1.09;-171.88;-73.12;-7.37 
1.326;-1.07;0.07;0.22;1.04;1.88;-12.52;-107.82;17.25;-187.00;1.09;-172.71;-73.06;-7.94 
1.356;-1.02;0.01;0.18;4.31;1.88;-4.24;-109.82;14.37;-187.00;1.04;-173.54;-72.96;-8.30 
1.386;-1.05;0.06;0.20;3.55;4.45;-7.03;-111.81;16.29;-184.00;1.07;-174.17;-72.94;-8.56 
1.416;-1.05;0.02;0.19;2.30;-0.49;-4.80;-109.82;14.37;-182.00;1.07;-175.04;-72.87;-8.83 
1.447;-1.05;0.00;0.22;5.70;-1.32;-5.98;-107.82;14.37;-183.00;1.07;-175.80;-72.70;-9.14 
1.477;-1.04;0.02;0.22;6.33;-0.28;-3.69;-109.82;15.33;-185.00;1.06;-176.31;-72.58;-9.39 
1.507;-1.04;0.02;0.19;4.87;0.70;0.21;-111.81;11.50;-187.00;1.06;-176.97;-72.53;-9.54 
1.537;-1.03;0.00;0.22;3.62;-1.04;0.35;-108.82;11.50;-188.00;1.05;-177.82;-72.50;-9.61 
1.566;-1.02;0.00;0.19;3.27;-3.41;2.64;-112.81;17.25;-189.00;1.04;-178.76;-72.44;-9.65 
1.595;-1.02;0.00;0.22;2.78;-1.88;3.55;-109.82;15.33;-189.00;1.04;-179.75;-72.40;-9.66 
1.624;-1.02;0.00;0.20;2.02;0.63;0.35;-106.82;14.37;-192.00;1.04;179.23;-72.38;-9.69 
1.653;-1.02;0.00;0.19;3.27;0.97;-0.07;-109.82;14.37;-189.00;1.04;178.29;-72.36;-9.82 
1.683;-1.02;0.02;0.23;2.85;1.11;-1.32;-107.82;12.46;-190.00;1.05;177.50;-72.31;-9.98 
1.713;-1.02;0.02;0.19;1.95;0.21;-2.92;-109.82;14.37;-189.00;1.04;176.54;-72.26;-10.16 
1.744;-1.06;0.00;0.18;2.71;1.11;-3.27;-109.82;11.50;-189.00;1.08;175.59;-72.16;-10.38 
1.774;-1.07;0.00;0.22;2.99;0.14;-7.44;-107.82;13.42;-191.00;1.09;174.87;-71.94;-10.77 
1.804;-1.10;0.02;0.23;3.69;-4.73;-8.35;-108.82;11.50;-192.00;1.12;174.34;-71.60;-11.24 
1.833;-1.07;0.01;0.25;3.34;-10.99;-10.92;-111.81;9.58;-191.00;1.10;173.94;-71.24;-11.55 
1.863;-1.05;0.00;0.22;4.80;-9.39;-10.57;-112.81;9.58;-192.00;1.07;173.63;-70.77;-11.89 
1.893;-1.10;0.00;0.30;4.66;-9.04;-17.39;-116.80;6.71;-197.00;1.14;173.46;-70.23;-12.39 
1.923;-1.11;0.00;0.37;3.90;-25.95;-22.12;-118.80;3.83;-197.00;1.17;173.53;-69.35;-13.17 
1.953;-1.09;0.00;0.40;7.79;-49.18;-13.77;-121.80;-1.92;-206.00;1.16;174.02;-68.06;-13.72 
1.983;-1.02;-0.02;0.32;11.13;-58.02;-1.11;-122.79;-6.71;-217.00;1.07;174.67;-66.61;-13.86 
2.013;-0.98;0.00;0.38;11.76;-60.73;-10.99;-123.79;-14.37;-228.00;1.05;175.61;-64.93;-14.14 
2.044;-0.97;-0.02;0.47;14.68;-70.33;-8.07;-126.79;-18.21;-238.00;1.08;176.54;-62.98;-14.54 
2.073;-0.93;0.00;0.42;16.49;-73.39;-3.27;-124.79;-30.67;-254.00;1.02;177.40;-60.96;-14.57 
2.103;-0.88;-0.02;0.46;15.03;-70.54;-2.09;-121.80;-34.50;-271.00;0.99;178.08;-59.08;-14.48 
2.132;-0.88;0.01;0.47;12.38;-67.97;-2.16;-120.80;-48.87;-287.00;1.00;178.62;-57.19;-14.41 
2.162;-0.86;0.01;0.51;11.20;-66.43;2.78;-118.80;-52.71;-294.00;1.00;178.94;-55.35;-14.25 
2.192;-0.86;0.00;0.58;9.67;-67.13;9.39;-116.80;-62.29;-304.00;1.04;179.05;-53.53;-14.12 
2.222;-0.83;0.00;0.58;8.28;-65.88;12.94;-112.81;-68.04;-309.00;1.01;178.90;-51.75;-13.76 
2.252;-0.78;-0.02;0.67;9.11;-61.43;16.77;-109.82;-79.54;-319.00;1.03;178.65;-50.02;-13.46 
2.282;-0.80;-0.02;0.67;9.04;-71.17;14.33;-102.83;-84.33;-327.00;1.04;178.46;-48.28;-12.93 
2.311;-0.70;0.02;0.71;8.90;-76.80;9.25;-97.84;-97.75;-334.00;1.00;178.38;-46.24;-12.69 
2.342;-0.70;0.03;0.71;7.79;-76.17;6.26;-97.84;-103.50;-341.00;1.00;178.43;-44.03;-12.36 
2.372;-0.62;0.06;0.70;7.37;-74.09;4.38;-92.84;-117.87;-350.00;0.94;178.48;-41.82;-12.02 
2.402;-0.54;0.06;0.66;6.26;-70.26;3.41;-88.85;-136.08;-353.00;0.85;178.58;-39.70;-11.74 
2.432;-0.54;0.06;0.64;5.63;-64.35;3.62;-85.86;-146.62;-355.00;0.84;178.65;-37.69;-11.46 
2.462;-0.53;0.05;0.59;6.33;-52.59;4.94;-85.86;-159.08;-361.00;0.79;178.68;-35.92;-11.16 
2.492;-0.49;0.05;0.66;5.63;-47.10;2.99;-83.86;-166.74;-363.00;0.82;178.71;-34.48;-10.86 
2.522;-0.49;0.04;0.65;7.03;-45.57;0.42;-82.86;-185.91;-372.00;0.81;178.82;-33.11;-10.62 
2.553;-0.42;0.03;0.62;6.26;-42.85;-0.77;-81.86;-192.62;-378.00;0.75;178.96;-31.77;-10.39 
2.583;-0.44;0.06;0.63;8.42;-42.43;-2.64;-79.87;-202.20;-382.00;0.77;179.19;-30.46;-10.15 
2.613;-0.41;0.06;0.61;10.85;-38.96;-2.30;-77.87;-211.78;-388.00;0.74;179.46;-29.30;-9.83 
2.644;-0.40;0.02;0.59;8.14;-34.71;-2.30;-78.87;-225.20;-393.00;0.71;179.69;-28.21;-9.50 
2.674;-0.41;0.06;0.67;7.23;-32.35;-5.50;-77.87;-229.99;-396.00;0.79;179.95;-27.16;-9.27 
2.704;-0.42;0.06;0.70;6.12;-30.05;-8.14;-76.87;-238.62;-399.00;0.82;-179.72;-26.22;-9.11 
2.734;-0.40;0.09;0.74;7.23;-30.61;-6.47;-76.87;-244.37;-401.00;0.85;-179.37;-25.30;-8.94 
2.764;-0.43;0.08;0.76;7.58;-37.36;-2.85;-72.88;-254.91;-406.00;0.88;-179.11;-24.24;-8.69 
2.794;-0.36;0.09;0.66;4.17;-36.59;-2.85;-74.87;-263.53;-403.00;0.76;-178.91;-23.16;-8.46 
2.824;-0.33;0.08;0.60;3.06;-26.16;-1.60;-71.88;-269.28;-409.00;0.69;-178.77;-22.23;-8.27 
2.855;-0.34;0.04;0.61;2.09;-7.58;-2.50;-70.88;-276.95;-409.00;0.70;-178.65;-21.74;-8.13 
2.885;-0.32;0.00;0.68;-0.14;4.87;-5.01;-71.88;-276.95;-413.00;0.75;-178.51;-21.71;-8.11 
2.915;-0.39;0.01;0.73;-0.42;12.94;-6.96;-72.88;-278.86;-407.00;0.83;-178.31;-21.94;-8.16 
2.945;-0.42;0.05;0.78;-1.18;15.65;-9.60;-73.88;-275.99;-408.00;0.89;-178.06;-22.36;-8.25 
2.975;-0.39;0.07;0.82;-2.37;11.76;-10.99;-74.87;-275.03;-405.00;0.91;-177.74;-22.78;-8.36 
3.005;-0.44;0.10;0.82;-4.59;8.63;-10.02;-71.88;-274.07;-408.00;0.94;-177.44;-23.03;-8.53 
3.035;-0.41;0.10;0.78;-4.31;13.50;-6.47;-77.87;-268.32;-409.00;0.89;-177.23;-23.30;-8.67 
3.066;-0.42;0.10;0.81;-1.81;19.90;-1.53;-76.87;-269.28;-406.00;0.92;-177.12;-23.78;-8.71 
3.096;-0.42;0.01;0.86;0.00;18.92;-1.74;-75.87;-265.45;-407.00;0.96;-177.08;-24.37;-8.72 
3.126;-0.46;-0.03;0.86;2.71;6.75;-6.19;-76.87;-260.66;-406.00;0.98;-176.94;-24.72;-8.82 
3.157;-0.36;0.00;0.87;2.92;-8.90;-12.17;-73.88;-260.66;-403.00;0.94;-176.64;-24.58;-8.96 
3.187;-0.33;0.06;0.77;3.34;-6.05;-13.70;-74.87;-263.53;-404.00;0.84;-176.20;-24.18;-9.01 
3.217;-0.34;0.12;0.81;3.55;2.30;-10.92;-75.87;-269.28;-407.00;0.89;-175.75;-23.99;-9.01 
3.247;-0.36;0.13;0.86;3.06;1.88;-5.50;-75.87;-269.28;-405.00;0.94;-175.47;-23.98;-8.90 
3.278;-0.40;0.13;0.82;2.43;-0.83;-0.42;-74.87;-268.32;-406.00;0.92;-175.34;-23.92;-8.76 
3.308;-0.37;0.10;0.83;1.04;-3.90;3.55;-72.88;-268.32;-409.00;0.91;-175.36;-23.82;-8.59 
3.338;-0.34;0.12;0.81;-0.63;-4.17;6.47;-74.87;-270.24;-405.00;0.89;-175.52;-23.67;-8.44 
3.368;-0.34;0.08;0.83;-1.11;-0.28;7.72;-74.87;-268.32;-408.00;0.90;-175.77;-23.58;-8.28 
3.397;-0.38;0.06;0.84;-1.67;1.81;7.10;-73.88;-267.37;-407.00;0.92;-176.03;-23.58;-8.15 
3.426;-0.38;0.07;0.83;-2.30;-2.64;7.17;-73.88;-268.32;-407.00;0.92;-176.27;-23.56;-8.07 
3.456;-0.36;0.06;0.86;-1.67;-4.31;5.70;-72.88;-272.16;-406.00;0.93;-176.49;-23.43;-8.00 
3.486;-0.35;0.06;0.86;-0.83;-2.09;4.59;-74.87;-269.28;-407.00;0.93;-176.69;-23.34;-7.94 
3.516;-0.34;0.05;0.86;-0.28;1.25;1.32;-73.88;-269.28;-408.00;0.93;-176.81;-23.30;-7.86 
3.546;-0.36;0.02;0.80;-0.35;-0.14;-0.97;-71.88;-268.32;-408.00;0.88;-176.83;-23.27;-7.82 
3.577;-0.38;0.06;0.79;0.77;-0.56;-2.71;-75.87;-270.24;-407.00;0.88;-176.78;-23.24;-7.78 
