Time(s) acc_x(g) acc_y(g) acc_z(g) gyr_x(°/s) gyr_y(°/s) gyr_z(°/s) mag_x(G) mag_y(G) mag_z(G) SVM(g) yaw(°) pitch(°) roll(°)
0.000;-0.26;0.18;0.75;14.89;22.26;-54.61;-50.87;-75.79;-278.00;0.81;118.20;-22.17;19.37 
0.030;-0.39;0.16;0.90;18.64;16.90;-41.74;-61.84;-78.67;-275.00;0.99;119.59;-23.12;19.42 
0.060;-0.54;0.06;0.94;20.80;-4.10;-41.39;-62.84;-77.71;-276.00;1.09;120.91;-23.73;19.57 
0.090;-0.44;0.10;0.86;13.98;-32.21;-34.64;-65.83;-86.35;-277.00;0.97;122.56;-23.54;19.63 
0.120;-0.27;0.02;0.77;15.30;-28.03;-35.06;-74.81;-94.02;-283.00;0.82;124.26;-22.87;19.64 
0.149;-0.44;0.00;0.70;24.42;-4.24;-39.65;-77.80;-101.70;-288.00;0.83;125.82;-22.61;19.73 
0.178;-0.67;0.05;0.78;33.67;18.57;-45.57;-78.80;-101.70;-290.00;1.03;127.20;-23.23;19.96 
0.208;-1.00;0.10;0.86;39.10;23.37;-26.09;-80.79;-105.54;-291.00;1.32;128.34;-24.38;20.51 
0.238;-0.82;0.00;0.83;33.60;-22.33;-31.86;-77.80;-106.50;-290.00;1.17;129.66;-25.13;21.13 
0.267;-0.67;-0.13;0.37;15.30;-38.19;-30.47;-75.81;-112.25;-300.00;0.78;131.44;-24.63;21.46 
0.298;-0.40;-0.02;0.34;8.56;47.79;-35.90;-79.80;-118.97;-304.00;0.53;132.74;-25.39;21.13 
0.327;-0.68;0.22;0.82;0.90;81.53;-14.82;-85.78;-109.37;-290.00;1.09;132.50;-27.82;21.01 
0.357;-0.87;0.10;1.06;-13.91;37.08;-5.50;-87.78;-95.94;-283.00;1.37;131.70;-29.72;20.84 
0.386;-0.77;-0.12;0.90;-23.86;-18.43;-8.42;-91.77;-96.90;-277.00;1.19;131.46;-30.12;20.18 
0.416;-0.56;-0.16;0.64;-22.33;-26.37;-3.90;-94.76;-100.74;-280.00;0.87;131.77;-29.65;19.35 
0.446;-0.39;-0.12;0.40;-22.19;-15.93;-6.12;-100.74;-102.66;-279.00;0.57;131.98;-29.22;18.51 
0.476;-0.24;0.00;0.26;-19.13;29.43;0.77;-104.73;-103.62;-279.00;0.35;131.82;-29.45;17.75 
0.506;-0.41;0.00;0.51;-12.24;76.52;12.03;-107.73;-97.86;-270.00;0.65;130.58;-30.87;17.62 
0.535;-0.60;-0.09;0.66;-6.40;60.10;26.30;-108.72;-86.35;-259.00;0.90;128.72;-32.79;17.64 
0.565;-0.58;-0.10;0.67;-4.17;37.36;33.60;-104.73;-78.67;-251.00;0.89;127.06;-33.81;17.88 
0.596;-0.60;-0.04;0.74;-5.15;37.77;36.24;-101.74;-64.28;-248.00;0.95;125.24;-34.56;18.29 
0.625;-0.62;-0.06;0.63;-4.03;17.88;38.40;-93.76;-58.52;-238.00;0.89;123.46;-34.85;19.05 
0.655;-0.46;-0.21;0.53;-5.84;25.81;27.62;-86.78;-49.89;-234.00;0.73;122.15;-34.99;19.41 
0.686;-0.62;-0.09;0.47;-13.43;65.88;13.08;-86.78;-43.17;-230.00;0.78;120.60;-36.03;19.36 
0.716;-0.63;-0.10;0.66;-6.19;78.47;15.86;-80.79;-30.70;-211.00;0.92;118.48;-38.12;19.26 
0.746;-0.85;-0.10;0.44;5.57;74.23;9.25;-79.80;-24.95;-198.00;0.96;116.67;-39.98;19.37 
0.776;-0.79;0.03;0.63;1.46;101.77;8.42;-80.79;-12.47;-184.00;1.01;114.46;-42.47;19.54 
0.807;-0.81;0.29;0.62;2.99;67.83;19.90;-76.80;-5.76;-168.00;1.06;111.96;-44.64;19.92 
0.837;-0.89;0.18;0.44;7.93;77.43;33.81;-67.83;8.63;-152.00;1.01;109.18;-46.13;20.82 
0.867;-0.85;0.05;0.42;11.48;71.72;33.18;-60.85;16.31;-142.00;0.95;106.08;-47.70;21.81 
0.898;-0.72;0.11;0.34;9.60;58.71;23.44;-52.87;23.03;-130.00;0.80;103.38;-48.95;22.70 
0.928;-0.86;0.19;0.28;9.67;68.17;20.10;-47.88;28.78;-122.00;0.92;100.73;-50.23;23.47 
0.958;-0.85;0.14;0.25;7.93;76.10;16.35;-36.91;40.30;-105.00;0.90;97.79;-51.69;24.14 
0.988;-0.87;0.11;0.36;5.01;74.30;9.88;-37.90;42.21;-89.00;0.95;94.83;-53.28;24.56 
1.018;-1.04;0.02;0.25;2.92;46.19;12.24;-29.92;47.01;-78.00;1.07;92.42;-54.51;24.83 
1.048;-1.03;0.07;0.13;7.58;49.81;5.98;-25.93;49.89;-69.00;1.04;90.45;-55.57;25.02 
1.078;-1.01;0.26;0.19;7.79;53.50;-0.56;-27.93;51.81;-59.00;1.06;88.39;-56.82;25.07 
1.108;-1.06;0.31;0.18;8.42;43.69;17.74;-25.93;56.61;-48.00;1.12;86.13;-57.85;25.31 
1.137;-1.08;0.10;0.21;3.83;27.48;28.59;-16.96;55.65;-41.00;1.10;83.96;-58.14;25.94 
1.167;-1.04;0.06;0.26;-5.22;29.50;22.68;-11.97;57.57;-37.00;1.07;82.06;-58.29;26.48 
1.198;-1.06;0.25;0.14;-20.45;29.36;18.78;-6.98;59.48;-29.00;1.10;80.35;-58.47;26.86 
1.228;-1.06;0.39;0.26;-21.29;34.43;19.97;1.99;62.36;-20.00;1.16;78.32;-58.82;27.11 
1.258;-1.14;0.26;0.17;-23.10;25.11;25.88;4.99;64.28;-17.00;1.18;76.76;-58.71;27.60 
1.288;-1.13;0.19;0.16;-19.48;11.27;22.96;8.98;65.24;-13.00;1.16;75.52;-58.76;27.90 
1.319;-1.09;0.34;0.18;-15.03;26.64;9.25;10.97;63.32;-10.00;1.16;74.41;-58.90;28.11 
1.349;-1.15;0.42;0.24;-24.97;11.34;17.60;16.96;66.20;-4.00;1.25;73.35;-59.14;28.20 
1.379;-1.15;0.24;0.13;-6.61;12.80;0.56;18.95;69.08;0.00;1.18;72.57;-59.24;28.34 
1.410;-1.10;0.21;0.14;-1.39;12.94;5.57;20.95;68.12;2.00;1.13;71.70;-59.65;28.29 
1.440;-1.08;0.22;0.14;-1.95;8.63;6.19;22.94;68.12;2.00;1.11;70.65;-59.70;28.56 
1.470;-1.02;0.22;0.05;-0.56;7.79;9.67;22.94;68.12;9.00;1.04;69.77;-59.79;28.73 
1.500;-0.98;0.23;0.06;-1.46;6.75;6.61;25.93;71.00;6.00;1.01;68.87;-59.81;28.95 
1.530;-0.93;0.26;0.06;-2.16;5.22;0.70;26.93;70.04;12.00;0.97;68.11;-59.90;29.06 
1.560;-0.95;0.23;0.02;-0.49;2.71;-0.49;28.93;72.92;11.00;0.98;67.54;-60.09;29.03 
1.590;-0.95;0.25;0.10;-0.35;8.21;0.97;26.93;68.12;11.00;0.99;66.84;-60.22;29.08 
1.621;-1.03;0.17;0.09;-4.24;-0.28;-0.90;25.93;71.96;11.00;1.05;66.38;-60.38;29.03 
1.651;-1.02;0.14;0.07;-0.56;5.98;-8.35;28.93;70.04;14.00;1.03;66.00;-60.71;28.83 
1.681;-1.12;0.30;0.14;2.09;6.61;-6.96;28.93;70.04;13.00;1.17;65.62;-61.08;28.57 
1.711;-1.08;0.26;0.10;1.11;-0.42;-3.13;21.94;70.04;15.00;1.12;65.27;-61.31;28.43 
1.741;-1.12;0.22;0.10;1.88;6.75;-9.74;22.94;68.12;21.00;1.15;64.92;-61.62;28.20 
1.770;-1.15;0.29;0.18;1.25;1.95;-12.52;19.95;68.12;19.00;1.20;64.64;-62.06;27.83 
1.800;-1.11;0.29;0.13;1.18;-1.11;-8.56;15.96;68.12;24.00;1.15;64.49;-62.46;27.48 
1.831;-1.11;0.21;0.10;-1.60;-6.54;-8.83;11.97;70.04;19.00;1.13;64.36;-62.79;27.18 
1.861;-1.06;0.23;0.16;-1.04;-9.53;-17.60;10.97;67.16;19.00;1.10;64.64;-63.33;26.65 
1.891;-1.04;0.24;0.16;-0.42;-17.60;-19.41;5.98;67.16;16.00;1.08;65.24;-63.97;26.01 
1.922;-0.98;0.21;0.20;0.77;-23.23;-21.29;0.00;68.12;12.00;1.02;66.11;-64.75;25.22 
1.952;-0.97;0.16;0.18;0.63;-35.13;-21.70;-7.98;62.36;8.00;1.00;67.46;-65.58;24.36 
1.982;-1.00;0.17;0.23;2.02;-44.45;-25.46;-11.97;61.40;-1.00;1.04;69.09;-66.40;23.48 
2.011;-1.01;0.20;0.18;3.76;-49.67;-26.09;-21.94;62.36;-11.00;1.05;71.05;-67.21;22.53 
2.040;-0.97;0.13;0.18;3.90;-48.28;-24.90;-32.92;59.48;-16.00;1.00;73.19;-67.95;21.58 
2.069;-1.00;0.11;0.26;11.13;-48.63;-24.14;-33.91;58.52;-24.00;1.04;75.19;-68.54;20.72 
2.098;-0.98;0.14;0.20;10.09;-54.33;-18.37;-40.90;53.73;-43.00;1.01;77.27;-68.95;19.94 
2.127;-0.89;0.11;0.16;8.70;-56.83;-13.08;-41.89;49.89;-48.00;0.91;79.53;-68.96;19.37 
2.156;-0.88;0.07;0.17;5.84;-51.69;-17.11;-45.88;47.97;-58.00;0.90;81.65;-68.84;18.87 
2.186;-0.92;0.06;0.21;6.19;-34.30;-20.03;-49.87;43.17;-72.00;0.95;83.67;-68.88;18.24 
2.217;-0.86;0.10;0.34;7.79;-32.21;-30.89;-55.86;40.30;-78.00;0.93;85.61;-69.15;17.42 
2.247;-0.94;0.07;0.30;5.29;-37.50;-28.10;-64.84;36.46;-90.00;0.99;87.91;-69.37;16.47 
2.277;-0.90;0.06;0.30;5.91;-36.87;-27.34;-69.82;32.62;-92.00;0.95;90.12;-69.38;15.65 
2.307;-0.86;0.11;0.34;6.82;-41.81;-24.77;-74.81;27.82;-105.00;0.93;92.38;-69.26;14.85 
2.337;-0.82;0.09;0.35;5.77;-42.85;-22.61;-81.79;22.07;-112.00;0.90;94.73;-68.83;14.21 
2.367;-0.78;0.03;0.34;4.80;-38.82;-24.14;-82.79;19.19;-124.00;0.85;96.98;-68.37;13.56 
2.397;-0.76;0.01;0.39;3.69;-35.90;-26.43;-90.77;12.47;-127.00;0.85;99.16;-67.98;12.84 
2.428;-0.78;0.00;0.43;1.81;-38.96;-31.79;-98.75;9.59;-133.00;0.89;101.29;-67.58;12.11 
2.458;-0.78;0.02;0.45;3.20;-46.61;-38.47;-106.73;3.84;-143.00;0.90;103.78;-67.04;11.22 
2.488;-0.81;0.00;0.41;4.31;-58.09;-41.32;-114.71;-9.59;-153.00;0.91;106.85;-66.24;10.14 
2.519;-0.77;-0.06;0.37;4.73;-56.14;-43.83;-123.69;-17.27;-166.00;0.86;110.34;-65.10;8.94 
2.549;-0.73;-0.02;0.50;10.23;-32.63;-43.06;-130.67;-25.90;-173.00;0.89;113.36;-64.28;7.75 
2.579;-0.77;-0.10;0.57;15.23;-28.80;-37.22;-136.65;-36.46;-179.00;0.96;115.77;-63.75;6.78 
2.609;-0.77;-0.08;0.62;14.61;-36.45;-35.13;-146.63;-42.21;-187.00;0.99;118.19;-63.03;5.93 
2.639;-0.78;-0.11;0.59;15.65;-40.70;-24.42;-148.62;-51.81;-192.00;0.98;120.70;-61.96;5.29 
2.669;-0.68;-0.12;0.65;16.56;-38.26;-24.21;-147.62;-58.52;-203.00;0.95;123.00;-60.88;4.80 
2.699;-0.63;-0.07;0.62;12.59;-46.82;-18.64;-151.61;-66.20;-209.00;0.89;125.29;-59.58;4.43 
2.730;-0.55;-0.10;0.63;12.03;-32.97;-19.41;-152.61;-75.79;-221.00;0.84;127.49;-58.21;4.06 
2.760;-0.58;-0.15;0.72;12.59;-20.59;-12.31;-155.60;-82.51;-226.00;0.94;129.15;-57.29;3.77 
2.790;-0.62;-0.15;0.75;12.17;-28.10;-7.93;-155.60;-86.35;-230.00;0.98;130.48;-56.44;3.67 
2.820;-0.57;-0.14;0.70;10.78;-38.26;-7.17;-155.60;-87.31;-234.00;0.91;131.94;-55.29;3.61 
2.850;-0.48;-0.14;0.64;10.78;-29.22;-8.21;-153.61;-97.86;-245.00;0.81;133.43;-54.07;3.52 
2.880;-0.46;-0.12;0.71;10.43;-18.92;-4.87;-155.60;-100.74;-246.00;0.85;134.56;-53.17;3.49 
2.910;-0.50;-0.17;0.75;9.60;-16.49;-3.76;-156.60;-103.62;-252.00;0.92;135.45;-52.44;3.52 
2.941;-0.51;-0.14;0.75;8.42;-21.01;-7.23;-153.61;-106.50;-252.00;0.92;136.41;-51.69;3.47 
2.971;-0.50;-0.12;0.74;7.65;-24.07;-6.40;-154.61;-112.25;-260.00;0.90;137.43;-50.81;3.42 
3.001;-0.52;-0.08;0.69;4.66;-17.81;-7.72;-153.61;-115.13;-262.00;0.87;138.35;-50.01;3.33 
3.032;-0.49;-0.10;0.69;0.14;-7.51;-9.53;-151.61;-120.89;-267.00;0.85;139.06;-49.44;3.19 
3.062;-0.50;-0.07;0.74;-2.92;-5.36;-6.47;-160.59;-118.97;-267.00;0.90;139.55;-49.10;3.00 
3.092;-0.50;-0.15;0.76;-4.59;-8.42;-8.14;-156.60;-122.81;-263.00;0.92;139.95;-48.76;2.74 
3.122;-0.51;-0.17;0.74;-6.19;-9.88;-8.00;-160.59;-124.73;-268.00;0.91;140.36;-48.36;2.38 
3.152;-0.53;-0.13;0.74;-7.10;-9.18;-10.57;-163.58;-128.56;-265.00;0.92;140.77;-47.95;1.99 
3.182;-0.51;-0.22;0.70;-9.67;-9.11;-10.09;-166.58;-127.60;-267.00;0.89;141.15;-47.59;1.48 
3.212;-0.47;-0.16;0.70;-6.68;-4.66;-11.76;-169.57;-131.44;-267.00;0.86;141.53;-47.28;0.97 
3.243;-0.41;-0.10;0.75;-6.89;1.11;-9.81;-169.57;-135.28;-266.00;0.86;141.89;-47.08;0.51 
3.273;-0.46;-0.14;0.73;-5.22;-0.97;-1.60;-172.56;-137.20;-263.00;0.87;142.02;-46.86;0.24 
3.303;-0.39;-0.26;0.74;-0.83;2.09;0.63;-174.56;-139.12;-265.00;0.88;142.08;-46.67;0.09 
3.333;-0.43;-0.20;0.76;1.60;7.17;-0.56;-177.55;-135.28;-266.00;0.90;142.12;-46.65;-0.02 
3.363;-0.44;-0.19;0.74;2.30;4.87;0.07;-176.55;-136.24;-265.00;0.88;142.20;-46.63;-0.11 
3.393;-0.42;-0.16;0.74;3.41;7.03;-0.28;-176.55;-134.32;-259.00;0.87;142.31;-46.59;-0.15 
3.423;-0.45;-0.11;0.77;3.97;9.25;4.03;-172.56;-137.20;-262.00;0.90;142.32;-46.60;-0.07 
3.453;-0.45;-0.15;0.79;5.63;0.28;12.73;-171.56;-130.48;-264.00;0.92;142.18;-46.56;0.23 
3.482;-0.44;-0.15;0.78;6.33;-2.71;13.84;-168.57;-124.73;-264.00;0.91;142.07;-46.28;0.60 
3.511;-0.43;-0.12;0.83;3.41;-3.06;13.22;-165.58;-126.64;-265.00;0.94;141.94;-45.97;0.93 
3.541;-0.44;-0.14;0.80;2.78;-14.54;16.14;-164.58;-125.68;-267.00;0.92;141.81;-45.47;1.27 
3.570;-0.58;-0.26;0.69;-0.28;-1.04;11.69;-162.59;-126.64;-269.00;0.94;141.63;-44.96;1.51 
3.599;-0.67;-0.36;0.86;-2.85;32.56;-15.72;-163.58;-123.77;-267.00;1.15;141.41;-45.39;1.32 
3.629;-0.50;-0.08;0.99;17.04;-14.96;-16.83;-164.58;-123.77;-265.00;1.11;142.08;-45.65;0.89 
3.659;-0.51;-0.22;0.62;10.92;-29.57;-8.07;-165.58;-126.64;-268.00;0.83;143.00;-44.74;0.79 
3.689;-0.40;-0.19;0.66;19.20;4.59;-14.26;-163.58;-133.36;-275.00;0.79;143.94;-44.17;0.77 
3.719;-0.52;-0.19;0.80;22.26;19.69;-18.92;-163.58;-134.32;-275.00;0.97;144.67;-44.45;0.77 
3.749;-0.65;-0.12;0.77;23.93;-4.38;-21.77;-164.58;-136.24;-276.00;1.01;145.67;-44.66;0.79 
3.779;-0.58;-0.06;0.62;24.42;-12.31;-19.34;-160.59;-140.08;-281.00;0.85;146.93;-44.35;0.85 
3.809;-0.49;-0.06;0.61;23.86;4.38;-19.83;-157.60;-146.79;-287.00;0.78;148.04;-44.19;0.95 
3.840;-0.50;-0.04;0.69;24.28;14.75;-16.97;-155.60;-141.04;-285.00;0.85;148.97;-44.53;1.16 
3.869;-0.55;0.00;0.74;26.78;5.08;-12.87;-154.61;-144.87;-291.00;0.92;149.88;-44.79;1.43 
3.899;-0.53;0.00;0.76;26.37;-4.94;-15.30;-151.61;-148.71;-292.00;0.93;150.90;-44.68;1.73 
3.929;-0.55;-0.06;0.69;32.35;4.17;-15.44;-147.62;-149.67;-298.00;0.88;152.01;-44.56;2.08 
3.959;-0.50;-0.07;0.69;36.94;15.65;-26.92;-146.63;-149.67;-300.00;0.85;153.42;-44.80;2.36 
3.989;-0.50;-0.12;0.74;45.43;17.46;-25.74;-140.64;-153.51;-302.00;0.90;154.97;-45.23;2.62 
4.018;-0.55;-0.07;0.77;51.69;4.66;-32.07;-135.66;-155.43;-308.00;0.95;156.85;-45.56;3.01 
4.048;-0.50;0.02;0.79;50.30;-10.23;-32.14;-129.67;-157.35;-313.00;0.94;159.20;-45.38;3.44 
