Time(s) acc_x(g) acc_y(g) acc_z(g) gyr_x(°/s) gyr_y(°/s) gyr_z(°/s) mag_x(G) mag_y(G) mag_z(G) SVM(g) yaw(°) pitch(°) roll(°)
0.000;0.00;0.02;0.90;0.35;0.42;5.43;362.47;-172.15;-411.00;0.90;-113.32;5.01;5.34 
0.031;0.01;0.06;0.90;0.14;1.18;6.75;365.46;-174.06;-411.00;0.90;-113.54;5.04;5.38 
0.061;0.00;0.02;0.87;-0.14;0.90;7.10;362.47;-173.10;-410.00;0.87;-113.79;5.00;5.38 
0.091;0.00;0.06;0.88;0.49;0.28;7.79;360.48;-175.02;-411.00;0.88;-114.04;5.02;5.40 
0.121;0.01;0.01;0.85;0.35;-0.97;8.35;360.48;-173.10;-412.00;0.85;-114.29;5.08;5.45 
0.152;0.02;0.06;0.94;0.00;1.25;7.58;365.46;-175.02;-410.00;0.94;-114.57;5.13;5.48 
0.181;0.00;0.09;0.91;0.07;3.06;5.01;362.47;-177.89;-411.00;0.91;-114.80;5.09;5.51 
0.211;-0.04;0.09;0.92;0.21;2.71;0.77;361.48;-175.97;-412.00;0.93;-114.92;4.95;5.57 
0.242;-0.05;0.10;0.86;0.42;0.77;-4.17;361.48;-175.02;-412.00;0.87;-114.90;4.81;5.64 
0.272;-0.02;0.10;0.86;-0.35;-2.43;-8.70;361.48;-173.10;-408.00;0.87;-114.73;4.73;5.71 
0.301;0.01;0.09;0.90;-1.39;-4.10;-11.13;364.46;-175.02;-410.00;0.90;-114.45;4.80;5.76 
0.331;0.02;0.05;0.95;-1.88;-1.11;-13.57;359.49;-172.15;-413.00;0.95;-114.09;4.88;5.78 
0.360;0.02;0.05;0.90;-0.90;2.43;-15.86;362.47;-171.19;-411.00;0.90;-113.67;4.78;5.78 
0.390;0.00;0.05;0.90;-0.35;3.06;-14.40;362.47;-169.28;-412.00;0.90;-113.25;4.65;5.84 
0.420;0.02;0.00;0.88;-0.70;0.56;-13.84;360.48;-169.28;-411.00;0.88;-112.87;4.55;5.86 
0.451;0.00;0.00;0.86;-0.21;-0.56;-11.34;360.48;-166.41;-416.00;0.86;-112.49;4.48;5.86 
0.480;0.02;0.01;0.91;-0.49;-3.27;-7.03;361.48;-166.41;-411.00;0.91;-112.24;4.58;5.92 
0.510;0.04;0.02;0.92;-0.77;-0.70;-3.62;362.47;-164.50;-410.00;0.92;-112.10;4.62;5.90 
0.541;0.05;0.00;0.90;-0.63;2.30;0.35;356.50;-165.45;-409.00;0.90;-112.08;4.63;5.93 
0.571;0.05;0.02;0.90;-0.35;2.99;4.66;360.48;-164.50;-412.00;0.90;-112.18;4.54;5.88 
0.601;0.01;0.00;0.85;0.00;2.50;7.17;361.48;-164.50;-409.00;0.85;-112.39;4.46;5.84 
0.631;0.01;0.04;0.90;0.28;2.37;8.14;363.47;-163.54;-412.00;0.90;-112.65;4.45;5.86 
0.661;0.01;0.06;0.92;0.49;4.66;8.49;359.49;-164.50;-410.00;0.92;-112.95;4.37;5.85 
0.691;0.00;0.08;0.89;-0.83;5.91;7.72;363.47;-166.41;-410.00;0.89;-113.23;4.27;5.88 
0.721;-0.02;0.04;0.90;-0.14;3.69;6.40;361.48;-163.54;-408.00;0.90;-113.49;4.10;5.87 
0.752;0.00;0.02;0.88;0.35;-1.60;6.19;363.47;-165.45;-408.00;0.88;-113.71;4.04;5.83 
0.782;0.00;0.03;0.94;2.23;2.43;4.10;364.46;-168.32;-409.00;0.94;-113.90;4.05;5.85 
0.811;-0.02;0.04;0.95;1.25;2.99;5.08;361.48;-165.45;-411.00;0.95;-114.08;4.01;5.93 
0.841;-0.02;0.03;0.89;1.04;3.41;6.75;362.47;-167.37;-413.00;0.89;-114.29;3.86;5.94 
0.871;-0.02;0.05;0.83;0.56;2.09;7.10;363.47;-167.37;-409.00;0.83;-114.53;3.80;5.98 
0.901;-0.02;0.04;0.89;0.90;0.63;8.63;362.47;-169.28;-409.00;0.89;-114.81;3.74;6.01 
0.930;0.00;0.06;0.91;0.97;1.81;8.00;362.47;-166.41;-409.00;0.91;-115.09;3.77;6.06 
0.960;0.00;0.06;0.91;1.18;4.10;3.83;362.47;-169.28;-408.00;0.91;-115.30;3.67;6.11 
0.990;-0.04;0.08;0.89;0.63;5.08;0.97;365.46;-169.28;-407.00;0.89;-115.42;3.48;6.17 
1.020;-0.05;0.04;0.89;0.63;2.09;-0.90;366.46;-168.32;-413.00;0.89;-115.45;3.34;6.22 
1.051;0.00;0.05;0.91;0.56;1.53;-0.77;364.46;-166.41;-410.00;0.91;-115.45;3.30;6.28 
1.081;-0.02;0.05;0.92;0.49;2.16;-1.74;363.47;-167.37;-410.00;0.92;-115.44;3.26;6.34 
1.111;-0.02;0.06;0.92;0.70;3.13;-1.95;364.46;-165.45;-408.00;0.92;-115.41;3.15;6.38 
1.141;-0.05;0.04;0.89;1.11;4.66;-1.67;365.46;-164.50;-406.00;0.89;-115.38;2.98;6.40 
1.171;-0.06;0.05;0.89;0.70;2.71;-1.67;365.46;-167.37;-407.00;0.89;-115.37;2.80;6.43 
1.201;0.00;0.04;0.90;0.42;1.81;-1.88;367.45;-166.41;-409.00;0.90;-115.34;2.67;6.44 
1.231;-0.06;0.07;0.89;0.42;2.43;-2.30;365.46;-165.45;-407.00;0.89;-115.32;2.55;6.45 
1.262;-0.04;0.03;0.90;0.56;2.99;-2.09;367.45;-162.58;-405.00;0.90;-115.28;2.41;6.45 
1.292;0.02;0.05;0.91;0.07;1.18;-1.18;369.44;-164.50;-408.00;0.91;-115.25;2.36;6.50 
1.322;0.02;0.02;0.94;-0.70;4.73;-0.21;365.46;-160.67;-407.00;0.94;-115.25;2.33;6.46 
1.353;-0.02;0.02;0.94;1.18;11.55;1.88;361.48;-160.67;-406.00;0.94;-115.33;2.11;6.48 
1.383;-0.04;0.02;0.91;3.13;14.05;2.64;368.45;-159.71;-408.00;0.91;-115.47;1.75;6.60 
1.413;-0.02;0.08;0.88;2.43;13.01;2.23;364.46;-158.76;-409.00;0.88;-115.63;1.32;6.69 
1.442;-0.06;0.08;0.86;0.28;11.97;1.53;366.46;-154.93;-408.00;0.87;-115.74;0.91;6.75 
1.471;-0.09;0.09;0.89;0.21;8.70;0.63;368.45;-153.98;-406.00;0.90;-115.82;0.54;6.77 
1.500;-0.04;0.08;0.90;1.81;4.87;-0.56;368.45;-151.11;-407.00;0.90;-115.86;0.28;6.80 
1.530;0.00;0.05;0.89;2.43;5.70;0.07;368.45;-151.11;-408.00;0.89;-115.89;0.14;6.83 
1.561;-0.06;0.07;0.90;2.16;10.99;0.56;368.45;-153.02;-405.00;0.90;-115.95;-0.11;6.90 
1.591;-0.08;0.10;0.83;0.97;6.89;-1.53;370.44;-146.33;-404.00;0.84;-116.01;-0.46;6.97 
1.621;-0.05;0.10;0.82;0.07;1.11;-3.69;369.44;-144.41;-403.00;0.83;-115.97;-0.63;7.01 
1.650;-0.01;0.04;0.89;-0.49;-0.70;-4.10;369.44;-145.37;-408.00;0.89;-115.87;-0.64;6.99 
1.680;-0.05;0.06;0.95;-0.70;2.09;-3.20;370.44;-145.37;-403.00;0.95;-115.78;-0.68;6.94 
1.710;-0.10;0.08;0.93;-0.70;4.24;-3.83;366.46;-141.54;-408.00;0.94;-115.71;-0.82;6.92 
1.740;-0.10;0.09;0.90;-0.77;3.76;-6.12;368.45;-145.37;-404.00;0.91;-115.60;-1.02;6.93 
1.770;-0.09;0.06;0.85;-0.28;0.77;-7.17;369.44;-141.54;-404.00;0.86;-115.42;-1.17;6.92 
1.800;-0.08;0.06;0.89;0.56;1.11;-6.12;370.44;-138.67;-407.00;0.90;-115.25;-1.24;6.93 
1.830;-0.09;0.08;0.95;0.21;0.97;-6.82;368.45;-135.81;-405.00;0.96;-115.10;-1.35;6.94 
1.861;-0.08;0.10;0.93;-0.28;0.90;-8.90;369.44;-139.63;-404.00;0.94;-114.89;-1.44;6.94 
1.890;-0.04;0.09;0.90;-2.71;2.57;-8.77;367.45;-132.94;-407.00;0.91;-114.65;-1.54;6.91 
1.920;-0.04;0.02;0.91;-4.31;7.72;-6.26;367.45;-136.76;-403.00;0.91;-114.45;-1.71;6.79 
1.950;-0.06;0.00;0.96;-5.15;14.61;-3.83;366.46;-131.02;-404.00;0.96;-114.34;-2.02;6.66 
1.979;-0.09;-0.04;0.95;-1.53;14.68;-1.04;366.46;-129.11;-406.00;0.96;-114.32;-2.51;6.48 
2.008;-0.09;0.02;0.96;2.92;10.09;2.30;367.45;-129.11;-405.00;0.96;-114.38;-2.83;6.50 
2.038;-0.03;0.09;0.99;2.92;19.69;3.06;365.46;-123.37;-404.00;0.99;-114.52;-3.18;6.61 
2.068;-0.05;0.05;0.94;1.25;31.51;0.21;366.46;-117.63;-405.00;0.94;-114.68;-3.93;6.71 
2.097;-0.12;0.00;0.93;0.35;35.97;-0.70;365.46;-116.68;-401.00;0.94;-114.76;-4.90;6.71 
2.127;-0.13;0.03;0.93;1.67;39.72;1.81;369.44;-110.94;-401.00;0.94;-114.88;-5.96;6.78 
2.158;-0.11;0.08;0.88;2.43;41.88;-1.60;369.44;-102.33;-398.00;0.89;-114.99;-7.15;6.86 
2.188;-0.12;0.10;0.88;1.88;39.23;-4.52;370.44;-91.81;-397.00;0.89;-114.99;-8.37;6.93 
2.217;-0.06;0.06;0.87;1.88;40.07;-7.03;372.43;-90.86;-393.00;0.87;-114.89;-9.50;6.99 
2.247;-0.10;0.05;0.86;1.60;37.77;-6.75;370.44;-76.51;-396.00;0.87;-114.76;-10.60;7.00 
2.276;-0.14;0.02;0.82;0.00;34.85;-4.03;369.44;-72.68;-389.00;0.83;-114.66;-11.61;6.96 
2.305;-0.17;0.03;0.85;-0.49;34.57;-1.53;368.45;-65.99;-384.00;0.87;-114.63;-12.53;6.93 
2.334;-0.17;0.06;0.84;-0.21;31.51;0.56;368.45;-56.43;-383.00;0.86;-114.65;-13.42;6.89 
2.363;-0.19;0.04;0.85;0.42;30.96;0.63;370.44;-51.64;-380.00;0.87;-114.69;-14.28;6.88 
2.392;-0.22;0.07;0.86;2.30;30.75;-1.11;371.44;-48.78;-381.00;0.89;-114.72;-15.12;6.90 
2.421;-0.23;0.08;0.81;3.97;29.43;-3.27;369.44;-42.08;-378.00;0.85;-114.69;-15.95;6.99 
2.450;-0.22;0.06;0.88;3.55;27.83;-3.97;373.43;-38.26;-374.00;0.91;-114.59;-16.78;7.09 
2.479;-0.24;0.02;0.90;2.43;29.50;-0.28;370.44;-34.43;-373.00;0.93;-114.54;-17.51;7.16 
2.509;-0.22;0.03;0.87;1.32;34.09;2.30;373.43;-27.73;-369.00;0.90;-114.57;-18.34;7.18 
2.538;-0.26;0.08;0.86;2.16;35.90;3.06;373.43;-20.08;-365.00;0.90;-114.65;-19.32;7.24 
2.568;-0.26;0.09;0.86;2.23;35.69;1.46;371.44;-18.17;-358.00;0.90;-114.72;-20.26;7.34 
2.598;-0.26;0.10;0.83;1.04;37.50;0.97;374.42;-12.43;-359.00;0.88;-114.75;-21.23;7.43 
2.628;-0.26;0.06;0.81;0.07;40.56;1.95;376.41;-4.78;-352.00;0.85;-114.76;-22.31;7.45 
2.657;-0.25;0.05;0.82;-0.35;42.92;3.48;375.42;0.96;-347.00;0.86;-114.82;-23.41;7.48 
2.687;-0.25;0.06;0.78;1.46;46.33;3.41;377.41;8.61;-346.00;0.82;-114.86;-24.58;7.52 
2.718;-0.22;0.08;0.77;2.30;48.07;3.27;378.41;15.30;-339.00;0.80;-114.92;-25.87;7.63 
2.748;-0.24;0.12;0.78;0.97;48.63;2.50;379.40;21.04;-330.00;0.82;-114.93;-27.18;7.74 
2.778;-0.18;0.06;0.73;-0.42;51.48;-0.07;382.39;27.73;-328.00;0.75;-114.91;-28.44;7.83 
2.808;-0.15;0.02;0.72;1.18;55.51;1.25;380.40;34.43;-319.00;0.74;-114.83;-29.76;7.84 
2.839;-0.17;0.06;0.69;2.02;58.30;3.20;380.40;40.17;-314.00;0.71;-114.77;-31.18;7.89 
2.869;-0.18;0.13;0.74;2.71;62.33;1.74;383.39;51.64;-306.00;0.77;-114.74;-32.66;8.07 
2.899;-0.17;0.16;0.67;4.45;69.22;-2.43;385.38;61.21;-292.00;0.71;-114.61;-34.28;8.23 
2.929;-0.11;0.12;0.57;3.90;74.57;-8.49;388.36;65.03;-282.00;0.59;-114.31;-36.12;8.40 
2.958;-0.11;0.07;0.51;3.48;77.50;-9.67;384.38;73.64;-275.00;0.53;-113.85;-37.99;8.42 
2.987;-0.15;0.10;0.54;4.38;89.74;-13.70;387.37;81.29;-260.00;0.57;-113.30;-40.00;8.36 
3.016;-0.20;0.14;0.46;8.56;108.73;-20.45;381.39;92.77;-246.00;0.52;-112.50;-42.55;8.30 
3.045;-0.26;0.18;0.31;11.06;109.57;-30.40;380.40;107.11;-221.00;0.44;-111.33;-45.77;8.23 
3.075;-0.24;0.20;0.26;9.53;96.56;-40.56;374.42;116.68;-203.00;0.41;-109.96;-48.85;8.00 
3.105;-0.13;0.23;0.29;7.72;96.97;-54.40;372.43;125.29;-192.00;0.39;-108.36;-51.64;7.52 
3.135;-0.10;0.14;0.30;4.66;110.47;-65.88;366.46;134.85;-173.00;0.35;-106.33;-54.68;6.66 
3.165;-0.06;-0.12;0.29;-1.32;121.04;-63.37;348.53;148.24;-144.00;0.32;-103.70;-57.96;5.01 
3.195;-0.30;-0.18;0.39;-13.08;143.58;-51.13;341.56;162.58;-125.00;0.52;-100.93;-61.54;3.09 
3.226;-0.50;-0.22;0.22;-15.58;211.69;-12.59;336.58;169.28;-95.00;0.59;-98.32;-66.59;1.60 
3.256;-6.41;-2.65;-3.57;-54.82;450.16;6.82;334.59;168.32;-76.00;7.80;-94.18;-77.21;0.19 
3.286;-0.98;-0.38;-2.31;-45.84;-69.29;97.67;337.58;162.58;9.00;2.54;-92.78;-84.54;0.87 
3.316;0.34;0.54;-0.87;-19.48;-163.06;118.12;359.49;156.85;-19.00;1.08;-97.11;-80.53;4.13 
3.345;-0.62;0.75;-0.92;-14.40;-139.76;29.08;383.39;152.06;-47.00;1.34;-101.30;-75.91;7.13 
3.375;-5.20;0.18;1.69;-21.63;-76.03;-15.79;383.39;151.11;-76.00;5.47;-102.94;-71.02;6.90 
3.405;-1.98;0.50;0.64;-13.57;143.65;-1.60;387.37;150.15;-81.00;2.14;-103.48;-71.87;7.74 
3.436;-2.55;-0.21;-0.71;-13.98;301.50;5.36;385.38;153.02;-34.00;2.66;-100.87;-78.18;7.32 
3.466;-1.20;0.22;-1.30;-5.22;193.53;-32.42;386.37;150.15;9.00;1.78;-97.56;-82.91;7.04 
3.496;-0.70;0.00;-1.34;-5.98;101.43;-30.40;379.40;149.19;34.00;1.51;-94.68;-82.54;6.09 
3.527;-0.57;-0.20;-1.43;9.04;43.55;-40.07;367.45;147.28;54.00;1.55;-92.37;-80.97;4.96 
3.557;-0.77;-0.31;-1.42;27.97;-116.45;-2.78;361.48;151.11;53.00;1.64;-91.44;-81.12;4.02 
3.587;-0.78;-0.18;-0.81;32.49;-265.95;5.22;362.47;156.85;32.00;1.14;-93.00;-84.93;3.86 
3.617;-1.56;-0.28;0.00;28.80;-363.13;31.93;366.46;163.54;-16.00;1.58;-95.85;-83.37;4.11 
3.647;-0.89;0.17;1.43;5.08;-86.47;24.83;373.43;157.80;-84.00;1.69;-98.69;-76.05;4.93 
3.677;-0.53;0.29;0.55;-13.29;33.74;-2.78;376.41;153.98;-83.00;0.82;-99.64;-74.59;5.54 
3.707;-1.44;0.14;0.11;-11.55;78.26;-22.61;371.44;154.93;-79.00;1.45;-99.03;-76.10;5.25 
3.738;-1.54;0.00;-0.62;3.20;3.20;-12.59;368.45;155.89;-70.00;1.66;-97.73;-78.26;4.51 
3.768;-1.06;0.00;-0.29;11.69;-83.76;0.14;366.46;159.71;-72.00;1.10;-97.96;-77.18;4.54 
3.798;-1.07;-0.07;0.26;6.33;-71.17;-6.33;363.47;155.89;-89.00;1.10;-98.45;-75.01;4.57 
3.828;-0.90;-0.14;0.34;1.18;-30.54;5.98;366.46;155.89;-93.00;0.97;-98.65;-73.58;4.48 
3.858;-0.90;-0.10;0.33;1.04;-17.11;13.36;366.46;151.11;-97.00;0.96;-98.95;-72.84;4.65 
3.888;-0.96;0.02;0.23;0.83;-13.91;13.91;369.44;152.06;-100.00;0.99;-99.38;-72.29;5.01 
3.918;-1.03;0.11;0.00;-2.43;-23.86;7.93;368.45;147.28;-106.00;1.04;-99.80;-71.86;5.37 
3.948;-0.98;0.08;0.00;-2.16;-37.36;11.06;371.44;144.41;-110.00;0.98;-100.28;-70.94;5.67 
3.978;-0.94;0.09;0.11;2.43;-32.49;10.30;373.43;144.41;-117.00;0.95;-100.74;-70.05;5.99 
4.008;-0.94;0.11;0.26;1.88;-15.79;8.77;377.41;141.54;-122.00;0.98;-101.23;-69.32;6.40 
4.039;-0.98;0.07;0.22;1.46;-0.35;3.20;374.42;141.54;-123.00;1.01;-101.41;-69.14;6.61 
4.069;-0.94;0.21;0.16;-2.23;-3.41;4.52;374.42;139.63;-124.00;0.98;-101.49;-69.20;6.75 
4.099;-0.94;0.24;0.18;-2.92;3.90;-3.69;373.43;140.59;-124.00;0.99;-101.65;-69.21;6.94 
4.129;-0.98;0.16;0.06;0.00;16.14;-14.12;375.42;137.72;-121.00;0.99;-101.39;-69.70;6.81 
4.159;-0.96;0.24;0.01;0.83;13.15;-19.69;373.43;145.37;-122.00;0.99;-100.82;-70.53;6.46 
4.189;-0.97;0.29;0.04;4.52;10.43;-30.82;367.45;146.33;-118.00;1.01;-100.12;-71.26;5.98 
4.219;-1.00;0.21;0.04;12.87;16.07;-42.57;363.47;151.11;-116.00;1.02;-99.01;-72.16;5.16 
4.250;-1.02;0.26;-0.02;17.32;11.97;-48.90;357.49;156.85;-109.00;1.05;-97.55;-73.06;4.05 
4.280;-0.95;0.26;0.00;20.31;-13.29;-65.46;337.58;162.58;-105.00;0.98;-95.86;-73.49;2.64 
4.310;-0.84;0.13;0.14;21.77;-26.30;-79.30;328.62;165.45;-104.00;0.86;-93.95;-73.31;0.97 
4.340;-0.74;0.02;0.34;23.93;-23.10;-87.72;314.67;174.06;-107.00;0.81;-91.71;-72.55;-1.06 
4.370;-0.58;-0.24;0.51;22.26;0.28;-106.64;287.79;178.84;-103.00;0.81;-88.79;-71.46;-3.69 
4.400;-0.63;-0.40;0.42;15.72;24.97;-96.21;269.86;190.32;-103.00;0.86;-85.45;-70.59;-6.67 
4.430;-0.75;-0.45;0.26;8.00;32.49;-83.06;255.92;193.19;-93.00;0.91;-82.39;-70.03;-9.39 
4.461;-0.68;-0.54;0.14;-0.07;22.96;-68.17;238.00;198.93;-89.00;0.88;-79.62;-69.38;-11.93 
4.491;-0.69;-0.65;0.15;-7.51;2.50;-51.76;219.08;202.75;-83.00;0.96;-77.33;-68.33;-14.12 
4.521;-0.90;-0.79;0.24;-7.10;-9.81;-34.85;211.11;204.66;-86.00;1.22;-75.59;-67.05;-15.87 
4.552;-0.97;-0.61;0.28;-12.17;0.63;-16.49;205.14;205.62;-86.00;1.18;-74.59;-66.18;-16.94 
4.582;-0.86;-0.49;0.17;-13.84;13.50;-17.25;201.15;206.58;-84.00;1.00;-73.86;-65.82;-17.72 
4.612;-0.88;-0.55;0.10;-12.52;19.34;-17.46;193.19;207.53;-79.00;1.04;-73.12;-65.69;-18.46 
4.642;-0.98;-0.53;0.04;-12.17;20.66;-13.57;193.19;206.58;-76.00;1.11;-72.36;-65.64;-19.20 
4.672;-0.90;-0.44;-0.09;-8.70;11.76;-13.70;189.20;208.49;-74.00;1.01;-71.78;-65.69;-19.75 
4.702;-0.78;-0.47;-0.13;-2.64;5.98;-19.62;183.23;210.40;-72.00;0.92;-71.15;-65.51;-20.35 
4.732;-0.79;-0.59;-0.08;6.05;-0.42;-18.02;184.22;210.40;-71.00;0.99;-70.34;-65.04;-21.10 
4.763;-0.74;-0.62;0.02;10.85;-9.11;-6.12;178.25;211.36;-69.00;0.97;-69.96;-64.64;-21.43 
4.792;-0.70;-0.74;0.14;11.62;-6.05;8.63;175.26;212.32;-75.00;1.03;-69.73;-64.28;-21.61 
4.821;-0.90;-0.74;0.18;16.83;10.30;21.43;178.25;207.53;-74.00;1.18;-69.85;-64.35;-21.42 
4.851;-1.02;-0.51;0.04;9.74;18.16;31.58;184.22;209.45;-71.00;1.14;-70.40;-65.12;-20.76 
4.881;-1.07;-0.26;-0.14;10.43;-0.77;22.33;191.19;211.36;-69.00;1.11;-71.25;-66.20;-19.82 
4.911;-0.95;-0.22;-0.14;12.31;-36.10;9.74;195.18;209.45;-75.00;0.99;-71.89;-66.58;-19.16 
4.941;-0.87;-0.32;0.18;12.73;-69.15;5.70;195.18;208.49;-80.00;0.94;-72.34;-66.00;-18.79 
4.970;-0.81;-0.38;0.39;19.62;-67.20;9.32;200.16;209.45;-96.00;0.98;-72.76;-64.69;-18.48 
5.000;-0.80;-0.22;0.45;18.30;-37.50;12.59;202.15;203.71;-105.00;0.94;-73.30;-63.67;-17.98 
5.030;-0.87;-0.22;0.37;13.36;-10.43;2.16;205.14;204.66;-116.00;0.97;-73.75;-63.26;-17.47 
5.061;-0.93;-0.33;0.25;15.51;-9.18;-0.70;205.14;204.66;-115.00;1.02;-73.86;-63.05;-17.26 
5.091;-0.90;-0.28;0.19;14.61;-24.21;6.05;207.13;201.80;-119.00;0.96;-74.05;-62.83;-16.97 
5.121;-0.84;-0.26;0.26;12.80;-39.30;7.86;209.12;198.93;-122.00;0.92;-74.38;-62.27;-16.63 
5.151;-0.81;-0.29;0.28;10.02;-45.01;7.72;212.11;197.97;-136.00;0.90;-74.76;-61.42;-16.26 
5.181;-0.82;-0.42;0.33;7.65;-30.12;7.79;212.11;197.01;-144.00;0.98;-75.07;-60.51;-16.02 
5.211;-0.89;-0.47;0.22;3.69;-15.93;12.80;213.10;197.01;-146.00;1.03;-75.33;-60.05;-15.81 
5.241;-0.85;-0.46;0.12;0.49;-21.08;24.42;221.07;193.19;-152.00;0.97;-75.79;-59.96;-15.48 
5.272;-0.81;-0.37;0.02;-0.77;-45.91;36.38;226.05;192.23;-157.00;0.89;-76.72;-59.77;-14.79 
5.302;-0.81;-0.38;0.12;0.63;-70.75;41.88;235.01;184.58;-170.00;0.90;-77.98;-58.94;-13.92 
5.332;-0.84;-0.31;0.17;-1.18;-80.77;46.54;241.98;176.93;-183.00;0.91;-79.52;-57.59;-12.88 
5.363;-0.69;-0.18;0.27;-4.38;-91.34;40.49;255.92;166.41;-208.00;0.76;-81.29;-55.83;-11.76 
5.393;-0.65;-0.10;0.39;-5.63;-103.17;25.18;259.91;156.85;-229.00;0.76;-82.83;-53.38;-10.99 
5.423;-0.78;0.00;0.54;4.73;-94.89;12.87;264.88;148.24;-246.00;0.95;-84.08;-50.67;-10.40 
5.453;-0.70;-0.12;0.58;9.11;-90.50;-0.35;264.88;132.94;-256.00;0.92;-84.92;-48.09;-9.94 
5.484;-0.52;-0.42;0.67;5.15;-112.07;-3.76;265.88;118.59;-279.00;0.95;-85.33;-44.90;-10.02 
5.514;-0.51;-0.34;0.86;9.60;-112.83;11.20;268.87;107.11;-297.00;1.06;-86.01;-41.19;-10.00 
5.544;-0.40;-0.02;0.90;12.10;-97.88;2.02;269.86;91.81;-313.00;0.99;-86.95;-37.89;-9.57 
5.575;-0.29;-0.06;0.90;12.73;-87.44;-23.44;268.87;83.20;-321.00;0.95;-87.29;-34.85;-9.42 
5.605;-0.37;-0.28;0.81;11.83;-77.36;-27.76;270.86;63.12;-341.00;0.93;-87.02;-31.94;-9.57 
5.635;-0.39;-0.28;0.77;10.50;-84.87;-22.75;265.88;56.43;-343.00;0.91;-86.72;-29.24;-9.83 
5.665;-0.29;-0.30;0.76;12.73;-94.12;-19.34;266.88;44.95;-356.00;0.87;-86.63;-26.30;-9.94 
5.695;-0.21;-0.29;0.77;15.37;-100.73;-18.99;263.89;30.60;-365.00;0.85;-86.61;-22.96;-9.97 
5.725;-0.22;-0.31;0.82;20.52;-95.72;-14.82;264.88;8.61;-382.00;0.90;-86.69;-19.67;-9.83 
5.755;-0.18;-0.31;0.80;24.49;-90.71;-12.17;267.87;-8.61;-390.00;0.88;-86.70;-16.74;-9.48 
5.785;-0.14;-0.33;0.77;26.30;-89.18;-9.32;272.85;-22.00;-394.00;0.85;-86.86;-13.76;-9.02 
5.814;-0.14;-0.28;0.81;28.66;-89.18;-5.70;276.83;-38.26;-400.00;0.87;-87.16;-10.91;-8.42 
5.843;-0.12;-0.21;0.82;26.99;-89.53;-6.47;284.80;-56.43;-402.00;0.85;-87.47;-8.14;-7.77 
5.873;-0.06;-0.25;0.79;30.54;-87.17;-10.02;289.78;-74.60;-409.00;0.83;-87.75;-5.32;-7.04 
5.902;0.01;-0.18;0.80;29.50;-93.36;-9.95;294.76;-90.86;-412.00;0.82;-87.90;-2.50;-6.30 
5.932;0.05;-0.18;0.83;34.23;-111.51;-14.68;300.73;-106.16;-417.00;0.85;-87.98;0.70;-5.45 
5.962;0.17;-0.19;0.96;39.17;-123.48;-10.37;308.70;-129.11;-418.00;0.99;-88.06;4.40;-4.40 
5.992;0.43;0.02;1.28;25.67;-137.95;-11.34;313.68;-159.71;-418.00;1.35;-88.23;8.92;-3.41 
6.022;0.51;0.11;1.50;24.83;-97.46;-27.48;318.66;-180.76;-416.00;1.59;-88.04;12.87;-2.47 
6.051;0.51;0.07;1.50;25.67;-48.07;-31.44;325.63;-192.23;-416.00;1.59;-87.35;15.32;-1.46 
6.082;0.46;0.00;1.28;23.10;-19.20;-32.83;327.62;-196.06;-414.00;1.36;-86.49;16.58;-0.42 
6.112;0.35;0.00;1.02;25.88;-13.50;-21.70;334.59;-200.84;-412.00;1.08;-85.76;17.13;0.55 
6.142;0.36;0.05;1.02;22.05;-40.77;-14.75;336.58;-202.75;-408.00;1.08;-85.31;18.03;1.45 
6.173;0.37;0.17;1.15;24.49;-34.92;-15.79;342.56;-210.40;-409.00;1.22;-84.95;19.56;2.21 
6.203;0.53;0.02;1.10;9.53;-43.62;-4.38;346.54;-212.32;-404.00;1.22;-84.44;21.00;2.77 
6.233;0.62;0.02;1.06;8.28;-18.57;-17.32;346.54;-219.97;-405.00;1.23;-84.27;22.18;3.08 
6.263;0.56;-0.07;0.98;8.28;8.70;-9.04;346.54;-222.84;-400.00;1.13;-83.91;22.51;3.47 
6.293;0.36;0.06;0.90;4.94;8.90;0.14;347.54;-221.88;-403.00;0.97;-83.88;22.38;3.71 
6.323;0.28;0.09;0.83;1.18;1.25;5.22;349.53;-219.01;-404.00;0.88;-84.05;22.28;3.78 
6.353;0.31;0.13;0.78;-0.97;-5.36;4.03;344.55;-220.92;-406.00;0.85;-84.26;22.45;3.81 
6.384;0.34;0.13;0.87;-1.04;-3.55;3.48;346.54;-218.05;-402.00;0.94;-84.41;22.72;3.80 
6.414;0.34;0.12;0.91;1.53;11.76;0.70;347.54;-221.88;-403.00;0.98;-84.56;22.75;3.82 
6.443;0.33;0.14;0.85;3.97;20.87;-1.25;344.55;-218.05;-401.00;0.92;-84.63;22.37;3.95 
6.472;0.27;0.14;0.84;2.50;21.70;-1.81;341.56;-214.23;-405.00;0.89;-84.64;21.81;4.17 
6.501;0.26;0.13;0.79;1.46;22.47;-0.70;344.55;-210.40;-404.00;0.84;-84.67;21.22;4.37 
6.531;0.24;0.12;0.74;3.76;22.68;-2.92;343.55;-206.58;-407.00;0.79;-84.68;20.59;4.53 
6.561;0.26;0.14;0.78;8.49;14.75;-4.17;343.55;-204.66;-404.00;0.83;-84.67;20.09;4.82 
6.591;0.31;0.21;0.84;7.86;12.80;-3.55;347.54;-202.75;-404.00;0.92;-84.64;19.80;5.23 
6.621;0.34;0.19;0.78;6.12;21.15;-7.10;348.53;-196.06;-403.00;0.87;-84.54;19.41;5.64 
6.651;0.32;0.16;0.71;6.68;23.65;-7.79;348.53;-191.28;-405.00;0.80;-84.42;18.86;6.02 
6.682;0.32;0.06;0.77;0.63;11.69;-4.38;347.54;-190.32;-403.00;0.84;-84.31;18.48;6.28 
6.712;0.26;0.03;0.79;-3.83;13.70;2.02;347.54;-186.49;-404.00;0.83;-84.39;18.30;6.21 
6.742;0.19;0.10;0.69;2.09;22.12;2.50;343.55;-184.58;-406.00;0.72;-84.59;17.87;6.15 
6.772;0.08;0.18;0.61;7.93;12.80;0.63;349.53;-178.84;-408.00;0.64;-84.73;17.34;6.37 
6.802;0.14;0.23;0.76;6.68;2.78;-3.62;345.54;-180.76;-408.00;0.81;-84.75;17.13;6.79 
6.832;0.17;0.20;0.74;7.17;14.82;-10.57;349.53;-177.89;-408.00;0.79;-84.60;16.94;7.21 
6.862;0.09;0.14;0.64;11.90;27.90;-21.50;349.53;-174.06;-404.00;0.66;-84.27;16.35;7.70 
6.893;-0.06;-0.03;0.67;11.76;18.09;-34.09;356.50;-165.45;-403.00;0.67;-83.62;15.42;8.29 
6.923;-0.10;-0.14;0.69;19.41;18.85;-22.54;354.51;-158.76;-401.00;0.71;-82.88;14.53;8.74 
6.953;0.14;0.07;0.62;24.00;-14.61;-13.36;355.50;-155.89;-404.00;0.64;-82.51;14.23;9.47 
6.984;0.35;0.03;0.90;14.26;-76.38;-13.36;361.48;-157.80;-399.00;0.97;-81.98;15.70;10.13 
7.014;0.42;-0.41;1.52;16.28;-67.90;-28.38;364.46;-175.02;-399.00;1.63;-81.29;18.21;10.52 
7.044;0.74;-0.10;1.22;34.23;3.62;24.77;368.45;-177.89;-399.00;1.43;-80.80;19.52;11.12 
7.074;0.71;0.52;0.64;-72.21;149.91;62.40;375.42;-177.89;-400.00;1.09;-82.38;19.09;11.34 
7.104;0.26;-0.08;0.29;-18.85;-15.86;44.17;357.49;-163.54;-404.00;0.40;-85.19;17.10;8.41 
7.134;0.22;-0.57;1.01;-1.74;-41.11;21.50;352.52;-172.15;-407.00;1.18;-85.55;18.25;7.42 
7.164;0.39;-0.19;0.97;20.80;-5.84;67.34;356.50;-182.67;-407.00;1.06;-87.16;19.30;6.74 
7.195;0.50;0.11;0.62;16.28;38.68;51.06;356.50;-188.41;-404.00;0.80;-89.12;19.31;6.62 
7.225;0.15;0.03;0.51;3.62;50.85;40.56;361.48;-187.45;-407.00;0.53;-90.75;18.28;6.54 
7.255;-0.10;-0.21;0.59;-8.07;19.34;39.58;358.49;-182.67;-408.00;0.63;-92.17;17.14;5.97 
7.285;0.08;-0.20;0.69;-10.02;-10.30;52.52;362.47;-181.71;-407.00;0.72;-93.72;16.93;4.92 
7.315;0.13;0.27;1.02;-3.06;-4.17;48.90;357.49;-194.14;-407.00;1.06;-95.34;17.44;4.18 
7.345;0.14;0.74;1.35;-20.17;31.65;23.86;358.49;-199.88;-411.00;1.55;-96.54;17.20;3.84 
7.374;0.32;0.68;0.92;-37.50;25.04;0.07;351.52;-193.19;-414.00;1.19;-96.89;16.03;3.29 
7.404;0.51;0.20;0.86;-27.62;-30.89;-55.37;344.55;-190.32;-418.00;1.02;-96.25;16.38;2.97 
7.434;0.36;-0.53;1.05;-8.63;-39.93;-21.01;338.57;-192.23;-419.00;1.23;-94.81;17.54;2.61 
7.464;0.54;-0.21;0.99;15.51;-20.87;43.90;338.57;-197.01;-425.00;1.15;-95.20;18.68;2.26 
7.495;0.54;0.33;1.02;15.10;-1.11;37.70;343.55;-206.58;-417.00;1.20;-96.56;19.38;2.34 
7.525;0.40;0.52;0.89;16.14;39.72;20.31;345.54;-209.45;-421.00;1.11;-97.49;19.07;2.79 
7.555;0.24;0.52;0.56;8.42;56.07;-13.01;346.54;-200.84;-420.00;0.80;-97.79;17.70;3.56 
7.585;0.13;0.23;0.60;-15.58;30.05;-30.12;349.53;-188.41;-418.00;0.66;-97.06;16.33;4.20 
7.615;0.22;0.00;0.77;-17.18;11.34;-16.49;345.54;-179.80;-422.00;0.80;-96.46;15.78;3.86 
7.645;0.27;-0.17;0.70;-5.36;10.85;-10.71;342.56;-174.06;-424.00;0.77;-96.08;15.45;3.55 
7.675;0.23;-0.17;0.78;-3.97;-13.29;9.95;340.57;-175.02;-428.00;0.83;-96.10;15.55;3.23 
7.706;0.34;0.00;0.91;0.90;-20.80;30.82;337.58;-181.71;-426.00;0.97;-96.76;16.30;2.83 
7.736;0.38;0.26;0.98;3.55;-13.15;27.48;337.58;-188.41;-424.00;1.08;-97.69;17.04;2.71 
7.766;0.37;0.33;0.88;5.98;2.23;4.24;340.57;-194.14;-423.00;1.01;-98.18;17.36;2.91 
7.796;0.30;0.20;0.79;5.22;2.37;-7.10;343.55;-187.45;-423.00;0.87;-98.10;17.35;3.32 
7.825;0.23;0.11;0.80;2.92;-11.06;-5.77;343.55;-192.23;-422.00;0.84;-97.87;17.52;3.64 
7.854;0.29;0.14;0.86;2.71;-16.14;-6.12;347.54;-192.23;-423.00;0.92;-97.68;17.95;3.87 
7.883;0.30;0.10;0.92;3.06;-8.63;-11.13;345.54;-197.97;-423.00;0.97;-97.41;18.37;4.10 
7.912;0.30;0.07;0.88;0.28;-3.48;-9.04;344.55;-196.06;-425.00;0.93;-97.06;18.56;4.33 
7.941;0.34;0.08;0.88;-0.21;0.14;-4.31;344.55;-195.10;-425.00;0.95;-96.90;18.66;4.40 
7.971;0.32;0.10;0.88;-0.35;1.67;-4.17;348.53;-192.23;-424.00;0.94;-96.81;18.72;4.46 
8.002;0.26;0.11;0.87;1.32;4.38;-5.08;344.55;-192.23;-424.00;0.91;-96.70;18.68;4.53 
8.032;0.30;0.10;0.84;-1.88;-1.67;-2.09;345.54;-189.36;-420.00;0.90;-96.57;18.68;4.63 
8.062;0.31;0.11;0.89;-2.85;-1.25;-3.83;344.55;-192.23;-425.00;0.95;-96.48;18.76;4.67 
8.093;0.33;0.13;0.86;-1.74;8.42;-5.77;342.56;-190.32;-424.00;0.93;-96.36;18.70;4.72 
8.123;0.26;0.16;0.77;-3.20;8.70;-4.24;346.54;-189.36;-423.00;0.83;-96.23;18.45;4.82 
8.153;0.30;0.10;0.80;-5.63;-3.06;-1.95;342.56;-188.41;-427.00;0.86;-96.15;18.42;4.81 
8.183;0.33;0.06;0.90;-4.10;-4.45;-1.32;339.57;-186.49;-425.00;0.96;-96.11;18.61;4.73 
8.213;0.35;0.06;0.94;-1.39;2.85;2.50;342.56;-188.41;-427.00;1.00;-96.11;18.74;4.71 
8.243;0.37;0.12;0.95;-1.88;10.64;2.37;345.54;-184.58;-424.00;1.03;-96.24;18.61;4.70 
8.273;0.28;0.18;0.87;3.41;15.72;-0.49;341.56;-181.71;-425.00;0.93;-96.34;18.25;4.76 
8.304;0.26;0.13;0.86;13.15;8.70;-6.19;345.54;-179.80;-422.00;0.91;-96.30;17.89;5.12 
8.334;0.23;0.14;0.85;18.85;4.52;-6.68;346.54;-176.93;-420.00;0.89;-96.13;17.68;5.69 
8.364;0.27;0.18;0.77;16.90;7.58;-4.24;348.53;-176.93;-421.00;0.84;-96.01;17.57;6.34 
8.394;0.24;0.14;0.85;11.69;7.51;-5.08;357.49;-174.06;-415.00;0.89;-95.90;17.37;6.91 
8.424;0.13;0.10;0.87;8.35;12.38;-9.18;355.50;-175.02;-414.00;0.89;-95.78;17.00;7.31 
8.454;0.07;0.02;0.88;8.56;8.28;-6.19;356.50;-168.32;-414.00;0.88;-95.63;16.56;7.58 
8.483;0.12;0.06;0.85;10.09;-3.13;-4.10;360.48;-168.32;-413.00;0.86;-95.56;16.32;7.83 
8.512;0.14;0.12;0.89;9.60;-4.94;-2.85;364.46;-168.32;-413.00;0.91;-95.48;16.40;8.12 
8.541;0.08;0.17;0.95;2.85;0.42;-5.77;364.46;-167.37;-410.00;0.97;-95.38;16.38;8.38 
8.570;0.07;0.06;0.91;-1.88;10.09;-6.89;361.48;-164.50;-409.00;0.91;-95.26;16.15;8.43 
8.600;0.06;0.01;0.82;-5.63;5.36;-8.97;362.47;-163.54;-408.00;0.82;-95.09;15.74;8.37 
8.630;0.10;0.00;0.82;-4.03;-5.91;-7.86;364.46;-164.50;-410.00;0.83;-94.94;15.64;8.15 
8.660;0.13;-0.05;0.90;0.28;-6.89;-12.17;364.46;-165.45;-409.00;0.91;-94.63;15.83;8.23 
8.691;0.22;-0.12;1.00;-3.69;-9.88;-4.59;359.49;-162.58;-410.00;1.03;-94.36;15.96;8.18 
8.721;0.27;-0.14;1.10;-13.50;-9.39;8.07;359.49;-168.32;-409.00;1.14;-94.41;16.33;7.72 
8.751;0.26;-0.04;1.06;-20.80;10.09;12.38;356.50;-164.50;-411.00;1.09;-94.81;16.43;6.99 
8.781;0.24;0.00;0.94;-24.77;19.76;10.30;353.51;-170.23;-413.00;0.97;-95.24;16.09;6.23 
8.812;0.21;-0.04;0.81;-23.72;22.19;6.68;346.54;-164.50;-418.00;0.84;-95.60;15.53;5.48 
8.842;0.21;-0.14;0.71;-13.36;16.21;0.70;343.55;-159.71;-420.00;0.75;-95.84;15.00;4.70 
8.872;0.21;-0.24;0.66;2.09;12.24;10.23;338.57;-156.85;-417.00;0.73;-96.10;14.64;4.21 
8.902;0.11;-0.22;0.75;17.04;2.43;24.83;341.56;-158.76;-420.00;0.79;-96.74;14.46;4.03 
8.931;0.00;0.01;0.93;25.88;-9.60;39.03;347.54;-164.50;-413.00;0.93;-97.72;14.67;4.38 
8.961;0.14;0.23;0.98;21.15;-16.97;41.32;352.52;-167.37;-410.00;1.02;-98.89;14.99;4.84 
8.991;0.26;0.32;1.11;1.67;-11.97;36.10;359.49;-175.02;-411.00;1.18;-100.04;15.60;5.05 
9.020;0.25;0.22;1.02;-10.30;16.42;22.33;358.49;-176.93;-413.00;1.07;-100.93;15.72;4.85 
9.050;0.16;0.09;0.78;-8.56;30.33;7.93;352.52;-175.97;-413.00;0.80;-101.48;15.04;4.54 
9.080;0.04;-0.04;0.71;-2.99;14.26;9.11;353.51;-170.23;-417.00;0.71;-101.79;14.34;4.35 
9.111;0.09;0.00;0.81;-0.28;-9.53;20.03;354.51;-172.15;-414.00;0.81;-102.26;14.34;4.23 
9.140;0.16;0.16;0.92;-2.64;-11.13;26.71;354.51;-177.89;-413.00;0.95;-102.95;14.71;4.07 
9.169;0.14;0.32;0.95;-6.96;1.95;19.41;351.52;-180.76;-411.00;1.01;-103.63;14.89;3.91 
