Time(s) acc_x(g) acc_y(g) acc_z(g) gyr_x(°/s) gyr_y(°/s) gyr_z(°/s) mag_x(G) mag_y(G) mag_z(G) SVM(g) yaw(°) pitch(°) roll(°)
0.000;0.03;0.00;0.94;-2.30;3.55;-5.29;358.31;-320.29;-391.00;0.94;-107.42;8.88;-1.12 
0.029;0.00;0.00;0.84;-1.88;7.23;-6.05;358.31;-319.33;-389.00;0.84;-107.41;8.90;-1.15 
0.059;0.00;0.00;0.78;-1.95;-4.66;-7.30;357.32;-321.25;-391.00;0.78;-107.38;8.90;-1.09 
0.089;0.07;-0.04;0.94;-4.59;-14.61;-4.73;357.32;-321.25;-392.00;0.94;-107.38;9.39;-1.15 
0.119;0.09;-0.02;1.02;-2.85;2.37;-1.81;355.33;-321.25;-390.00;1.02;-107.44;9.78;-1.25 
0.150;0.02;0.01;0.84;-1.04;11.20;-2.09;355.33;-322.20;-393.00;0.84;-107.54;9.64;-1.25 
0.180;0.00;0.00;0.82;-1.53;0.97;-1.88;352.35;-318.38;-392.00;0.82;-107.64;9.65;-1.26 
0.210;0.02;0.00;0.95;-1.04;-0.56;-1.95;354.34;-318.38;-391.00;0.95;-107.73;9.78;-1.26 
0.240;0.02;-0.02;0.89;-0.49;4.87;-2.78;357.32;-319.33;-391.00;0.89;-107.82;9.90;-1.26 
0.270;0.00;0.01;0.85;-1.67;0.42;-2.02;354.34;-318.38;-391.00;0.85;-107.93;9.91;-1.26 
0.299;0.03;-0.05;0.91;-1.11;-1.39;-0.77;354.34;-315.51;-390.00;0.91;-108.03;10.06;-1.27 
0.329;0.06;-0.03;0.90;-1.18;1.18;1.11;357.32;-315.51;-392.00;0.90;-108.20;10.17;-1.31 
0.359;0.01;0.00;0.88;-0.42;0.97;1.95;355.33;-317.42;-391.00;0.88;-108.39;10.32;-1.31 
0.388;0.01;0.01;0.84;-2.50;-1.95;2.85;351.36;-318.38;-395.00;0.84;-108.63;10.39;-1.33 
0.418;0.06;0.01;0.86;-3.48;-3.48;-0.70;353.35;-317.42;-392.00;0.86;-108.81;10.65;-1.40 
0.449;0.12;0.00;0.86;-2.09;-0.07;-2.99;352.35;-320.29;-391.00;0.87;-108.90;10.88;-1.43 
0.479;0.14;-0.04;0.78;-2.71;-5.08;-1.11;354.34;-321.25;-393.00;0.79;-108.98;11.09;-1.46 
0.509;0.19;-0.03;0.96;-1.60;-16.83;3.55;352.35;-320.29;-388.00;0.98;-109.15;11.63;-1.54 
0.539;0.23;0.00;1.18;-1.67;3.97;4.66;352.35;-326.03;-392.00;1.20;-109.39;12.17;-1.57 
0.569;0.14;-0.04;0.91;-2.50;40.28;2.57;354.34;-323.16;-390.00;0.92;-109.66;11.64;-1.64 
0.599;-0.03;0.00;0.68;0.49;21.70;1.67;354.34;-315.51;-394.00;0.68;-109.92;10.69;-1.66 
0.629;0.08;0.00;0.83;2.71;2.99;0.21;350.37;-312.64;-389.00;0.83;-110.10;10.59;-1.58 
0.660;0.16;0.00;1.00;2.16;13.84;0.28;353.35;-310.73;-392.00;1.01;-110.26;10.51;-1.48 
0.690;0.14;-0.02;0.92;0.90;21.15;2.50;352.35;-309.77;-390.00;0.93;-110.46;10.16;-1.42 
0.720;0.11;-0.02;0.86;2.50;23.44;4.52;352.35;-304.04;-390.00;0.87;-110.72;9.70;-1.36 
0.751;0.08;0.02;0.82;2.23;24.49;4.94;355.33;-301.17;-388.00;0.82;-111.04;9.10;-1.25 
0.780;0.11;0.01;0.91;0.49;23.86;5.70;350.37;-298.30;-389.00;0.92;-111.37;8.55;-1.20 
0.810;0.10;0.01;0.91;0.49;32.14;5.98;355.33;-294.48;-389.00;0.92;-111.69;7.92;-1.14 
0.840;0.06;0.02;0.85;0.97;39.30;4.80;356.32;-285.87;-382.00;0.85;-112.02;7.03;-1.11 
0.870;0.04;0.02;0.79;1.18;35.76;3.48;356.32;-278.22;-383.00;0.79;-112.31;5.98;-0.99 
0.900;0.13;0.01;0.89;0.28;28.73;2.64;360.29;-275.35;-379.00;0.90;-112.55;5.23;-0.90 
0.930;0.09;-0.04;0.94;0.28;45.36;5.01;357.32;-267.71;-382.00;0.95;-112.80;4.39;-0.86 
0.961;-0.03;-0.02;0.74;1.04;57.25;6.89;357.32;-258.14;-377.00;0.74;-113.13;2.93;-0.82 
0.990;-0.13;-0.02;0.58;4.45;44.94;9.04;358.31;-251.45;-374.00;0.59;-113.50;1.53;-0.72 
1.020;-0.09;-0.06;0.62;6.96;31.30;15.51;360.29;-245.72;-371.00;0.63;-114.01;0.38;-0.56 
1.051;0.00;0.00;0.58;7.37;27.83;18.43;363.27;-242.85;-366.00;0.58;-114.66;-0.42;-0.35 
1.081;0.06;0.08;0.45;4.03;35.55;15.79;368.23;-239.02;-363.00;0.46;-115.33;-1.14;-0.06 
1.111;0.09;0.26;0.42;1.60;20.17;-0.28;367.24;-235.20;-363.00;0.50;-115.76;-1.75;0.41 
1.141;0.01;0.17;0.65;8.35;-12.31;-15.30;368.23;-233.29;-360.00;0.67;-115.66;-1.68;0.96 
1.170;0.02;0.02;1.03;7.93;-8.56;-17.18;370.22;-237.11;-356.00;1.03;-115.28;-1.10;1.26 
1.200;0.30;0.04;1.10;-0.07;37.36;-10.85;366.25;-227.55;-352.00;1.14;-115.00;-1.14;1.41 
1.230;0.28;0.04;0.98;-4.03;69.01;-2.78;370.22;-223.72;-349.00;1.02;-114.93;-2.46;1.39 
1.260;0.12;0.12;0.87;-2.92;91.62;-5.01;369.23;-212.25;-344.00;0.89;-114.97;-4.48;1.39 
1.289;0.16;0.16;0.66;-3.76;111.51;-8.35;366.25;-195.04;-338.00;0.70;-114.89;-7.09;1.44 
1.318;0.14;0.20;0.55;-2.50;122.02;-16.35;368.23;-179.74;-327.00;0.60;-114.63;-9.99;1.57 
1.349;0.02;0.24;0.53;-7.44;133.91;-29.15;365.26;-152.02;-310.00;0.58;-114.01;-13.34;1.66 
1.379;-0.02;0.09;0.40;-4.10;157.50;-37.84;363.27;-130.03;-297.00;0.41;-112.85;-17.48;1.49 
1.409;0.00;0.14;0.22;5.15;179.69;-53.98;357.32;-105.17;-280.00;0.26;-111.21;-22.24;1.20 
1.439;-0.24;0.01;0.03;-1.74;200.28;-73.95;353.35;-80.31;-252.00;0.24;-108.92;-27.97;1.11 
1.469;-1.48;-1.55;0.57;34.64;81.74;-80.63;337.46;-42.07;-221.00;2.22;-105.10;-33.68;-0.68 
1.498;0.14;-0.14;1.09;5.36;-60.10;80.49;340.44;-41.11;-216.00;1.11;-104.53;-33.81;-0.22 
1.527;0.71;-0.11;2.11;-35.97;184.35;81.53;344.41;-46.85;-220.00;2.23;-107.57;-33.18;0.68 
1.558;-0.30;-0.09;0.05;-57.04;503.86;147.27;364.26;-27.73;-179.00;0.32;-108.72;-44.01;1.90 
1.588;-4.66;0.75;-5.09;36.38;914.78;-25.95;384.11;-13.39;-109.00;6.94;-104.68;-66.00;3.13 
1.618;-0.74;0.48;-2.36;8.97;322.30;-0.70;386.10;-6.69;37.00;2.52;-97.44;-82.14;3.57 
1.648;-2.70;0.91;-3.05;-3.41;97.81;-64.28;382.13;-7.65;70.00;4.17;-94.38;-86.13;3.80 
1.678;-4.72;-2.74;-1.61;22.89;-303.72;46.68;367.24;2.87;69.00;5.69;-92.63;-87.01;1.07 
1.708;-0.36;0.22;0.20;-7.44;-10.16;144.49;368.23;6.69;43.00;0.47;-97.79;-81.23;3.99 
1.738;-0.30;1.04;-0.20;-23.58;20.31;44.10;403.97;-22.95;22.00;1.10;-101.11;-79.40;7.40 
1.769;-0.54;0.56;-0.53;18.37;52.52;-43.13;406.94;-22.95;26.00;0.94;-101.38;-79.56;8.28 
1.798;-0.92;-0.32;-0.88;17.04;13.08;-1.39;395.03;-19.12;36.00;1.31;-99.61;-81.31;7.46 
1.827;-0.62;0.01;-0.62;15.51;-16.42;15.23;396.02;-22.95;34.00;0.88;-99.47;-81.40;7.63 
1.857;-0.78;0.41;-0.66;-10.50;-24.07;-3.90;396.02;-23.90;32.00;1.10;-99.86;-81.02;8.09 
1.886;-1.02;0.20;-0.62;-2.02;-51.48;-15.79;396.02;-19.12;27.00;1.21;-99.90;-80.87;7.90 
1.916;-1.16;0.23;-0.26;-5.77;-56.28;-16.56;394.04;-18.17;21.00;1.21;-100.10;-80.35;7.67 
1.945;-1.28;0.11;-0.10;3.69;-18.99;-25.74;391.06;-13.39;11.00;1.29;-99.83;-80.13;7.06 
1.974;-1.57;-0.12;-0.15;8.07;16.97;-3.76;386.10;-13.39;12.00;1.58;-99.40;-80.34;6.69 
2.004;-1.46;-0.19;-0.30;5.08;49.04;17.88;387.09;-14.34;17.00;1.50;-99.05;-80.99;6.79 
2.034;-1.10;0.08;-0.51;-4.24;52.80;25.04;390.07;-22.95;28.00;1.22;-98.98;-81.56;7.39 
2.064;-0.95;0.36;-0.65;-6.12;24.21;8.07;395.03;-27.73;33.00;1.21;-99.12;-81.55;8.12 
2.094;-1.04;0.22;-0.58;8.83;14.05;-6.40;394.04;-26.77;38.00;1.21;-99.00;-81.53;8.36 
2.124;-0.88;0.02;-0.54;4.66;0.42;-6.19;395.03;-27.73;45.00;1.03;-98.63;-81.75;8.22 
2.154;-0.91;0.02;-0.53;-6.68;1.88;-1.81;391.06;-30.59;43.00;1.05;-98.32;-81.95;8.04 
2.184;-1.00;-0.07;-0.59;-9.11;10.64;12.66;394.04;-30.59;43.00;1.16;-98.41;-81.80;8.20 
2.214;-0.87;0.00;-0.70;-12.59;8.90;36.87;393.05;-36.33;46.00;1.12;-98.82;-81.15;8.82 
2.245;-0.87;0.10;-0.77;-24.97;-19.90;37.43;403.97;-40.16;47.00;1.17;-100.09;-79.92;10.06 
2.275;-0.99;0.26;-0.67;-26.30;-64.63;26.02;412.90;-42.07;32.00;1.22;-101.46;-78.83;11.16 
2.305;-0.97;0.54;-0.36;-13.43;-81.32;-4.94;415.88;-40.16;20.00;1.17;-102.68;-77.98;11.80 
2.335;-0.94;0.42;-0.26;2.16;-65.53;-36.66;414.88;-42.07;10.00;1.06;-102.91;-77.76;11.49 
2.365;-0.82;0.03;-0.25;0.07;-104.42;-47.58;406.94;-32.51;-1.00;0.86;-102.32;-77.82;10.37 
2.395;-0.74;-0.14;-0.07;-8.49;-147.13;-42.43;394.04;-23.90;-25.00;0.76;-101.60;-76.86;8.87 
2.425;-0.77;-0.11;0.29;-19.48;-173.29;-27.90;390.07;-22.95;-52.00;0.83;-101.49;-73.64;7.61 
2.456;-0.60;-0.13;0.62;-16.07;-121.88;-18.57;384.11;-21.99;-81.00;0.87;-101.82;-69.26;6.69 
2.486;-0.72;-0.07;0.70;-3.90;-18.37;-21.63;383.12;-21.03;-97.00;1.01;-101.70;-66.78;5.88 
2.516;-0.97;0.19;0.40;-7.72;42.23;-19.69;379.15;-18.17;-94.00;1.07;-101.08;-66.96;5.32 
2.546;-1.15;0.44;0.00;-22.61;64.07;-40.97;375.18;-14.34;-88.00;1.23;-100.27;-68.69;4.80 
2.576;-1.02;-0.18;-0.27;-7.58;17.04;-56.14;366.25;-7.65;-83.00;1.07;-98.38;-70.72;3.30 
2.606;-0.98;-0.90;-0.28;0.21;-30.54;-19.97;354.34;0.00;-79.00;1.36;-96.59;-71.29;1.69 
2.636;-0.97;0.00;0.02;-19.06;-54.12;43.48;358.31;-6.69;-92.00;0.97;-96.79;-70.14;1.55 
2.667;-1.15;1.09;-0.03;-15.51;-8.77;-28.80;357.32;-8.60;-99.00;1.58;-97.91;-69.13;2.29 
2.697;-1.02;-0.65;-0.20;0.83;-38.33;-60.66;346.40;-0.96;-103.00;1.23;-95.98;-69.06;0.42 
2.727;-0.97;-0.34;-0.03;-1.81;-64.28;10.30;342.43;2.87;-106.00;1.03;-95.25;-67.77;-0.59 
2.758;-1.04;0.26;0.02;3.48;-58.37;4.10;342.43;-2.87;-126.00;1.07;-95.90;-66.11;-0.26 
2.787;-0.94;0.26;-0.06;6.68;-44.94;-12.52;341.43;-0.96;-127.00;0.98;-96.30;-64.75;-0.07 
2.817;-0.95;-0.06;-0.12;5.84;-53.57;-14.40;339.45;-7.65;-140.00;0.96;-96.25;-63.76;-0.20 
2.847;-0.95;-0.15;-0.16;13.29;-74.92;-2.71;340.44;-8.60;-146.00;0.97;-96.27;-62.34;-0.30 
2.877;-0.92;-0.17;-0.12;17.60;-98.37;10.09;341.43;-16.25;-169.00;0.94;-96.82;-60.15;-0.03 
2.907;-0.86;-0.24;-0.05;18.50;-111.93;27.13;348.38;-24.86;-184.00;0.89;-97.84;-57.42;0.62 
2.937;-0.79;-0.14;0.02;22.82;-125.36;34.71;352.35;-32.51;-198.00;0.80;-99.29;-54.15;1.64 
2.968;-0.58;-0.18;0.09;21.91;-147.97;43.27;360.29;-48.76;-214.00;0.61;-101.06;-50.31;2.88 
2.997;-0.45;-0.24;0.28;25.74;-169.39;54.40;375.18;-80.31;-248.00;0.58;-103.00;-45.74;4.19 
3.027;-0.38;-0.02;0.54;21.91;-193.60;62.82;385.11;-106.13;-267.00;0.66;-105.27;-40.40;5.70 
3.057;-0.25;0.17;0.90;15.03;-198.68;48.90;390.07;-132.90;-282.00;0.95;-107.61;-34.01;7.23 
3.087;-0.30;0.42;1.26;1.67;-140.17;23.86;398.01;-161.58;-304.00;1.36;-109.44;-27.90;8.33 
3.117;-0.22;0.17;1.14;-0.97;-60.03;9.67;400.00;-187.39;-312.00;1.17;-110.14;-24.45;8.65 
3.147;-0.12;0.10;0.64;-4.24;-44.31;7.23;399.00;-199.82;-322.00;0.66;-110.63;-22.60;8.71 
3.178;-0.18;0.14;0.49;-1.32;-95.93;-2.99;399.00;-207.47;-320.00;0.54;-111.02;-20.38;8.93 
3.208;-0.09;0.07;0.73;-1.32;-145.11;-4.73;399.00;-222.77;-328.00;0.74;-111.06;-16.43;8.97 
3.238;0.00;0.00;0.99;-0.21;-147.34;1.88;400.00;-257.19;-342.00;0.99;-110.99;-11.69;8.82 
3.269;0.02;0.14;1.10;-1.32;-123.20;9.53;398.01;-275.35;-344.00;1.11;-111.13;-7.32;8.87 
3.299;0.06;0.19;1.10;-5.98;-103.65;7.93;400.99;-295.43;-350.00;1.12;-111.30;-3.51;8.84 
3.329;0.06;0.18;0.99;-6.54;-87.65;0.70;397.02;-313.60;-349.00;1.01;-111.33;-0.38;8.70 
3.359;0.08;0.16;0.90;-5.63;-85.22;-1.39;397.02;-325.07;-353.00;0.92;-111.21;2.36;8.58 
3.389;0.14;0.10;0.90;-10.92;-97.67;-1.81;394.04;-345.15;-354.00;0.92;-110.98;5.37;8.36 
3.419;0.20;0.03;0.95;-8.97;-104.28;-1.04;391.06;-363.31;-355.00;0.97;-110.65;8.60;8.04 
3.449;0.21;0.08;0.98;-6.26;-97.32;0.42;392.05;-377.66;-353.00;1.01;-110.32;11.84;7.77 
3.480;0.21;0.07;0.98;-6.05;-90.23;-0.14;385.11;-400.60;-347.00;1.00;-109.99;14.94;7.55 
3.510;0.26;0.16;0.98;-7.10;-100.17;-4.94;383.12;-414.94;-345.00;1.03;-109.56;17.90;7.32 
3.540;0.35;0.38;1.16;-4.45;-118.05;-20.17;383.12;-429.28;-340.00;1.27;-108.66;21.20;7.35 
3.570;0.47;0.24;1.34;-2.71;-111.72;-42.71;383.12;-441.71;-336.00;1.44;-107.03;24.63;7.76 
3.600;0.56;0.02;1.47;-3.90;-76.38;-41.25;389.08;-460.84;-330.00;1.57;-105.02;27.66;8.22 
3.630;0.54;0.05;1.20;1.74;-26.30;-36.87;389.08;-463.70;-322.00;1.32;-103.66;29.10;8.65 
3.660;0.44;-0.15;1.01;-0.14;-32.42;-38.61;393.05;-461.79;-324.00;1.11;-102.52;29.71;9.14 
3.691;0.13;-0.09;1.19;-3.48;-37.43;-17.18;395.03;-461.79;-321.00;1.20;-101.61;30.82;9.20 
3.721;0.10;-0.06;1.22;0.77;2.37;-10.64;397.02;-463.70;-323.00;1.23;-101.17;31.43;9.38 
3.751;0.44;0.08;1.04;-8.07;-7.79;6.89;392.05;-466.57;-323.00;1.13;-101.39;31.32;9.18 
3.782;0.60;0.26;1.20;-18.16;-16.90;-5.43;392.05;-467.53;-323.00;1.37;-101.49;31.87;8.72 
3.812;0.68;0.02;1.28;-5.77;35.97;-13.84;393.05;-467.53;-324.00;1.45;-101.28;31.82;8.58 
3.842;0.81;0.02;1.04;-8.21;67.62;3.62;388.08;-457.97;-333.00;1.32;-101.78;30.40;8.33 
3.872;0.82;0.22;0.94;-4.03;74.50;1.32;389.08;-451.27;-337.00;1.27;-102.56;28.73;8.03 
3.903;0.59;0.21;0.80;5.01;75.27;-14.61;394.04;-435.02;-342.00;1.02;-103.10;26.75;8.28 
3.933;0.43;-0.03;0.70;-0.28;59.06;-8.97;394.04;-422.59;-346.00;0.82;-103.44;24.86;8.52 
3.963;0.50;0.02;0.82;0.07;33.53;3.55;395.03;-413.03;-353.00;0.96;-103.97;23.75;8.40 
3.994;0.43;0.17;0.90;7.51;32.21;2.30;398.01;-411.12;-353.00;1.01;-104.52;23.10;8.42 
4.024;0.34;0.20;0.95;7.79;51.20;-6.19;396.02;-399.65;-358.00;1.03;-104.97;22.05;8.74 
4.054;0.32;0.17;0.84;5.77;58.23;-10.09;398.01;-393.91;-358.00;0.91;-105.32;20.54;9.08 
4.084;0.28;0.14;0.77;3.55;48.83;-10.30;400.99;-376.70;-365.00;0.83;-105.62;19.08;9.35 
4.113;0.21;0.10;0.81;0.21;45.63;-8.42;399.00;-368.09;-363.00;0.84;-105.86;17.85;9.51 
4.142;0.18;0.14;0.77;-0.97;53.70;-5.70;401.98;-359.49;-366.00;0.80;-106.19;16.57;9.54 
4.171;0.20;0.17;0.72;-1.25;58.71;-7.79;399.00;-347.06;-364.00;0.77;-106.55;15.13;9.62 
4.201;0.14;0.16;0.66;-2.78;49.18;-11.27;401.98;-337.50;-369.00;0.69;-106.82;13.66;9.76 
4.231;0.09;0.09;0.63;-5.91;43.76;-10.85;397.02;-326.03;-371.00;0.64;-106.97;12.43;9.78 
4.261;0.08;0.04;0.58;-6.47;44.38;-3.97;395.03;-319.33;-372.00;0.59;-107.21;11.24;9.59 
4.292;0.08;0.10;0.51;-4.10;45.43;2.37;392.05;-306.90;-371.00;0.53;-107.66;10.04;9.48 
4.322;0.00;0.16;0.44;-8.14;35.13;-1.39;391.06;-302.12;-370.00;0.47;-108.14;8.89;9.40 
4.352;-0.07;0.11;0.46;-10.50;18.16;-1.95;389.08;-296.39;-374.00;0.48;-108.43;8.07;9.31 
4.382;-0.06;0.10;0.51;-12.03;7.65;-1.67;384.11;-291.61;-376.00;0.52;-108.63;7.61;9.08 
4.411;-0.12;0.07;0.58;-10.99;7.51;2.43;387.09;-290.65;-377.00;0.60;-108.86;7.41;8.78 
4.440;-0.14;0.12;0.66;-14.26;12.17;3.34;381.14;-290.65;-378.00;0.69;-109.15;7.05;8.49 
4.470;-0.22;0.10;0.70;-13.91;6.33;7.58;381.14;-288.74;-376.00;0.74;-109.51;6.71;8.16 
4.500;-0.20;0.06;0.75;-16.21;0.28;7.10;377.17;-287.78;-381.00;0.78;-109.93;6.48;7.73 
4.529;-0.19;0.10;0.81;-15.30;-3.34;9.60;374.19;-290.65;-380.00;0.84;-110.38;6.45;7.26 
4.558;-0.18;0.11;0.93;-14.61;-4.80;8.49;372.20;-292.56;-384.00;0.95;-110.81;6.52;6.86 
4.588;-0.10;0.11;0.91;-16.42;2.43;8.56;369.23;-290.65;-385.00;0.92;-111.25;6.55;6.42 
4.617;-0.09;0.13;0.90;-16.90;8.63;0.83;364.26;-292.56;-388.00;0.91;-111.61;6.40;5.98 
4.647;-0.15;0.15;0.88;-18.43;6.96;-7.65;364.26;-289.70;-391.00;0.91;-111.76;6.11;5.55 
4.678;-0.16;0.10;0.93;-13.70;8.42;-17.11;359.30;-288.74;-392.00;0.95;-111.59;5.79;5.15 
4.708;-0.15;0.06;0.86;-6.68;12.52;-24.14;358.31;-285.87;-388.00;0.88;-111.21;5.32;4.95 
4.738;-0.13;0.12;0.85;-6.40;-1.32;-28.31;352.35;-281.09;-392.00;0.87;-110.66;5.00;4.88 
4.768;0.03;0.08;0.91;-8.35;-1.81;-37.84;349.38;-278.22;-395.00;0.91;-109.91;5.07;4.81 
4.799;0.05;-0.06;0.97;-9.74;17.67;-48.00;347.39;-273.44;-394.00;0.97;-108.84;4.92;4.71 
4.829;-0.03;-0.10;0.82;-7.44;19.27;-45.50;342.43;-264.84;-395.00;0.83;-107.68;4.26;4.46 
4.859;0.03;-0.16;0.81;-6.82;-3.48;-38.75;341.43;-261.01;-393.00;0.83;-106.65;4.06;4.34 
4.890;0.18;-0.32;0.85;-4.03;-12.59;-20.38;332.50;-256.23;-394.00;0.93;-105.89;4.54;3.99 
4.920;0.13;-0.26;0.86;-5.84;-17.67;-1.39;333.49;-259.10;-393.00;0.91;-105.78;5.25;3.58 
4.950;0.11;-0.14;0.86;-4.03;-13.01;5.84;334.49;-263.88;-398.00;0.88;-106.05;6.00;3.19 
4.980;0.11;-0.13;0.85;0.21;-13.50;7.17;335.48;-264.84;-393.00;0.87;-106.44;6.59;2.94 
5.010;0.10;-0.14;0.86;6.61;-14.96;10.02;333.49;-268.66;-395.00;0.88;-106.91;7.25;2.82 
5.040;0.05;-0.09;0.88;14.05;-10.78;9.74;334.49;-271.53;-398.00;0.89;-107.41;7.81;2.94 
5.070;0.02;-0.07;0.93;14.47;-4.52;8.07;343.42;-277.27;-399.00;0.93;-107.87;8.16;3.21 
5.101;0.01;-0.03;0.88;13.77;-2.92;5.84;339.45;-276.31;-394.00;0.88;-108.35;8.34;3.53 
5.131;0.00;-0.02;0.90;15.10;-7.72;-0.77;345.41;-280.13;-392.00;0.90;-108.66;8.66;3.95 
5.161;-0.04;0.04;0.90;17.53;-8.63;-4.73;345.41;-280.13;-388.00;0.90;-108.81;8.96;4.44 
5.191;0.00;0.08;0.91;9.25;-14.12;-3.90;351.36;-282.05;-391.00;0.91;-108.88;9.27;4.90 
5.220;0.00;0.00;1.02;4.59;-13.01;-4.10;354.34;-279.18;-393.00;1.02;-108.88;9.87;5.13 
5.250;-0.03;0.06;0.91;3.97;3.90;-3.62;355.33;-284.91;-390.00;0.91;-108.97;10.00;5.26 
5.280;0.00;0.02;0.79;1.88;-8.83;-1.95;358.31;-287.78;-390.00;0.79;-109.09;9.95;5.36 
5.309;0.06;-0.07;0.84;2.85;-21.84;6.89;358.31;-290.65;-391.00;0.85;-109.30;10.51;5.33 
5.339;0.06;0.00;0.90;4.24;-20.38;14.68;357.32;-292.56;-392.00;0.90;-109.74;11.27;5.24 
