Time(s) acc_x(g) acc_y(g) acc_z(g) gyr_x(°/s) gyr_y(°/s) gyr_z(°/s) mag_x(G) mag_y(G) mag_z(G) SVM(g) yaw(°) pitch(°) roll(°)
0.000;-0.40;0.26;0.88;3.20;8.97;-14.89;-38.94;-45.06;-386.00;1.00;121.01;-19.58;19.44 
0.030;-0.40;0.23;0.85;3.41;-1.74;-13.22;-44.93;-41.23;-386.00;0.97;121.49;-19.75;19.46 
0.060;-0.42;0.19;0.83;6.19;-3.27;-14.26;-41.93;-44.10;-386.00;0.95;122.05;-19.78;19.50 
0.090;-0.42;0.16;0.84;10.92;-3.83;-16.49;-39.93;-46.02;-390.00;0.95;122.73;-19.81;19.59 
0.120;-0.43;0.13;0.85;12.66;-10.37;-19.48;-39.93;-47.94;-391.00;0.96;123.54;-19.80;19.72 
0.150;-0.42;0.14;0.80;10.78;-13.36;-23.79;-40.93;-52.73;-393.00;0.91;124.54;-19.71;19.82 
0.181;-0.40;0.19;0.74;8.42;-9.39;-24.28;-39.93;-53.69;-394.00;0.86;125.64;-19.64;19.85 
0.211;-0.42;0.26;0.78;6.19;-1.95;-19.34;-42.93;-60.40;-394.00;0.92;126.55;-19.70;19.91 
0.241;-0.42;0.21;0.78;5.01;0.70;-13.43;-43.93;-61.36;-397.00;0.91;127.19;-19.89;19.98 
0.271;-0.42;0.22;0.80;4.10;-4.10;-6.12;-36.94;-61.36;-399.00;0.93;127.65;-19.98;20.09 
0.300;-0.40;0.16;0.78;2.92;-4.94;-2.37;-38.94;-66.15;-396.00;0.89;127.97;-19.87;20.19 
0.330;-0.40;0.13;0.82;2.64;-1.46;-5.98;-36.94;-67.11;-403.00;0.92;128.25;-19.82;20.21 
0.360;-0.39;0.12;0.84;0.70;-2.30;-10.16;-40.93;-61.36;-398.00;0.93;128.59;-19.89;20.13 
0.390;-0.40;0.14;0.82;-0.35;-6.40;-12.80;-39.93;-67.11;-398.00;0.92;129.10;-19.90;19.96 
0.420;-0.39;0.20;0.74;0.42;-4.24;-12.52;-43.93;-69.03;-400.00;0.86;129.64;-19.87;19.84 
0.450;-0.38;0.18;0.74;0.77;3.13;-8.00;-41.93;-70.95;-402.00;0.85;130.07;-19.94;19.79 
0.481;-0.41;0.22;0.78;0.35;5.43;-2.85;-40.93;-71.91;-401.00;0.91;130.29;-20.11;19.81 
0.510;-0.46;0.16;0.82;0.56;0.28;0.83;-39.93;-69.03;-402.00;0.95;130.38;-20.22;19.86 
0.540;-0.42;0.17;0.82;-0.21;-0.28;1.81;-42.93;-70.95;-400.00;0.94;130.42;-20.22;19.90 
0.571;-0.40;0.21;0.79;-2.02;-0.63;3.20;-41.93;-69.99;-400.00;0.91;130.44;-20.15;19.92 
0.601;-0.37;0.18;0.78;-2.85;0.97;4.94;-43.93;-69.03;-398.00;0.88;130.38;-20.07;19.92 
0.631;-0.37;0.17;0.84;-2.57;4.59;4.45;-41.93;-70.95;-400.00;0.93;130.28;-20.05;19.91 
0.661;-0.38;0.17;0.85;-1.74;4.94;5.29;-42.93;-68.07;-403.00;0.95;130.14;-20.12;19.92 
0.690;-0.38;0.19;0.85;-1.46;2.71;5.22;-43.93;-66.15;-398.00;0.95;130.00;-20.16;19.93 
0.720;-0.41;0.17;0.81;-0.77;1.81;4.45;-43.93;-65.19;-398.00;0.92;129.90;-20.14;19.96 
0.750;-0.38;0.16;0.84;-0.07;0.70;2.99;-41.93;-67.11;-403.00;0.94;129.86;-20.11;19.97 
0.781;-0.38;0.15;0.80;0.21;-0.70;0.00;-40.93;-66.15;-397.00;0.90;129.91;-20.06;19.96 
0.811;-0.37;0.17;0.80;0.49;-0.35;-2.50;-40.93;-64.24;-399.00;0.90;130.05;-20.04;19.93 
0.841;-0.38;0.22;0.79;0.77;0.42;-4.17;-42.93;-68.07;-398.00;0.90;130.25;-20.05;19.90 
0.870;-0.38;0.22;0.80;0.97;1.11;-2.57;-43.93;-69.03;-400.00;0.91;130.45;-20.06;19.91 
0.900;-0.38;0.22;0.80;1.11;0.97;-2.02;-40.93;-69.03;-399.00;0.91;130.61;-20.08;19.94 
0.930;-0.38;0.21;0.79;0.35;0.70;-1.32;-41.93;-66.15;-396.00;0.90;130.75;-20.09;20.00 
0.960;-0.37;0.23;0.79;0.07;1.81;-1.11;-41.93;-68.07;-402.00;0.90;130.85;-20.10;20.03 
0.990;-0.40;0.20;0.79;-0.70;1.88;0.28;-41.93;-68.07;-399.00;0.91;130.93;-20.13;20.05 
1.020;-0.38;0.19;0.80;-0.21;3.48;-0.35;-42.93;-67.11;-396.00;0.91;130.99;-20.19;20.08 
1.049;-0.38;0.22;0.82;-0.21;3.06;0.90;-37.94;-65.19;-400.00;0.93;131.03;-20.25;20.13 
1.080;-0.39;0.22;0.80;-0.21;0.97;1.88;-40.93;-67.11;-401.00;0.92;131.05;-20.25;20.15 
1.110;-0.38;0.22;0.80;0.00;1.60;1.25;-38.94;-65.19;-400.00;0.91;131.08;-20.24;20.19 
1.140;-0.38;0.21;0.78;0.14;3.34;0.90;-37.94;-66.15;-399.00;0.89;131.12;-20.28;20.24 
1.170;-0.38;0.22;0.81;-0.28;2.85;1.46;-41.93;-63.28;-400.00;0.92;131.14;-20.33;20.26 
1.199;-0.39;0.23;0.81;-0.42;1.04;2.30;-41.93;-65.19;-397.00;0.93;131.15;-20.33;20.30 
1.229;-0.39;0.23;0.78;-0.70;1.25;3.62;-39.93;-64.24;-399.00;0.90;131.13;-20.29;20.37 
1.259;-0.41;0.22;0.78;-0.83;2.43;3.76;-41.93;-62.32;-400.00;0.91;131.09;-20.30;20.42 
1.289;-0.39;0.20;0.77;-0.77;3.62;4.73;-38.94;-65.19;-398.00;0.89;131.01;-20.31;20.48 
1.319;-0.40;0.20;0.80;-0.90;2.50;4.45;-39.93;-61.36;-402.00;0.92;130.92;-20.29;20.51 
1.349;-0.38;0.20;0.78;-1.25;1.46;4.38;-39.93;-63.28;-398.00;0.89;130.85;-20.27;20.55 
1.380;-0.39;0.20;0.81;-1.04;1.88;4.66;-37.94;-63.28;-398.00;0.92;130.77;-20.23;20.58 
1.409;-0.40;0.18;0.77;-0.70;2.50;3.27;-34.94;-62.32;-403.00;0.89;130.70;-20.23;20.59 
1.439;-0.39;0.21;0.82;-0.83;2.71;2.64;-36.94;-63.28;-396.00;0.93;130.65;-20.26;20.60 
1.469;-0.38;0.21;0.82;-0.56;1.32;1.88;-37.94;-61.36;-402.00;0.93;130.64;-20.26;20.58 
1.499;-0.39;0.22;0.78;-0.21;-0.14;2.02;-35.94;-60.40;-396.00;0.90;130.67;-20.22;20.58 
1.529;-0.41;0.21;0.82;-0.35;0.42;1.95;-38.94;-55.61;-397.00;0.94;130.71;-20.19;20.59 
1.559;-0.39;0.20;0.80;-0.63;1.95;0.63;-37.94;-59.44;-398.00;0.91;130.73;-20.21;20.58 
1.590;-0.41;0.22;0.79;-0.90;0.07;0.63;-37.94;-56.57;-397.00;0.92;130.80;-20.20;20.56 
1.620;-0.40;0.20;0.77;-0.14;1.32;-0.97;-34.94;-57.52;-397.00;0.89;130.89;-20.19;20.53 
1.650;-0.43;0.21;0.76;-0.35;1.11;-0.21;-40.93;-55.61;-402.00;0.90;130.96;-20.22;20.52 
1.681;-0.38;0.18;0.80;-0.35;0.35;-0.14;-41.93;-58.48;-396.00;0.90;131.04;-20.25;20.50 
1.711;-0.40;0.18;0.78;-0.28;-0.49;-0.83;-38.94;-59.44;-400.00;0.89;131.15;-20.24;20.50 
1.741;-0.40;0.20;0.81;-0.07;0.14;-0.83;-38.94;-59.44;-397.00;0.93;131.27;-20.24;20.49 
1.770;-0.42;0.21;0.81;-0.14;-0.07;-1.04;-39.93;-62.32;-399.00;0.94;131.39;-20.27;20.45 
1.800;-0.40;0.22;0.79;-0.14;-0.97;-0.83;-39.93;-59.44;-398.00;0.91;131.52;-20.26;20.45 
1.830;-0.38;0.22;0.78;-0.49;-1.04;-1.11;-38.94;-58.48;-398.00;0.90;131.64;-20.24;20.41 
1.860;-0.39;0.22;0.78;-0.28;0.56;-1.18;-38.94;-61.36;-398.00;0.90;131.77;-20.24;20.38 
1.891;-0.39;0.23;0.79;-0.21;1.39;-0.97;-35.94;-61.36;-397.00;0.91;131.89;-20.26;20.36 
1.921;-0.39;0.21;0.84;-0.56;-0.07;-0.42;-39.93;-58.48;-399.00;0.95;131.99;-20.28;20.35 
1.951;-0.39;0.21;0.78;-0.42;-0.14;0.00;-39.93;-60.40;-398.00;0.90;132.09;-20.26;20.33 
1.980;-0.42;0.22;0.82;-0.35;-1.46;-0.42;-38.94;-62.32;-397.00;0.95;132.19;-20.25;20.30 
2.010;-0.41;0.22;0.82;-0.14;-2.09;-0.21;-38.94;-62.32;-396.00;0.94;132.30;-20.19;20.29 
2.040;-0.38;0.20;0.78;-0.56;-0.97;-0.07;-40.93;-64.24;-400.00;0.89;132.41;-20.13;20.29 
2.070;-0.39;0.21;0.83;-1.04;0.28;-0.21;-37.94;-61.36;-398.00;0.94;132.50;-20.13;20.27 
2.101;-0.41;0.22;0.78;-1.46;-0.42;0.28;-39.93;-63.28;-399.00;0.91;132.58;-20.13;20.24 
2.131;-0.38;0.22;0.79;-1.74;-1.25;0.97;-39.93;-64.24;-395.00;0.90;132.65;-20.11;20.20 
2.160;-0.36;0.22;0.78;-1.81;0.90;0.97;-40.93;-62.32;-399.00;0.89;132.69;-20.09;20.15 
2.191;-0.39;0.20;0.80;-2.30;1.11;1.67;-38.94;-62.32;-396.00;0.91;132.70;-20.10;20.10 
2.221;-0.36;0.20;0.80;-1.81;0.83;0.49;-40.93;-63.28;-397.00;0.90;132.73;-20.12;20.04 
2.251;-0.38;0.21;0.78;-1.53;0.97;1.39;-41.93;-63.28;-397.00;0.89;132.75;-20.12;20.02 
2.281;-0.38;0.18;0.79;-1.11;1.67;0.70;-41.93;-63.28;-395.00;0.89;132.78;-20.15;20.00 
2.311;-0.38;0.19;0.81;-0.49;1.67;-0.28;-40.93;-59.44;-395.00;0.91;132.84;-20.18;19.96 
2.340;-0.37;0.22;0.84;0.07;2.02;-0.70;-42.93;-61.36;-397.00;0.94;132.92;-20.24;19.94 
2.370;-0.35;0.21;0.79;0.28;-0.49;0.63;-39.93;-61.36;-400.00;0.89;133.00;-20.23;19.96 
2.401;-0.38;0.19;0.79;-0.56;1.74;1.39;-39.93;-59.44;-398.00;0.90;133.04;-20.22;19.97 
2.431;-0.39;0.20;0.87;-1.25;0.77;1.46;-43.93;-62.32;-399.00;0.97;133.06;-20.23;19.95 
2.461;-0.37;0.23;0.83;-1.60;-2.78;2.16;-39.93;-63.28;-399.00;0.94;133.09;-20.16;19.91 
2.492;-0.35;0.20;0.78;-1.53;-2.85;2.43;-41.93;-60.40;-397.00;0.88;133.12;-20.03;19.88 
2.521;-0.33;0.21;0.81;-1.25;0.83;2.23;-38.94;-64.24;-398.00;0.90;133.14;-19.96;19.86 
2.550;-0.38;0.19;0.78;-0.56;2.50;1.81;-38.94;-62.32;-397.00;0.89;133.12;-19.97;19.85 
2.580;-0.38;0.17;0.80;-0.42;2.92;0.77;-39.93;-61.36;-395.00;0.90;133.14;-20.00;19.84 
2.610;-0.36;0.22;0.80;-0.56;2.02;0.42;-38.94;-60.40;-397.00;0.90;133.16;-20.06;19.84 
2.640;-0.38;0.22;0.80;-0.35;0.07;0.70;-43.93;-60.40;-399.00;0.91;133.21;-20.09;19.83 
2.670;-0.38;0.18;0.77;-0.07;0.35;0.35;-41.93;-61.36;-397.00;0.88;133.28;-20.08;19.82 
2.701;-0.36;0.18;0.82;-0.14;1.95;-0.83;-37.94;-62.32;-397.00;0.91;133.36;-20.13;19.82 
2.731;-0.42;0.21;0.84;-0.42;1.39;0.28;-38.94;-61.36;-397.00;0.96;133.44;-20.17;19.79 
2.761;-0.38;0.20;0.79;-0.77;1.25;-0.63;-38.94;-61.36;-396.00;0.90;133.51;-20.21;19.80 
2.791;-0.38;0.19;0.77;-0.97;-1.11;0.77;-38.94;-61.36;-394.00;0.88;133.59;-20.21;19.76 
2.821;-0.38;0.21;0.77;-0.07;2.85;-0.97;-39.93;-58.48;-400.00;0.88;133.68;-20.23;19.75 
2.851;-0.37;0.19;0.81;0.00;4.87;-0.28;-41.93;-59.44;-395.00;0.91;133.74;-20.37;19.74 
2.881;-0.38;0.21;0.82;0.14;0.77;1.11;-41.93;-57.52;-395.00;0.93;133.77;-20.44;19.75 
2.912;-0.38;0.18;0.78;-0.07;0.97;0.42;-37.94;-59.44;-398.00;0.89;133.82;-20.44;19.73 
2.942;-0.39;0.18;0.82;0.14;3.62;-0.70;-38.94;-60.40;-393.00;0.93;133.90;-20.51;19.72 
2.972;-0.38;0.21;0.80;0.56;3.20;-1.32;-37.94;-56.57;-399.00;0.91;133.98;-20.63;19.69 
3.003;-0.42;0.19;0.82;0.28;1.25;-1.18;-39.93;-60.40;-398.00;0.94;134.08;-20.70;19.66 
3.032;-0.39;0.19;0.78;0.07;-0.77;-1.67;-39.93;-57.52;-396.00;0.89;134.21;-20.74;19.66 
3.062;-0.39;0.21;0.80;0.00;0.90;-2.09;-40.93;-60.40;-398.00;0.91;134.34;-20.78;19.61 
3.092;-0.40;0.22;0.82;0.70;2.78;-1.81;-42.93;-56.57;-394.00;0.94;134.47;-20.86;19.56 
3.122;-0.41;0.21;0.80;0.49;0.70;-0.90;-40.93;-59.44;-398.00;0.92;134.59;-20.94;19.53 
3.152;-0.43;0.22;0.75;0.42;-1.18;0.56;-39.93;-58.48;-395.00;0.89;134.69;-20.95;19.55 
3.182;-0.42;0.22;0.78;-0.21;1.25;-0.42;-42.93;-56.57;-396.00;0.91;134.77;-20.97;19.55 
3.212;-0.42;0.23;0.78;-0.35;0.83;0.00;-41.93;-61.36;-396.00;0.92;134.85;-21.05;19.53 
3.242;-0.39;0.20;0.79;-0.56;-2.57;1.53;-37.94;-60.40;-394.00;0.90;134.94;-21.03;19.50 
3.272;-0.42;0.18;0.77;-0.42;-2.09;2.23;-38.94;-57.52;-400.00;0.90;135.01;-20.99;19.50 
3.303;-0.43;0.22;0.79;-1.53;0.00;2.02;-38.94;-58.48;-399.00;0.93;135.04;-20.97;19.47 
3.333;-0.46;0.23;0.84;-1.81;-0.21;3.34;-40.93;-62.32;-397.00;0.98;135.04;-21.00;19.45 
3.362;-0.45;0.25;0.81;-1.11;-2.16;6.82;-40.93;-59.44;-394.00;0.96;134.97;-20.98;19.48 
3.392;-0.45;0.23;0.82;-2.02;-5.84;7.03;-40.93;-61.36;-399.00;0.96;134.89;-20.86;19.50 
3.422;-0.46;0.22;0.76;-3.06;-8.42;8.63;-39.93;-63.28;-398.00;0.92;134.79;-20.61;19.51 
3.452;-0.43;0.22;0.74;-3.41;-5.70;8.07;-39.93;-63.28;-398.00;0.88;134.70;-20.37;19.50 
3.482;-0.43;0.23;0.73;-3.13;-0.90;10.85;-38.94;-60.40;-397.00;0.88;134.52;-20.24;19.54 
3.513;-0.46;0.25;0.74;-3.55;-1.11;13.43;-42.93;-63.28;-398.00;0.91;134.22;-20.12;19.60 
3.543;-0.46;0.20;0.74;-4.17;-6.54;15.23;-37.94;-60.40;-396.00;0.89;133.87;-19.94;19.65 
3.573;-0.47;0.17;0.69;-2.43;-6.19;15.10;-37.94;-62.32;-401.00;0.85;133.54;-19.69;19.71 
3.602;-0.44;0.10;0.70;0.97;0.07;11.20;-37.94;-66.15;-398.00;0.83;133.27;-19.57;19.76 
3.632;-0.42;0.10;0.68;3.83;3.41;6.96;-33.94;-61.36;-397.00;0.81;133.08;-19.64;19.85 
3.662;-0.42;0.14;0.62;0.28;-0.56;2.99;-37.94;-61.36;-395.00;0.76;133.04;-19.75;19.88 
3.692;-0.38;0.13;0.53;-1.46;-1.25;1.60;-34.94;-59.44;-396.00;0.66;133.06;-19.82;19.87 
3.723;-0.29;0.18;0.50;-2.64;8.90;-1.53;-36.94;-61.36;-398.00;0.61;133.13;-20.04;19.82 
3.753;-0.30;0.21;0.53;-4.66;21.08;-1.46;-40.93;-59.44;-398.00;0.64;133.02;-20.54;19.76 
3.783;-0.38;0.18;0.64;-4.24;32.77;-2.85;-37.94;-50.81;-391.00;0.77;132.82;-21.35;19.65 
3.814;-0.43;0.20;0.80;-2.71;32.21;-4.10;-40.93;-46.98;-389.00;0.93;132.50;-22.46;19.49 
3.843;-0.38;0.34;0.83;-3.90;24.90;0.35;-40.93;-42.18;-391.00;0.97;132.28;-23.29;19.36 
3.872;-0.43;0.35;0.96;-6.12;17.74;10.57;-42.93;-39.31;-385.00;1.11;131.89;-23.76;19.40 
3.901;-0.54;0.26;1.00;-6.89;-0.49;12.10;-42.93;-34.51;-384.00;1.17;131.43;-23.92;19.37 
3.930;-0.50;0.12;0.89;-2.99;-28.24;13.08;-44.93;-37.39;-381.00;1.03;131.31;-23.45;19.30 
3.959;-0.44;0.15;0.77;-1.18;-36.45;8.28;-39.93;-42.18;-386.00;0.90;131.47;-22.46;19.30 
3.988;-0.42;0.24;0.67;-4.80;-29.01;5.08;-46.92;-49.85;-385.00;0.83;131.76;-21.54;19.28 
4.018;-0.41;0.30;0.68;-9.04;-20.17;6.40;-45.92;-50.81;-386.00;0.85;131.95;-20.88;19.23 
4.048;-0.42;0.23;0.72;-14.68;-21.84;9.11;-44.93;-54.65;-387.00;0.86;131.89;-20.32;19.07 
4.078;-0.40;0.18;0.71;-14.96;-31.86;14.12;-50.92;-60.40;-390.00;0.83;131.84;-19.56;18.77 
4.109;-0.40;0.16;0.67;-15.44;-38.61;13.57;-51.91;-65.19;-391.00;0.80;131.75;-18.43;18.44 
4.139;-0.41;0.20;0.68;-18.99;-37.15;13.36;-55.91;-69.99;-391.00;0.82;131.70;-17.33;18.09 
4.169;-0.34;0.21;0.77;-22.33;-42.02;11.34;-58.90;-78.62;-386.00;0.87;131.62;-16.20;17.64 
4.198;-0.35;0.16;0.70;-24.35;-54.40;13.91;-64.89;-88.20;-388.00;0.80;131.59;-14.85;17.11 
4.227;-0.34;0.19;0.77;-24.14;-61.98;9.88;-70.88;-94.92;-391.00;0.86;131.64;-13.15;16.51 
4.256;-0.36;0.21;0.72;-18.37;-64.07;14.68;-75.87;-107.38;-389.00;0.83;131.74;-11.45;16.08 
4.286;-0.32;0.22;0.77;-14.68;-70.40;12.73;-77.87;-116.01;-391.00;0.86;131.82;-9.64;15.73 
4.316;-0.30;0.19;0.74;-22.19;-88.28;14.12;-80.87;-128.47;-391.00;0.82;131.93;-7.35;15.31 
4.346;-0.22;0.22;0.64;-22.12;-99.34;12.66;-88.85;-151.48;-390.00;0.71;132.09;-4.72;14.77 
4.376;-0.18;0.18;0.49;-24.42;-108.80;21.77;-93.84;-164.90;-390.00;0.55;132.12;-1.76;14.27 
4.407;-0.20;0.09;0.36;-29.77;-100.10;21.08;-101.83;-184.08;-383.00;0.42;131.86;1.23;13.59 
4.437;-0.11;0.05;0.34;-26.09;-98.92;27.83;-107.82;-197.50;-381.00;0.36;131.52;3.95;12.71 
4.467;-0.06;0.01;0.35;-32.14;-95.03;36.52;-115.81;-216.68;-376.00;0.36;130.77;6.74;11.86 
4.498;-0.14;0.01;0.40;-56.77;-100.80;23.44;-127.79;-230.10;-366.00;0.42;129.99;9.87;10.44 
4.528;-0.04;0.12;0.36;-64.42;-114.37;28.73;-139.77;-244.48;-360.00;0.38;129.22;13.00;8.66 
4.558;-0.17;0.02;0.43;-85.70;-117.84;31.65;-155.74;-255.03;-343.00;0.46;128.36;16.16;6.46 
4.588;-0.29;0.09;0.56;-104.21;-153.74;33.18;-183.70;-273.24;-316.00;0.64;127.33;20.01;3.60 
4.619;-0.10;0.28;0.48;-114.37;-201.53;27.69;-202.67;-291.46;-292.00;0.56;125.97;24.86;0.23 
4.649;10.30;-1.84;5.34;-92.94;271.37;91.55;-222.63;-301.05;-258.00;11.75;125.00;29.22;-2.62 
4.679;0.53;-3.19;5.55;-149.08;-72.21;-132.10;-238.61;-268.45;-235.00;6.42;126.60;29.04;-6.64 
4.710;-0.54;0.00;1.03;105.46;-967.10;-11.13;-243.60;-375.83;-187.00;1.16;120.72;49.51;-4.85 
4.740;-1.42;0.91;0.37;50.50;-585.32;36.80;-237.61;-436.23;-110.00;1.73;100.30;74.41;-3.34 
4.770;-1.06;0.18;0.20;-105.32;-184.97;135.10;-252.58;-441.98;-53.00;1.09;87.92;81.17;-7.02 
4.800;0.65;-0.90;-0.77;-292.31;-350.33;-14.54;-269.55;-422.81;0.00;1.35;77.38;79.98;-9.47 
4.830;2.17;-0.70;-2.81;-185.67;-574.33;91.62;-247.59;-383.50;142.00;3.62;57.51;68.42;-9.14 
4.860;-0.31;0.23;-1.66;6.05;-188.52;42.30;-243.60;-326.93;191.00;1.70;42.54;54.70;-10.16 
4.890;-0.08;-0.26;-2.48;70.12;134.47;-45.63;-254.58;-317.34;187.00;2.49;43.00;53.50;-10.82 
4.921;0.25;-0.44;-1.79;-13.63;45.36;-47.51;-263.56;-342.27;168.00;1.86;45.14;54.39;-10.71 
4.950;-0.08;-0.13;-1.10;-4.17;220.73;-79.17;-253.58;-364.32;156.00;1.11;49.31;58.91;-9.18 
4.980;0.17;0.08;-0.50;6.47;172.10;-71.58;-252.58;-378.70;157.00;0.53;55.45;64.35;-7.12 
5.010;0.75;-0.12;-0.32;3.69;79.86;-12.45;-245.59;-415.14;129.00;0.82;59.84;67.97;-5.89 
5.040;1.26;-0.29;-0.53;2.43;44.10;-22.75;-245.59;-424.72;114.00;1.40;62.58;70.22;-5.63 
5.070;1.32;-0.38;-0.74;3.97;49.04;-2.16;-243.60;-432.39;106.00;1.56;64.17;71.47;-5.53 
5.100;1.16;-0.42;-0.57;1.25;100.66;-26.71;-244.60;-439.11;102.00;1.36;66.77;73.66;-5.49 
5.131;1.14;-0.24;-0.08;1.39;101.01;-35.27;-240.60;-448.69;88.00;1.17;71.50;77.27;-4.72 
5.161;1.02;0.02;0.13;-7.58;45.29;-13.70;-235.61;-452.53;72.00;1.03;75.40;80.12;-4.08 
5.191;0.92;-0.06;0.00;-11.69;-2.09;4.24;-237.61;-452.53;73.00;0.92;76.82;81.18;-3.89 
5.222;0.87;-0.38;-0.22;-0.83;-0.90;2.23;-231.62;-448.69;76.00;0.97;76.44;81.05;-4.35 
5.252;1.09;-0.30;-0.36;-1.46;-5.77;-16.14;-231.62;-447.73;78.00;1.19;76.45;81.03;-4.49 
5.282;1.21;-0.10;-0.46;-7.44;15.10;-18.57;-229.62;-447.73;77.00;1.30;76.89;81.24;-4.10 
5.312;0.94;-0.10;-0.29;-10.71;46.61;-2.50;-226.63;-452.53;76.00;0.99;78.16;82.15;-3.83 
5.342;1.02;-0.20;-0.02;-5.43;37.84;-2.78;-227.62;-455.40;74.00;1.04;79.88;83.39;-3.96 
5.372;1.01;-0.19;0.01;-6.68;8.28;-4.31;-226.63;-456.36;67.00;1.03;81.00;84.11;-3.96 
5.402;1.02;-0.16;-0.12;-2.78;-10.92;-5.15;-225.63;-457.32;72.00;1.04;81.12;84.18;-3.96 
5.433;1.09;-0.17;-0.26;-1.67;-11.62;-4.38;-225.63;-459.24;73.00;1.13;80.68;83.90;-4.00 
5.463;0.98;-0.09;-0.30;-0.28;2.78;-5.70;-220.64;-458.28;71.00;1.03;80.65;83.86;-3.95 
5.493;1.04;-0.07;-0.23;0.77;1.53;-0.49;-221.63;-457.32;73.00;1.07;80.80;83.93;-3.95 
5.523;1.03;-0.16;-0.25;0.77;3.76;-0.90;-224.63;-458.28;71.00;1.07;80.81;83.91;-4.12 
5.553;0.96;-0.17;-0.26;4.59;2.23;-7.79;-221.63;-462.12;66.00;1.01;80.93;83.95;-4.21 
5.582;1.06;-0.09;-0.30;6.68;1.60;-6.75;-220.64;-466.91;68.00;1.11;81.13;84.05;-4.13 
5.612;1.08;-0.08;-0.34;2.30;8.56;0.77;-224.63;-467.87;63.00;1.14;81.33;84.14;-4.14 
5.643;1.00;-0.22;-0.27;3.55;16.42;3.90;-220.64;-468.83;63.00;1.06;81.58;84.23;-4.39 
5.673;1.02;-0.23;-0.21;5.22;13.43;-2.37;-223.63;-468.83;58.00;1.07;81.89;84.30;-4.67 
5.703;1.03;-0.17;-0.22;3.34;13.50;-2.02;-222.63;-471.70;58.00;1.07;82.25;84.42;-4.79 
5.734;1.06;-0.18;-0.27;1.95;15.65;-0.35;-223.63;-472.66;56.00;1.11;82.63;84.51;-4.92 
5.764;0.95;-0.16;-0.25;2.92;21.50;-0.35;-220.64;-471.70;54.00;1.00;83.10;84.59;-5.06 
5.794;1.08;-0.14;-0.22;3.69;21.50;-6.12;-221.63;-474.58;47.00;1.11;83.80;84.74;-5.12 
5.823;1.11;-0.13;-0.26;3.83;18.30;1.04;-222.63;-474.58;44.00;1.15;84.38;84.81;-5.15 
5.852;0.96;-0.14;-0.26;2.71;29.70;-3.76;-223.63;-476.50;42.00;1.00;85.01;84.75;-5.25 
5.882;0.95;-0.16;-0.23;5.22;37.15;-0.42;-217.64;-478.41;36.00;0.99;85.92;84.61;-5.31 
5.912;1.11;-0.18;-0.18;6.75;42.02;-5.63;-218.64;-480.33;33.00;1.14;87.11;84.27;-5.36 
5.943;1.04;-0.15;-0.17;1.95;41.53;0.42;-221.63;-476.50;23.00;1.06;88.40;83.75;-5.35 
5.973;0.96;-0.19;-0.14;2.23;53.36;0.70;-218.64;-479.37;16.00;0.99;89.61;82.80;-5.55 
6.003;1.06;-0.20;-0.09;2.23;56.21;-6.19;-219.64;-478.41;8.00;1.08;91.19;81.69;-5.60 
6.034;1.07;-0.14;-0.07;0.49;51.27;-7.65;-218.64;-484.17;-5.00;1.08;92.97;80.47;-5.51 
6.064;0.98;-0.07;0.00;4.38;46.05;-3.20;-214.65;-486.08;-10.00;0.98;94.54;79.34;-5.39 
6.093;0.98;-0.13;0.05;5.77;48.77;3.27;-218.64;-485.13;-16.00;0.99;95.89;78.07;-5.42 
6.123;1.13;-0.18;0.26;5.98;47.17;1.46;-214.65;-483.21;-26.00;1.17;97.23;76.59;-5.57 
6.153;0.94;-0.15;0.29;15.37;11.27;-5.63;-216.64;-480.33;-31.00;1.00;98.01;75.65;-5.60 
6.183;0.90;-0.07;0.25;12.03;-4.80;-3.90;-218.64;-483.21;-37.00;0.94;98.24;75.37;-5.46 
6.213;0.99;-0.14;0.13;0.70;-11.27;-10.09;-216.64;-484.17;-37.00;1.01;98.07;75.66;-5.27 
6.244;0.98;-0.17;0.09;-0.97;1.46;-6.61;-211.65;-484.17;-37.00;1.00;97.96;75.94;-5.12 
6.274;1.04;-0.11;0.12;3.20;1.25;-12.73;-210.65;-485.13;-36.00;1.05;98.10;75.96;-4.97 
6.304;1.04;-0.04;0.18;2.50;-7.79;-7.86;-208.66;-488.96;-36.00;1.06;98.26;76.12;-4.67 
6.333;0.93;0.00;0.15;-4.24;-15.17;-2.16;-208.66;-486.08;-34.00;0.94;98.07;76.42;-4.55 
6.363;0.96;-0.05;0.07;-7.44;-16.70;-2.64;-208.66;-490.88;-32.00;0.96;97.64;76.87;-4.56 
6.393;1.06;-0.02;0.06;-5.08;-22.26;-2.50;-208.66;-490.88;-25.00;1.06;97.09;77.50;-4.52 
6.423;1.06;-0.06;0.00;-5.22;-20.87;2.57;-208.66;-491.84;-23.00;1.06;96.35;78.16;-4.57 
6.454;1.01;-0.07;0.00;-5.57;-17.88;7.10;-210.65;-489.92;-13.00;1.01;95.60;78.55;-4.82 
6.484;1.02;-0.09;0.02;-6.05;-20.10;7.58;-212.65;-488.96;-14.00;1.02;94.85;78.90;-5.07 
6.514;1.06;-0.18;-0.03;-8.56;-26.64;8.70;-211.65;-488.96;-11.00;1.08;93.85;79.32;-5.44 
6.545;1.03;-0.22;-0.14;-3.76;-25.18;3.69;-213.65;-486.08;2.00;1.06;92.59;79.89;-5.82 
6.575;1.00;-0.20;-0.13;-1.81;-15.58;0.63;-212.65;-487.04;5.00;1.03;91.56;80.43;-6.02 
6.604;1.06;-0.15;-0.14;-2.23;-5.22;-4.10;-211.65;-485.13;6.00;1.08;91.05;80.75;-6.07 
6.634;1.05;-0.10;-0.13;-1.04;-1.04;-1.18;-211.65;-486.08;6.00;1.06;90.81;80.92;-6.08 
6.664;1.03;-0.14;-0.14;-0.70;2.23;0.77;-212.65;-486.08;5.00;1.05;90.65;80.93;-6.14 
6.694;1.02;-0.18;-0.11;-0.56;7.72;0.63;-218.64;-485.13;5.00;1.04;90.55;80.83;-6.26 
6.724;1.02;-0.14;-0.04;-0.21;11.76;-2.78;-214.65;-486.08;5.00;1.03;90.62;80.62;-6.35 
6.755;1.02;-0.11;0.00;-0.42;10.43;-5.91;-216.64;-488.00;0.00;1.03;91.04;80.36;-6.30 
6.785;1.10;-0.04;0.03;0.28;2.78;-4.17;-210.65;-488.00;0.00;1.10;91.32;80.29;-6.18 
6.815;1.10;-0.06;0.05;-0.21;0.90;-0.14;-211.65;-488.00;0.00;1.10;91.41;80.30;-6.12 
6.846;1.00;-0.10;-0.02;-1.39;0.63;-1.81;-210.65;-489.92;-1.00;1.01;91.31;80.31;-6.16 
6.876;1.06;-0.14;-0.02;0.00;-3.13;-6.05;-209.65;-488.00;2.00;1.07;91.22;80.46;-6.10 
6.906;1.07;-0.11;-0.02;0.00;-3.76;-2.85;-208.66;-490.88;-3.00;1.08;91.22;80.54;-6.03 
6.936;1.02;-0.10;-0.08;-1.67;-1.53;-1.18;-208.66;-489.92;1.00;1.03;91.06;80.66;-6.02 
6.967;1.03;-0.10;0.00;-1.18;0.63;0.77;-208.66;-489.92;2.00;1.03;90.89;80.72;-6.07 
6.997;1.03;-0.14;-0.04;-1.18;0.83;0.63;-211.65;-488.96;-1.00;1.04;90.71;80.73;-6.14 
7.027;1.02;-0.14;0.00;-0.49;-0.77;-1.95;-209.65;-488.00;3.00;1.03;90.57;80.70;-6.23 
7.058;1.07;-0.12;-0.05;0.35;-1.18;-1.04;-211.65;-488.96;3.00;1.08;90.47;80.76;-6.23 
7.087;1.06;-0.09;0.00;-0.14;-0.70;2.85;-209.65;-490.88;2.00;1.06;90.39;80.77;-6.27 
7.117;0.96;-0.13;0.00;-2.57;-2.85;2.43;-208.66;-487.04;3.00;0.97;90.13;80.71;-6.43 
7.147;1.07;-0.18;-0.02;-1.88;-8.14;-1.88;-212.65;-490.88;4.00;1.09;89.99;80.74;-6.48 
7.177;1.07;-0.08;-0.09;1.18;-5.43;1.04;-210.65;-488.00;6.00;1.08;89.66;80.91;-6.52 
7.207;0.98;-0.08;-0.02;-0.49;-0.28;3.83;-210.65;-488.00;8.00;0.98;89.43;80.94;-6.60 
7.236;1.03;-0.12;0.04;-0.77;-5.01;2.57;-209.65;-488.00;8.00;1.04;89.23;80.84;-6.75 
7.267;1.10;-0.08;0.02;1.53;-15.44;3.83;-211.65;-486.08;12.00;1.10;88.82;80.94;-6.87 
7.297;0.94;0.00;-0.03;1.60;-20.17;15.65;-212.65;-486.08;17.00;0.94;88.02;81.02;-7.17 
7.327;1.06;-0.06;0.01;-2.78;-30.68;13.15;-213.65;-482.25;23.00;1.06;86.84;81.02;-7.67 
7.357;1.13;-0.10;-0.22;-1.46;-36.66;21.57;-217.64;-476.50;30.00;1.16;85.40;81.14;-8.10 
7.387;1.02;-0.17;-0.30;5.98;-24.97;33.81;-218.64;-469.79;42.00;1.08;83.36;80.51;-9.15 
7.417;1.06;-0.28;-0.42;6.89;-9.39;16.90;-224.63;-459.24;46.00;1.17;81.85;79.96;-9.90 
7.447;0.94;-0.30;-0.36;9.11;26.09;21.70;-223.63;-450.61;46.00;1.05;81.05;79.16;-10.70 
7.478;1.11;-0.28;-0.32;9.46;42.09;0.28;-226.63;-446.78;45.00;1.19;81.27;78.56;-11.16 
7.508;1.10;-0.22;-0.29;16.49;56.77;8.77;-226.63;-440.06;40.00;1.16;82.24;78.05;-11.31 
7.538;0.96;-0.18;-0.28;13.22;65.74;7.30;-224.63;-431.44;33.00;1.02;83.28;77.11;-11.63 
7.569;1.18;-0.26;-0.30;15.72;75.83;2.02;-221.63;-424.72;24.00;1.24;84.71;76.06;-11.76 
7.599;1.04;-0.22;-0.29;21.63;95.86;3.83;-224.63;-415.14;19.00;1.10;86.38;74.58;-11.89 
7.629;0.98;-0.23;-0.03;6.82;137.25;-0.28;-222.63;-411.30;7.00;1.01;88.95;72.36;-11.86 
7.659;0.94;-0.27;0.21;3.62;115.55;-13.36;-218.64;-407.47;-11.00;1.00;92.20;69.45;-11.69 
7.689;1.07;-0.18;0.20;2.92;108.80;-5.63;-218.64;-402.67;-25.00;1.10;95.11;66.81;-11.42 
7.719;0.85;-0.02;0.14;5.91;107.27;-7.86;-218.64;-395.00;-38.00;0.86;97.76;64.27;-11.08 
7.749;0.70;-0.09;0.26;12.52;113.11;2.92;-222.63;-392.13;-43.00;0.75;100.33;61.57;-10.72 
7.780;0.91;-0.16;0.45;14.05;116.94;-1.04;-222.63;-371.99;-70.00;1.03;102.72;58.31;-10.58 
7.810;1.01;-0.11;0.44;17.53;108.03;-1.60;-218.64;-361.45;-90.00;1.11;105.05;55.22;-10.17 
7.840;0.62;-0.10;0.41;18.85;110.89;5.50;-220.64;-353.78;-101.00;0.75;106.93;52.15;-9.87 
7.870;0.62;-0.16;0.54;25.95;104.97;5.08;-217.64;-340.35;-113.00;0.84;108.70;48.89;-9.51 
7.899;0.70;-0.18;0.70;25.81;96.35;8.49;-217.64;-326.93;-133.00;1.01;109.96;46.01;-9.02 
7.929;0.69;-0.15;0.68;16.21;91.76;3.97;-217.64;-311.59;-150.00;0.98;111.17;43.20;-8.68 
7.959;0.65;-0.09;0.66;7.58;97.04;6.75;-217.64;-302.96;-157.00;0.93;112.21;40.54;-8.48 
7.989;0.61;0.00;0.66;3.62;85.57;12.73;-218.64;-287.62;-167.00;0.90;113.16;37.96;-8.34 
8.019;0.53;-0.14;0.74;1.18;84.80;21.22;-222.63;-264.61;-176.00;0.92;113.66;35.40;-8.50 
8.049;0.56;-0.22;0.85;-6.12;83.69;16.28;-222.63;-256.94;-179.00;1.04;114.09;32.87;-8.87 
8.080;0.48;-0.22;0.81;-6.26;70.96;3.83;-225.63;-240.65;-187.00;0.97;114.55;30.58;-9.23 
8.110;0.47;-0.05;0.75;-8.07;61.08;-1.74;-230.62;-230.10;-184.00;0.89;115.37;28.63;-9.30 
8.140;0.46;-0.07;0.66;-8.70;75.83;5.36;-230.62;-212.84;-188.00;0.81;115.95;26.78;-9.44 
8.169;0.40;-0.17;0.72;-8.28;84.17;4.66;-234.61;-201.34;-193.00;0.84;116.59;24.55;-9.67 
8.198;0.38;-0.14;0.82;-4.03;87.93;8.00;-236.61;-189.83;-198.00;0.91;117.22;22.09;-9.87 
8.227;0.33;-0.06;0.70;8.49;63.44;21.22;-236.61;-175.45;-204.00;0.78;117.54;19.70;-9.95 
8.257;0.27;-0.17;0.73;23.44;72.00;39.37;-236.61;-164.90;-214.00;0.80;117.12;17.56;-9.66 
8.288;0.29;-0.15;0.88;-10.57;110.75;36.52;-236.61;-136.14;-225.00;0.94;116.56;14.56;-9.57 
8.318;0.20;-0.12;0.88;-4.73;102.47;62.26;-234.61;-114.09;-228.00;0.91;115.74;11.11;-10.00 
8.348;0.18;-0.15;0.87;4.24;116.38;80.90;-230.62;-93.96;-226.00;0.90;114.32;7.52;-10.26 
8.379;0.13;-0.30;0.85;1.88;101.77;90.23;-231.62;-66.15;-229.00;0.91;112.11;3.70;-10.38 
8.409;0.25;-0.23;0.89;-1.81;108.59;59.55;-225.63;-23.01;-230.00;0.95;110.31;0.25;-10.52 
8.439;0.06;-0.26;0.97;1.81;108.24;63.58;-215.64;-4.79;-227.00;1.01;108.99;-3.20;-10.47 
8.469;-0.06;-0.32;0.96;4.17;88.14;68.24;-213.65;17.26;-234.00;1.01;107.28;-6.46;-10.29 
8.499;-0.14;-0.38;1.07;15.58;66.85;42.64;-208.66;34.51;-231.00;1.14;105.81;-9.30;-9.81 
8.529;-0.32;-0.34;1.10;-7.58;41.46;34.92;-205.66;51.77;-240.00;1.19;104.69;-11.28;-9.36 
8.559;-0.38;-0.34;1.04;-6.75;48.97;9.39;-203.66;55.61;-235.00;1.16;104.18;-13.04;-9.48 
8.590;-0.55;-0.42;1.02;22.89;-6.82;5.77;-209.65;59.44;-236.00;1.23;103.95;-14.12;-9.45 
8.620;-0.32;-0.18;1.04;8.14;56.42;-23.51;-202.67;62.32;-244.00;1.10;104.19;-14.90;-8.65 
8.650;-0.33;-0.25;0.99;-6.82;39.51;-12.94;-211.65;62.32;-230.00;1.07;104.84;-16.11;-9.05 
8.680;-0.38;-0.23;0.90;-6.26;40.83;-27.55;-217.64;69.03;-225.00;1.00;105.44;-17.28;-9.44 
8.710;-0.29;-0.19;0.86;-13.43;34.43;-19.62;-218.64;69.03;-221.00;0.93;106.31;-18.40;-9.90 
8.740;-0.20;-0.10;0.69;-12.59;27.62;-2.43;-223.63;70.95;-214.00;0.73;106.76;-19.18;-10.29 
8.770;-0.39;-0.26;0.95;-12.73;72.28;1.81;-225.63;82.45;-208.00;1.06;106.48;-20.66;-10.59 
8.801;-0.25;-0.32;0.77;-12.66;16.35;-2.64;-223.63;84.37;-200.00;0.87;106.38;-21.44;-10.84 
8.831;-0.11;-0.24;0.67;-18.23;45.84;-16.49;-224.63;88.20;-199.00;0.72;106.71;-22.11;-11.57 
8.861;-0.35;-0.04;0.78;-12.73;52.45;-16.56;-228.62;88.20;-188.00;0.86;107.36;-23.57;-12.15 
8.890;-0.46;0.00;0.78;-7.51;19.27;7.65;-229.62;90.12;-185.00;0.91;107.49;-24.68;-12.40 
8.920;-0.46;-0.16;0.69;-3.13;18.50;26.16;-229.62;93.96;-182.00;0.84;106.87;-25.52;-12.13 
8.950;-0.53;-0.32;0.66;-5.84;18.85;15.72;-222.63;98.75;-178.00;0.90;106.15;-26.43;-11.93 
8.980;-0.57;-0.27;0.74;-4.31;18.09;7.37;-217.64;102.59;-180.00;0.97;105.82;-27.28;-11.95 
9.010;-0.51;-0.14;0.72;-4.94;13.84;10.30;-218.64;102.59;-178.00;0.89;105.48;-28.03;-11.89 
9.040;-0.55;-0.11;0.74;-6.75;21.29;23.93;-209.65;105.46;-178.00;0.93;104.93;-28.83;-11.65 
9.070;-0.55;-0.21;0.82;-9.39;27.69;28.66;-203.66;108.34;-180.00;1.01;104.08;-29.92;-11.35 
9.101;-0.54;-0.19;0.88;-1.32;15.37;25.46;-196.67;108.34;-174.00;1.05;103.24;-30.93;-11.01 
9.131;-0.49;-0.23;0.85;8.49;-6.40;36.52;-187.69;111.21;-178.00;1.01;102.25;-31.32;-10.37 
9.161;-0.38;-0.18;0.71;11.41;-17.60;34.85;-177.71;112.17;-183.00;0.83;101.12;-31.16;-9.52 
9.191;-0.34;-0.10;0.66;15.03;-18.92;31.44;-170.72;108.34;-185.00;0.75;100.05;-30.77;-8.63 
9.220;-0.42;-0.11;0.58;13.70;-7.03;33.11;-158.74;105.46;-190.00;0.72;99.02;-30.51;-7.69 
9.249;-0.42;-0.17;0.69;7.72;12.45;32.28;-153.75;104.50;-199.00;0.83;98.05;-30.72;-6.87 
9.278;-0.44;-0.22;0.82;4.80;16.70;32.42;-144.76;101.63;-200.00;0.96;97.16;-31.27;-6.26 
9.307;-0.57;-0.22;0.94;-0.28;18.92;17.88;-130.78;104.50;-204.00;1.12;96.47;-31.86;-5.82 
9.337;-0.64;-0.25;1.06;7.65;28.66;8.70;-126.79;103.54;-206.00;1.26;96.11;-32.35;-5.50 
9.366;-0.77;-0.39;1.28;48.28;-60.17;-12.31;-126.79;97.79;-209.00;1.54;96.07;-31.57;-4.95 
9.395;-0.78;0.00;1.15;65.81;-40.70;-38.61;-123.80;91.08;-220.00;1.39;96.83;-31.60;-3.97 
9.425;-0.78;0.26;1.04;28.38;-5.08;-26.09;-122.80;81.49;-229.00;1.33;97.87;-31.64;-3.02 
9.454;-0.80;0.18;0.85;42.71;-23.30;29.15;-111.82;75.74;-239.00;1.18;97.70;-31.05;-1.63 
