Time(s) acc_x(g) acc_y(g) acc_z(g) gyr_x(°/s) gyr_y(°/s) gyr_z(°/s) mag_x(G) mag_y(G) mag_z(G) SVM(g) yaw(°) pitch(°) roll(°)
0.000;-0.26;0.18;0.83;0.00;1.39;-0.83;-48.00;-73.88;-389.68;0.89;120.93;-11.13;16.56 
0.030;-0.26;0.14;0.82;0.00;0.90;-0.21;-51.00;-71.97;-385.68;0.87;120.89;-11.15;16.57 
0.059;-0.26;0.16;0.86;-0.35;0.70;-0.21;-49.00;-75.80;-389.68;0.91;120.84;-11.13;16.56 
0.088;-0.26;0.18;0.85;-0.21;0.83;-0.49;-47.00;-71.97;-388.68;0.91;120.78;-11.15;16.57 
0.118;-0.26;0.18;0.85;-0.28;0.97;-0.28;-51.00;-73.88;-389.68;0.91;120.74;-11.14;16.56 
0.148;-0.27;0.18;0.82;0.00;0.90;-1.04;-46.00;-74.84;-389.68;0.88;120.71;-11.15;16.55 
0.178;-0.26;0.18;0.85;0.00;1.39;-0.49;-50.00;-72.92;-386.68;0.91;120.68;-11.15;16.55 
0.208;-0.28;0.19;0.83;-0.42;0.90;-0.28;-50.00;-71.97;-386.68;0.90;120.63;-11.19;16.56 
0.239;-0.26;0.18;0.84;-0.35;0.56;0.28;-49.00;-71.97;-386.68;0.90;120.59;-11.16;16.56 
0.269;-0.22;0.20;0.89;-0.28;1.67;0.28;-49.00;-70.05;-389.68;0.94;120.51;-11.16;16.53 
0.298;-0.29;0.18;0.84;-0.35;1.53;0.56;-46.00;-76.76;-388.68;0.91;120.44;-11.17;16.51 
0.328;-0.26;0.19;0.84;-0.49;1.60;1.04;-44.00;-75.80;-390.68;0.90;120.37;-11.20;16.50 
0.358;-0.27;0.18;0.82;-0.56;0.42;1.18;-48.00;-76.76;-387.68;0.88;120.28;-11.18;16.49 
0.388;-0.29;0.16;0.85;-0.28;2.02;0.97;-47.00;-75.80;-386.68;0.91;120.20;-11.18;16.49 
0.418;-0.29;0.16;0.84;-0.42;0.49;0.63;-47.00;-71.97;-389.68;0.90;120.12;-11.19;16.49 
0.449;-0.27;0.18;0.85;-0.21;0.56;0.07;-47.00;-73.88;-388.68;0.91;120.06;-11.18;16.48 
0.479;-0.26;0.17;0.82;-0.21;0.97;-0.07;-51.00;-72.92;-389.68;0.88;120.00;-11.18;16.47 
0.509;-0.26;0.17;0.83;-0.14;1.32;-0.42;-49.00;-70.05;-388.68;0.89;119.95;-11.20;16.47 
0.539;-0.27;0.20;0.85;-0.21;1.18;-0.21;-49.00;-74.84;-389.68;0.91;119.92;-11.23;16.45 
0.568;-0.25;0.17;0.84;-0.21;0.77;0.00;-45.00;-71.97;-390.68;0.89;119.87;-11.23;16.46 
0.598;-0.26;0.18;0.86;-0.35;1.11;-0.07;-46.00;-71.97;-385.68;0.92;119.83;-11.22;16.46 
0.628;-0.26;0.17;0.81;-0.28;0.07;-0.21;-47.00;-75.80;-385.68;0.87;119.79;-11.21;16.44 
0.658;-0.26;0.16;0.82;-0.07;1.32;-0.56;-43.00;-70.05;-386.68;0.87;119.76;-11.20;16.44 
0.688;-0.28;0.19;0.87;-0.07;1.25;-0.77;-48.00;-72.92;-387.68;0.93;119.73;-11.22;16.45 
0.718;-0.26;0.19;0.86;-0.42;-0.28;-0.63;-48.00;-71.97;-391.68;0.92;119.72;-11.22;16.45 
0.748;-0.26;0.18;0.83;-0.35;0.14;0.14;-46.00;-74.84;-391.68;0.89;119.70;-11.20;16.46 
0.778;-0.21;0.22;0.85;-0.21;1.32;0.83;-49.00;-73.88;-387.68;0.90;119.64;-11.20;16.48 
0.808;-0.26;0.18;0.82;-0.56;1.11;1.32;-44.00;-71.97;-392.68;0.88;119.56;-11.19;16.49 
0.839;-0.26;0.18;0.85;-0.90;0.49;1.60;-48.00;-74.84;-386.68;0.91;119.47;-11.18;16.48 
0.869;-0.27;0.19;0.85;-0.56;0.00;1.25;-44.00;-70.05;-390.68;0.91;119.40;-11.15;16.47 
0.899;-0.26;0.18;0.85;-0.42;1.67;0.83;-46.00;-71.97;-391.68;0.91;119.33;-11.11;16.47 
0.929;-0.25;0.19;0.82;-0.14;1.53;1.46;-48.00;-72.92;-389.68;0.88;119.25;-11.13;16.47 
0.959;-0.29;0.18;0.82;-0.28;-0.21;1.25;-46.00;-71.01;-389.68;0.89;119.17;-11.11;16.49 
0.988;-0.26;0.18;0.84;-0.35;-0.14;1.46;-46.00;-71.97;-389.68;0.90;119.11;-11.05;16.47 
1.017;-0.29;0.21;0.85;-0.21;2.02;1.25;-48.00;-71.01;-390.68;0.92;119.04;-11.05;16.48 
1.048;-0.30;0.18;0.82;-0.49;-1.39;1.39;-44.00;-71.97;-387.68;0.89;118.96;-11.02;16.48 
1.078;-0.26;0.18;0.82;-0.90;-1.53;1.32;-45.00;-68.13;-390.68;0.88;118.90;-10.92;16.47 
1.108;-0.30;0.19;0.83;-0.90;0.42;0.21;-46.00;-72.92;-388.68;0.90;118.85;-10.90;16.45 
1.138;-0.27;0.18;0.82;-0.63;-1.95;0.42;-46.00;-72.92;-390.68;0.88;118.80;-10.86;16.45 
1.168;-0.30;0.14;0.79;-0.63;-1.11;-0.21;-47.00;-71.97;-388.68;0.86;118.78;-10.79;16.45 
1.198;-0.26;0.21;0.82;-0.21;-0.63;-0.90;-48.00;-73.88;-389.68;0.89;118.77;-10.75;16.43 
1.228;-0.27;0.19;0.83;-0.07;-1.39;-0.07;-47.00;-75.80;-387.68;0.89;118.76;-10.69;16.44 
1.257;-0.26;0.18;0.83;-0.77;-2.37;0.14;-47.00;-74.84;-387.68;0.89;118.76;-10.60;16.44 
1.287;-0.28;0.20;0.82;-1.11;-3.13;-0.14;-46.00;-75.80;-388.68;0.89;118.76;-10.51;16.43 
1.317;-0.28;0.18;0.83;-1.11;-3.76;1.18;-48.00;-76.76;-392.68;0.89;118.74;-10.40;16.42 
1.348;-0.27;0.19;0.85;-0.56;-4.17;1.18;-45.00;-74.84;-386.68;0.91;118.70;-10.25;16.44 
1.378;-0.27;0.20;0.82;-0.77;-4.10;0.90;-48.00;-77.72;-391.68;0.89;118.68;-10.12;16.42 
1.408;-0.26;0.17;0.82;-0.77;-1.46;0.21;-53.00;-78.68;-387.68;0.88;118.66;-10.01;16.41 
1.438;-0.26;0.18;0.86;-0.21;-1.18;-0.90;-47.00;-79.64;-389.68;0.92;118.65;-9.95;16.41 
1.468;-0.26;0.18;0.85;-0.35;-3.97;-0.35;-48.00;-81.56;-390.68;0.91;118.65;-9.85;16.39 
1.498;-0.26;0.18;0.85;-1.18;-5.57;0.35;-49.00;-80.60;-390.68;0.91;118.68;-9.70;16.39 
1.527;-0.26;0.19;0.84;-0.07;-3.20;0.42;-48.00;-82.52;-391.68;0.90;118.69;-9.54;16.37 
1.558;-0.26;0.18;0.86;-0.83;-7.37;0.07;-46.00;-80.60;-391.68;0.92;118.70;-9.41;16.37 
1.588;-0.27;0.19;0.85;-2.71;-12.17;-0.97;-50.00;-84.44;-393.67;0.91;118.77;-9.11;16.31 
1.618;-0.24;0.15;0.83;-2.23;-9.60;-3.34;-46.00;-88.28;-389.68;0.88;118.89;-8.79;16.22 
1.649;-0.24;0.21;0.82;-2.30;-6.19;-5.36;-52.00;-90.20;-388.68;0.88;119.05;-8.61;16.12 
1.679;-0.25;0.18;0.83;-2.50;-6.47;-6.19;-52.00;-91.16;-390.68;0.89;119.25;-8.44;16.04 
1.709;-0.27;0.19;0.85;-2.30;-4.17;-6.26;-51.00;-90.20;-392.68;0.91;119.44;-8.33;15.97 
1.738;-0.29;0.19;0.91;-1.88;-6.19;-5.57;-53.00;-93.08;-390.68;0.97;119.63;-8.24;15.89 
1.768;-0.30;0.18;0.86;-2.78;-12.38;-6.26;-51.00;-97.87;-390.68;0.93;119.86;-8.07;15.81 
1.798;-0.30;0.18;0.80;-3.20;-15.10;-7.30;-54.00;-99.79;-392.68;0.87;120.14;-7.76;15.70 
1.828;-0.30;0.21;0.83;-2.99;-13.84;-6.47;-56.00;-107.47;-390.68;0.91;120.43;-7.43;15.62 
1.859;-0.28;0.18;0.82;-3.55;-15.51;-5.36;-56.00;-109.39;-395.67;0.88;120.69;-7.12;15.53 
1.889;-0.24;0.17;0.82;-3.48;-16.28;-4.66;-60.00;-110.35;-391.68;0.87;120.94;-6.73;15.43 
1.919;-0.23;0.15;0.77;-5.29;-13.84;-4.73;-57.00;-118.02;-393.67;0.82;121.16;-6.40;15.29 
1.949;-0.26;0.19;0.78;-5.15;-11.06;-3.27;-56.00;-117.06;-391.68;0.84;121.34;-6.14;15.14 
1.979;-0.26;0.16;0.78;-5.36;-8.83;-3.20;-61.00;-119.94;-391.68;0.84;121.49;-5.95;15.01 
2.009;-0.27;0.16;0.80;-5.43;-10.09;-1.67;-61.00;-123.78;-392.68;0.86;121.58;-5.78;14.86 
2.039;-0.26;0.17;0.77;-3.48;-12.66;-1.53;-65.00;-127.62;-391.68;0.83;121.70;-5.56;14.75 
2.070;-0.21;0.15;0.74;-2.85;-9.67;-1.74;-66.00;-130.50;-394.67;0.78;121.83;-5.27;14.67 
2.099;-0.22;0.14;0.80;-3.69;-5.01;7.58;-65.00;-130.50;-388.68;0.84;121.78;-5.08;14.60 
2.129;-0.22;0.21;0.81;-10.02;-7.17;9.11;-67.00;-130.50;-389.68;0.87;121.54;-4.93;14.46 
2.160;-0.22;0.10;0.78;-7.37;-5.36;10.02;-70.00;-130.50;-390.68;0.82;121.23;-4.73;14.21 
2.190;-0.23;0.07;0.76;-7.17;-14.75;8.07;-71.00;-130.50;-393.67;0.80;120.94;-4.51;13.98 
2.220;-0.15;0.14;0.63;-12.38;-18.71;5.36;-72.00;-132.42;-391.68;0.66;120.81;-3.99;13.71 
2.250;-0.05;0.07;0.46;-5.01;0.00;11.76;-73.00;-136.25;-388.68;0.47;120.64;-3.62;13.44 
2.280;-0.12;0.00;0.52;2.43;37.98;9.81;-73.00;-126.66;-391.68;0.53;120.12;-3.94;13.39 
2.310;-0.17;-0.06;0.72;3.34;59.06;-1.11;-71.00;-117.06;-388.68;0.74;119.60;-5.35;13.30 
2.340;-0.14;0.05;0.90;1.46;38.75;-8.42;-72.00;-105.55;-387.68;0.91;119.42;-6.83;13.37 
2.371;-0.06;0.13;0.78;1.46;7.79;-5.98;-74.00;-103.63;-386.68;0.79;119.52;-7.35;13.34 
2.401;-0.20;0.19;0.76;2.43;15.93;3.76;-72.00;-97.87;-385.68;0.81;119.50;-7.56;13.44 
2.431;-0.21;0.09;0.85;-4.94;8.07;9.04;-70.00;-89.24;-384.68;0.88;119.16;-7.95;13.51 
2.461;-0.10;0.14;0.80;-8.49;-17.39;6.05;-67.00;-89.24;-389.68;0.82;118.91;-7.72;13.30 
2.491;-0.14;0.06;0.66;-5.63;-23.30;10.99;-69.00;-94.03;-388.68;0.68;118.78;-6.86;13.10 
2.521;-0.14;0.05;0.72;-2.43;-10.92;9.67;-70.00;-94.99;-387.68;0.74;118.56;-6.32;12.97 
2.551;-0.10;0.22;0.77;-8.97;-25.74;12.17;-73.00;-94.03;-387.68;0.81;118.30;-5.75;12.79 
2.580;-0.18;0.12;0.77;-3.27;-50.16;21.22;-70.00;-96.91;-388.68;0.80;117.97;-4.50;12.67 
2.609;-0.19;-0.04;0.65;-9.18;-54.96;20.03;-71.00;-105.55;-386.68;0.68;117.61;-2.96;12.45 
2.639;-0.23;0.10;0.64;-12.03;-48.14;6.82;-73.00;-107.47;-387.68;0.69;117.42;-1.41;12.15 
2.670;-0.21;0.25;0.62;-11.34;-58.30;8.00;-72.00;-119.94;-390.68;0.70;117.51;-0.02;11.85 
2.700;-0.26;0.09;0.65;-10.78;-72.70;17.32;-76.00;-127.62;-393.67;0.71;117.33;1.75;11.64 
2.729;-0.12;0.01;0.36;-12.80;-85.84;8.83;-79.00;-137.21;-392.68;0.38;117.25;4.13;11.28 
2.760;-0.06;0.05;0.23;-5.70;-38.33;15.58;-77.00;-148.73;-393.67;0.24;117.13;5.92;10.99 
2.790;-0.22;0.05;0.47;-20.94;-6.47;18.92;-82.00;-147.77;-394.67;0.52;116.61;6.20;10.47 
2.820;0.02;0.03;0.51;-36.59;9.46;-10.71;-85.00;-146.81;-391.68;0.51;116.33;5.98;9.54 
2.850;0.25;-0.22;0.46;-59.76;24.56;-30.26;-95.00;-138.17;-383.68;0.57;116.40;5.42;8.05 
2.881;-0.06;0.51;0.28;-76.66;170.99;-69.57;-105.00;-126.66;-369.69;0.58;117.04;3.09;6.13 
2.911;-0.37;-0.03;0.93;-25.81;-9.11;-33.46;-124.00;-96.91;-339.72;1.00;117.30;0.61;4.73 
2.941;4.66;-0.95;10.21;152.14;417.39;-102.89;-114.00;-64.29;-328.73;11.26;118.40;-2.38;4.76 
2.972;-5.38;3.46;1.98;110.19;-121.04;142.26;-81.00;-2.88;-289.76;6.70;113.68;-13.64;10.76 
3.001;2.49;-0.26;-0.57;-268.59;-841.67;-35.27;-118.00;-127.62;-237.80;2.57;113.18;1.99;10.29 
3.031;0.91;-0.73;-1.66;-137.11;2.23;80.83;-198.00;-168.88;-105.91;2.03;117.07;15.74;1.87 
3.061;-1.36;0.18;-1.04;99.34;27.90;121.67;-189.00;-189.03;-114.91;1.72;112.42;16.17;0.85 
3.091;0.94;-0.39;0.75;33.74;169.95;-146.85;-170.00;-185.19;-135.89;1.26;113.31;13.34;2.38 
3.120;0.80;0.38;1.38;45.98;23.93;-6.47;-161.00;-182.31;-158.87;1.64;116.17;10.00;4.25 
3.150;0.31;0.03;1.12;-20.45;-77.70;18.23;-161.00;-185.19;-163.86;1.16;115.68;10.99;4.28 
3.181;0.58;0.10;0.96;-8.28;-57.95;-15.37;-162.00;-203.42;-155.87;1.13;115.94;13.33;3.91 
3.210;0.14;0.08;1.02;-2.30;-49.60;33.67;-163.00;-216.86;-161.87;1.03;115.66;15.19;3.84 
3.240;-0.05;0.02;0.90;-2.43;-82.30;25.32;-165.00;-220.69;-168.86;0.90;114.77;16.96;3.59 
3.270;0.03;-0.25;0.51;-5.36;-77.50;20.45;-167.00;-233.17;-162.87;0.57;113.83;19.56;2.94 
3.299;0.00;-0.09;0.65;16.70;-32.70;-23.79;-168.00;-243.72;-159.87;0.66;113.68;21.08;2.82 
3.329;0.78;-0.03;1.02;16.70;-25.60;-24.90;-162.00;-252.36;-163.86;1.28;114.60;21.85;3.61 
3.359;0.21;-0.18;0.99;18.37;-48.70;30.96;-163.00;-260.03;-161.87;1.03;114.33;23.12;3.94 
3.389;0.36;-0.25;0.95;6.05;-71.03;-51.06;-161.00;-266.75;-161.87;1.05;114.11;24.93;4.21 
3.419;0.86;0.01;0.51;-0.35;-60.59;-64.70;-161.00;-273.47;-158.87;1.00;115.93;27.21;5.09 
3.449;0.37;0.11;0.72;23.93;-17.74;0.00;-159.00;-297.46;-152.87;0.82;116.71;28.49;5.90 
3.480;0.65;-0.16;0.88;15.23;-57.46;-28.17;-160.00;-308.01;-153.87;1.11;116.77;29.57;6.51 
3.510;0.77;0.15;0.54;2.16;-30.75;-63.58;-154.00;-315.69;-150.88;0.95;118.33;31.34;7.45 
3.540;0.48;0.29;0.66;10.99;-13.91;-18.50;-152.00;-325.28;-147.88;0.87;119.32;32.01;8.35 
3.570;0.82;0.24;0.75;5.36;-24.77;-28.17;-149.00;-332.00;-149.88;1.14;119.97;32.74;9.04 
3.600;0.62;0.30;0.58;4.87;-0.49;8.28;-148.00;-332.96;-141.88;0.90;120.39;33.41;9.50 
3.630;0.44;0.09;0.62;12.59;9.53;14.68;-142.00;-334.88;-149.88;0.77;119.92;33.59;9.52 
3.660;0.86;0.08;0.85;5.98;21.77;-18.92;-147.00;-332.00;-152.87;1.21;119.94;33.39;9.76 
3.691;0.41;0.22;0.64;1.25;29.01;6.47;-143.00;-327.20;-159.87;0.79;120.32;32.86;9.93 
3.721;0.34;0.14;0.69;6.61;41.53;1.46;-134.00;-320.49;-174.86;0.78;120.26;31.92;10.01 
3.751;0.69;0.06;0.91;9.53;52.87;-2.30;-135.00;-309.93;-182.85;1.14;120.52;30.62;10.25 
3.782;0.18;0.20;0.83;4.10;43.62;1.74;-127.00;-303.21;-197.84;0.87;120.59;29.24;10.34 
3.812;0.40;0.12;0.84;-0.77;29.01;-4.31;-119.00;-290.74;-212.82;0.94;120.83;27.98;10.44 
3.842;0.55;0.06;0.77;-2.57;38.26;-0.07;-123.00;-285.94;-213.82;0.95;120.95;27.24;10.35 
3.872;0.26;0.10;0.74;-3.83;39.79;-1.88;-121.00;-280.19;-220.82;0.79;121.01;26.20;10.22 
3.902;0.44;0.10;0.77;-9.67;35.90;-8.07;-122.00;-270.59;-223.82;0.89;121.24;25.08;10.04 
3.932;0.46;0.15;0.79;-9.81;44.66;-2.71;-129.00;-261.95;-228.81;0.93;121.47;24.09;9.81 
3.962;0.30;0.15;0.79;-11.55;43.06;-3.83;-129.00;-254.28;-230.81;0.86;121.56;22.94;9.54 
3.993;0.41;0.16;0.84;-16.83;49.53;-9.74;-130.00;-248.52;-233.81;0.95;121.83;21.56;9.31 
4.023;0.29;0.12;0.79;-23.65;45.50;-3.90;-135.00;-238.92;-233.81;0.85;122.11;20.23;8.76 
4.053;0.24;0.09;0.78;-25.32;54.61;-3.48;-145.00;-227.41;-238.80;0.82;122.27;18.80;8.08 
4.083;0.21;0.24;0.90;-30.40;66.57;-5.50;-150.00;-217.82;-240.80;0.95;122.51;17.05;7.35 
4.113;0.10;0.17;0.87;-37.98;64.90;2.02;-155.00;-210.14;-237.80;0.89;122.67;14.99;6.43 
4.143;0.14;0.14;0.85;-45.70;69.08;4.31;-165.00;-194.79;-241.80;0.87;122.71;13.01;5.25 
4.173;0.07;0.06;0.80;-45.98;84.03;5.08;-178.00;-177.51;-232.81;0.81;122.59;10.81;3.85 
4.204;-0.04;0.14;0.85;-43.34;98.23;8.49;-184.00;-160.24;-232.81;0.86;122.60;7.86;2.55 
4.234;0.02;-0.02;0.89;-46.26;98.37;24.28;-191.00;-142.01;-227.81;0.89;122.11;4.87;1.12 
4.264;-0.05;-0.06;0.89;-47.79;103.17;11.76;-205.00;-121.86;-215.82;0.89;121.57;1.83;-0.46 
4.295;0.04;0.02;0.90;-46.40;109.29;20.80;-216.00;-94.99;-203.83;0.90;121.13;-1.47;-1.93 
4.325;-0.08;-0.09;0.90;-42.16;113.11;33.39;-221.00;-71.97;-193.84;0.91;120.20;-4.89;-3.28 
4.355;-0.11;-0.10;0.93;-34.43;109.63;32.00;-225.00;-47.02;-177.85;0.94;119.14;-8.27;-4.36 
4.385;-0.18;-0.22;0.92;-25.46;102.19;43.90;-225.00;-28.79;-170.86;0.96;117.84;-11.54;-5.12 
4.415;-0.29;-0.24;0.92;-24.97;98.64;50.23;-226.00;3.84;-154.87;0.99;116.18;-14.87;-5.75 
4.445;-0.54;-0.34;1.02;-17.60;76.38;40.00;-222.00;22.07;-144.88;1.20;114.56;-17.96;-6.20 
4.475;-0.51;-0.22;0.99;-16.35;41.39;28.80;-224.00;36.46;-142.88;1.14;113.32;-20.07;-6.48 
4.506;-0.70;-0.46;0.92;-17.18;18.57;37.57;-226.00;39.34;-133.89;1.24;112.17;-21.47;-6.82 
4.536;-0.66;-0.34;0.90;-19.62;-11.34;10.43;-220.00;53.73;-131.89;1.17;111.15;-22.14;-7.25 
4.566;-0.41;-0.40;0.74;-11.41;-13.57;17.81;-223.00;52.77;-134.89;0.94;110.66;-21.89;-7.84 
4.596;-0.53;-0.41;0.84;5.43;9.81;22.96;-223.00;53.73;-135.89;1.07;109.92;-22.23;-7.95 
4.626;-0.58;-0.22;0.98;3.48;-21.01;21.84;-219.00;56.61;-137.89;1.16;109.17;-22.52;-7.70 
4.656;-0.21;-0.32;0.94;-0.42;-41.04;31.93;-212.00;57.57;-143.88;1.01;108.38;-21.74;-7.56 
4.686;-0.48;-0.26;0.81;10.50;-38.68;48.83;-207.00;56.61;-150.88;0.98;106.95;-20.83;-7.12 
4.717;-0.21;-0.22;0.96;4.31;-63.51;20.03;-202.00;50.86;-156.87;1.01;105.94;-19.63;-6.72 
4.747;-0.34;-0.34;0.76;6.54;-59.62;40.07;-197.00;47.98;-165.86;0.90;104.61;-18.01;-6.33 
