Time(s) acc_x(g) acc_y(g) acc_z(g) gyr_x(°/s) gyr_y(°/s) gyr_z(°/s) mag_x(G) mag_y(G) mag_z(G) SVM(g) yaw(°) pitch(°) roll(°)
0.000;1.02;0.18;0.00;0.70;-5.84;3.20;245.59;-711.06;151.00;1.04;-90.41;87.52;1.77 
0.030;1.02;0.13;0.01;0.14;-7.79;-1.46;243.59;-712.97;159.00;1.03;-90.18;87.65;1.77 
0.060;1.02;0.18;-0.05;1.81;-6.12;-5.98;247.59;-709.14;158.00;1.04;-89.90;87.73;1.83 
0.090;1.03;0.26;-0.03;2.09;-0.14;-8.83;248.58;-707.22;154.00;1.06;-89.39;87.52;2.18 
0.120;1.01;0.26;0.00;2.23;2.43;-6.96;251.58;-709.14;155.00;1.04;-89.19;87.30;2.41 
0.150;0.98;0.28;0.03;2.02;-0.07;-5.84;250.58;-705.31;158.00;1.02;-88.92;87.00;2.72 
0.179;1.02;0.27;0.03;3.55;-3.76;-2.09;252.58;-708.18;157.00;1.06;-88.75;86.91;2.84 
0.210;1.02;0.26;0.00;1.88;-2.85;-4.38;250.58;-706.27;160.00;1.05;-88.40;86.73;3.07 
0.240;0.98;0.30;0.00;1.95;-2.16;-2.30;252.58;-707.22;159.00;1.02;-88.25;86.68;3.15 
0.270;0.96;0.37;0.00;-3.83;-9.25;2.64;252.58;-707.22;159.00;1.03;-87.90;86.52;3.36 
0.301;1.14;0.39;0.00;-6.61;-16.28;26.64;250.58;-704.35;161.00;1.20;-87.46;86.61;3.36 
0.331;1.08;0.13;-0.08;-1.53;-2.50;26.37;249.58;-705.31;164.00;1.09;-87.58;87.07;2.92 
0.360;1.04;0.10;-0.07;-1.88;10.64;9.04;239.60;-709.14;163.00;1.05;-88.30;87.64;2.33 
0.389;1.02;0.17;-0.04;0.77;10.50;-0.63;240.60;-706.27;165.00;1.03;-88.64;87.67;2.26 
0.418;1.05;0.18;0.02;-0.77;10.30;-7.65;240.60;-709.14;162.00;1.07;-88.93;87.53;2.30 
0.448;1.05;0.28;0.08;-0.42;4.45;-6.33;244.59;-708.18;159.00;1.09;-88.80;87.10;2.67 
0.478;0.98;0.22;0.04;-0.14;0.42;-2.02;244.59;-710.10;160.00;1.01;-88.72;86.90;2.85 
0.508;1.01;0.26;0.01;0.35;-1.46;0.00;246.59;-710.10;161.00;1.04;-88.52;86.73;3.03 
0.538;1.01;0.20;0.02;-0.77;-3.48;-1.18;242.59;-709.14;160.00;1.03;-88.39;86.72;3.07 
0.568;1.04;0.26;0.00;-1.32;-2.23;-1.04;242.59;-710.10;161.00;1.07;-88.09;86.61;3.23 
0.598;1.00;0.26;0.00;-1.04;-0.42;1.53;243.59;-710.10;159.00;1.03;-88.08;86.68;3.18 
0.628;1.01;0.22;0.00;-0.42;-2.64;2.30;249.58;-709.14;162.00;1.03;-88.01;86.67;3.20 
0.657;1.01;0.21;0.00;-0.56;-5.70;0.83;243.59;-705.31;162.00;1.03;-87.86;86.67;3.23 
0.687;1.03;0.26;0.00;0.00;-7.44;-0.49;242.59;-707.22;158.00;1.06;-87.68;86.75;3.20 
0.717;1.04;0.23;0.00;0.42;-2.71;0.00;241.60;-709.14;166.00;1.07;-87.38;86.69;3.29 
0.746;1.03;0.21;0.00;-0.56;0.21;-2.09;241.60;-709.14;162.00;1.05;-87.35;86.70;3.28 
0.776;1.01;0.24;0.02;0.49;-2.57;-1.74;240.60;-705.31;165.00;1.04;-87.16;86.56;3.42 
0.807;1.02;0.25;0.00;4.52;-12.59;-3.62;245.59;-706.27;165.00;1.05;-86.69;86.38;3.62 
0.837;1.01;0.25;-0.05;2.64;-10.30;-2.43;245.59;-704.35;169.00;1.04;-86.12;86.20;3.78 
0.867;0.95;0.14;-0.06;15.58;-23.44;-0.28;243.59;-700.52;171.00;0.96;-85.55;86.00;3.92 
0.898;1.06;0.31;-0.10;-1.39;7.44;-13.57;246.59;-699.56;176.00;1.11;-84.99;85.66;4.21 
0.928;1.04;0.34;0.01;-2.09;17.39;1.32;248.58;-703.39;176.00;1.09;-85.13;85.46;4.50 
0.957;0.98;0.21;0.06;-5.08;0.42;-3.20;248.58;-705.31;171.00;1.00;-85.37;85.38;4.61 
0.986;1.00;0.22;-0.03;-6.40;-6.82;-6.61;246.59;-704.35;171.00;1.02;-85.12;85.22;4.77 
1.016;0.97;0.26;-0.06;-4.45;-3.41;-13.91;248.58;-698.60;170.00;1.01;-84.59;84.86;5.11 
1.045;1.03;0.26;-0.06;-2.30;-7.03;-5.63;253.58;-699.56;171.00;1.06;-84.04;84.47;5.48 
1.074;1.05;0.27;-0.09;-1.18;-4.80;-1.18;254.57;-697.64;174.00;1.09;-83.60;84.25;5.65 
1.103;1.02;0.26;-0.09;-0.07;1.25;0.83;253.58;-699.56;172.00;1.06;-83.40;84.14;5.74 
1.133;0.99;0.26;-0.06;1.32;1.04;0.70;254.57;-698.60;172.00;1.03;-83.37;84.11;5.78 
1.163;1.02;0.24;-0.05;1.74;0.49;1.18;254.57;-698.60;172.00;1.05;-83.34;84.08;5.81 
1.194;1.02;0.28;-0.01;0.21;-0.07;-0.07;253.58;-698.60;173.00;1.06;-83.27;84.03;5.86 
1.224;1.02;0.27;-0.05;-0.83;0.00;-0.35;252.58;-697.64;174.00;1.06;-83.16;83.93;5.95 
1.254;1.05;0.30;0.00;-1.46;-2.02;-0.70;251.58;-697.64;172.00;1.09;-83.10;83.90;5.98 
1.284;0.98;0.25;-0.06;-0.83;-3.13;-0.56;250.58;-699.56;174.00;1.01;-82.87;83.76;6.09 
1.314;1.02;0.26;-0.07;-0.28;-1.39;-0.35;251.58;-697.64;177.00;1.05;-82.65;83.63;6.20 
1.344;1.03;0.26;-0.06;0.14;0.28;0.35;253.58;-699.56;177.00;1.06;-82.52;83.53;6.28 
1.374;1.02;0.26;-0.02;0.07;1.39;0.63;251.58;-697.64;180.00;1.05;-82.43;83.45;6.36 
1.405;1.00;0.25;-0.04;0.28;1.04;0.07;251.58;-699.56;174.00;1.03;-82.35;83.37;6.45 
1.434;1.02;0.25;-0.06;0.00;-0.21;-0.14;251.58;-698.60;176.00;1.05;-82.23;83.27;6.54 
1.464;1.01;0.29;-0.04;-0.42;-0.14;0.49;257.57;-697.64;175.00;1.05;-82.14;83.21;6.59 
1.495;0.99;0.26;-0.05;-0.56;0.21;-0.07;255.57;-698.60;177.00;1.02;-82.02;83.10;6.71 
1.525;1.02;0.26;0.00;0.63;-0.42;0.97;251.58;-696.68;176.00;1.05;-81.93;83.02;6.78 
1.555;1.02;0.26;0.00;0.35;-1.53;1.74;257.57;-699.56;175.00;1.05;-81.82;82.96;6.82 
1.585;1.02;0.25;-0.06;-0.35;-1.18;0.90;254.57;-698.60;176.00;1.05;-81.67;82.89;6.87 
1.615;1.02;0.24;-0.06;0.21;-0.90;0.70;252.58;-698.60;178.00;1.05;-81.56;82.82;6.92 
1.645;1.02;0.25;-0.06;0.35;-0.49;0.42;251.58;-696.68;176.00;1.05;-81.45;82.75;6.98 
1.675;1.02;0.26;0.00;-0.07;0.49;0.07;252.58;-697.64;179.00;1.05;-81.38;82.69;7.04 
1.706;1.01;0.26;-0.06;-0.35;-0.14;0.56;253.58;-697.64;179.00;1.04;-81.30;82.62;7.10 
1.736;1.03;0.27;-0.11;-0.35;-0.07;0.63;251.58;-694.77;176.00;1.07;-81.22;82.56;7.15 
1.766;1.04;0.26;-0.05;-0.97;-0.56;0.21;253.58;-697.64;178.00;1.07;-81.11;82.48;7.23 
1.796;1.03;0.26;-0.03;-1.11;-0.90;0.35;251.58;-695.72;180.00;1.06;-81.00;82.39;7.30 
1.826;1.05;0.25;0.00;-1.60;-0.90;1.53;255.57;-698.60;174.00;1.08;-80.88;82.31;7.36 
1.856;1.06;0.26;-0.07;-1.53;-1.74;-0.14;255.57;-696.68;176.00;1.09;-80.81;82.27;7.39 
1.886;1.01;0.26;-0.11;0.83;-4.03;1.74;251.58;-696.68;180.00;1.05;-80.64;82.18;7.43 
1.917;1.01;0.25;-0.14;6.19;1.95;-0.90;250.58;-695.72;182.00;1.05;-80.46;82.09;7.48 
1.947;1.03;0.37;-0.09;4.45;10.71;0.90;251.58;-695.72;178.00;1.10;-80.45;82.03;7.57 
1.977;1.02;0.39;0.00;-1.46;8.63;12.59;248.58;-697.64;177.00;1.09;-80.63;82.07;7.61 
2.008;1.02;0.12;0.00;1.53;5.08;11.69;243.59;-702.43;175.00;1.03;-81.22;82.53;7.19 
2.038;1.06;0.04;0.00;2.37;-5.63;-4.17;245.59;-698.60;174.00;1.06;-81.34;82.65;7.05 
2.068;1.02;0.15;-0.07;0.35;-7.79;-7.03;244.59;-698.60;178.00;1.03;-80.98;82.45;7.20 
2.098;1.00;0.12;-0.06;-0.70;-0.97;-5.77;248.58;-698.60;180.00;1.01;-80.66;82.23;7.36 
2.129;1.02;0.14;0.00;-1.04;-1.39;-11.41;248.58;-698.60;180.00;1.03;-80.39;82.00;7.58 
2.159;1.02;0.20;-0.03;0.63;-8.07;-13.22;249.58;-695.72;180.00;1.04;-79.92;81.62;7.94 
2.189;0.95;0.30;-0.06;2.16;-10.23;-15.86;252.58;-695.72;182.00;1.00;-79.16;81.07;8.41 
2.220;1.02;0.32;-0.03;6.96;-6.26;-13.50;260.56;-692.85;185.00;1.07;-78.33;80.44;8.95 
2.249;1.02;0.31;-0.04;10.30;-10.57;-15.79;262.56;-692.85;188.00;1.07;-77.52;79.87;9.43 
2.279;0.98;0.29;-0.06;9.74;-6.61;-14.89;262.56;-688.06;188.00;1.02;-76.70;79.28;9.93 
2.309;1.05;0.32;-0.06;5.70;-10.92;-15.23;264.56;-688.06;194.00;1.10;-75.92;78.70;10.45 
2.339;0.97;0.30;-0.08;3.97;-19.62;-11.97;266.55;-682.31;198.00;1.02;-75.02;78.09;10.89 
2.369;1.02;0.30;-0.20;2.02;-19.27;-19.90;271.55;-676.56;198.00;1.08;-73.93;77.35;11.39 
2.399;1.06;0.37;-0.29;-1.18;-14.40;-19.83;273.54;-670.81;204.00;1.16;-72.72;76.49;12.02 
2.430;1.02;0.42;-0.36;-11.27;-2.09;-24.90;280.53;-675.60;204.00;1.16;-71.56;75.56;12.81 
2.460;1.06;0.48;-0.30;-15.72;21.63;-24.70;289.52;-668.89;202.00;1.20;-70.83;74.78;13.75 
2.490;1.03;0.42;-0.24;-18.16;35.20;-17.74;298.50;-670.81;194.00;1.14;-70.77;74.34;14.57 
2.520;1.09;0.38;-0.22;-18.64;38.19;-16.83;299.50;-670.81;191.00;1.18;-71.12;74.10;15.20 
2.549;1.02;0.44;-0.24;-24.97;47.44;-16.56;305.49;-673.68;185.00;1.14;-71.67;73.88;15.76 
2.579;1.01;0.51;-0.20;-24.56;62.82;-14.61;307.49;-675.60;171.00;1.15;-72.35;73.54;16.35 
2.609;1.03;0.32;-0.04;-27.48;77.98;-13.36;316.47;-684.23;151.00;1.08;-73.68;73.22;16.78 
2.639;0.97;0.42;0.06;-31.30;69.36;-21.08;320.46;-688.06;139.00;1.06;-75.10;72.49;17.30 
2.669;0.95;0.46;0.11;-32.90;67.97;-13.98;328.45;-692.85;124.00;1.06;-76.20;71.45;17.87 
2.699;0.90;0.40;0.14;-34.64;58.78;-12.24;330.45;-690.93;107.00;0.99;-77.46;70.51;18.13 
2.730;0.92;0.52;0.07;-32.49;60.24;-11.55;337.44;-693.81;88.00;1.06;-78.40;69.43;18.44 
2.760;0.90;0.49;0.08;-29.08;82.57;2.99;343.43;-698.60;73.00;1.03;-79.84;68.36;18.42 
2.790;0.82;0.44;0.26;-26.99;96.14;13.91;343.43;-703.39;56.00;0.97;-81.96;67.05;18.10 
2.820;1.04;0.26;0.38;-22.12;86.96;13.36;341.43;-707.22;32.00;1.14;-84.65;65.74;17.30 
2.849;0.64;0.16;0.39;-27.06;72.28;-2.92;337.44;-709.14;12.00;0.77;-86.65;64.29;16.76 
2.878;0.77;0.26;0.38;-21.77;72.63;-1.25;338.43;-710.10;-2.00;0.90;-88.26;62.69;16.41 
2.907;1.06;0.24;0.47;-16.00;51.69;1.32;339.43;-709.14;-18.00;1.18;-89.72;61.38;16.00 
2.937;0.61;0.15;0.34;-17.81;56.28;-15.72;340.43;-710.10;-24.00;0.71;-90.58;60.23;15.80 
2.967;0.78;0.29;0.46;-12.10;72.49;-15.72;343.43;-706.27;-42.00;0.95;-91.52;58.48;15.85 
2.997;0.78;0.25;0.54;-10.85;56.63;-25.95;347.42;-704.35;-60.00;0.98;-92.38;56.69;15.99 
3.028;0.61;0.36;0.58;-17.39;52.73;-34.23;355.41;-702.43;-68.00;0.92;-92.53;54.86;16.47 
3.058;0.64;0.38;0.66;-17.25;45.36;-13.01;361.40;-697.64;-77.00;0.99;-92.93;53.17;16.68 
3.088;0.73;0.28;0.54;-15.30;34.23;-21.77;361.40;-694.77;-92.00;0.95;-93.29;52.05;16.63 
3.118;0.72;0.31;0.52;-13.08;44.31;-29.36;370.38;-689.97;-101.00;0.94;-93.24;50.92;16.86 
3.148;0.68;0.41;0.57;-13.63;55.58;-23.86;374.37;-683.27;-112.00;0.98;-93.36;49.36;17.17 
3.178;0.61;0.36;0.66;-14.61;54.61;-23.23;378.37;-679.43;-122.00;0.97;-93.72;47.68;17.35 
3.208;0.57;0.38;0.70;-17.46;39.86;-24.14;383.36;-673.68;-135.00;0.98;-93.89;46.15;17.49 
3.239;0.60;0.44;0.65;-19.41;30.19;-16.56;388.35;-669.85;-147.00;0.99;-93.92;45.03;17.49 
3.268;0.59;0.36;0.58;-22.33;32.00;-15.37;389.35;-665.06;-153.00;0.90;-94.06;44.22;17.29 
3.297;0.57;0.34;0.67;-21.63;37.22;-25.88;391.35;-662.18;-162.00;0.94;-94.15;43.25;17.11 
3.328;0.51;0.38;0.66;-22.12;32.35;-30.61;394.34;-652.60;-169.00;0.92;-93.98;42.12;17.07 
3.358;0.48;0.42;0.68;-24.00;34.23;-30.05;399.33;-647.81;-181.00;0.93;-93.61;40.95;17.15 
3.388;0.44;0.42;0.72;-30.96;34.16;-23.93;401.33;-641.10;-192.00;0.94;-93.40;39.81;17.03 
3.418;0.46;0.34;0.70;-40.00;33.81;-32.07;399.33;-636.31;-201.00;0.90;-93.13;38.74;16.70 
3.448;0.45;0.32;0.74;-46.82;44.31;-39.72;405.32;-630.56;-210.00;0.92;-92.71;37.42;16.23 
3.478;0.37;0.40;0.74;-51.97;43.97;-45.77;405.32;-618.10;-231.00;0.92;-92.08;35.87;15.75 
3.508;0.38;0.29;0.77;-53.08;43.55;-54.47;405.32;-608.52;-243.00;0.91;-91.34;34.28;15.18 
3.539;0.35;0.32;0.74;-48.49;42.43;-61.22;409.32;-597.98;-253.00;0.88;-90.17;32.68;14.77 
3.568;0.37;0.26;0.75;-46.05;47.44;-62.75;406.32;-588.40;-266.00;0.88;-88.97;31.05;14.44 
3.598;0.33;0.16;0.82;-45.43;43.69;-81.04;414.31;-574.98;-279.00;0.90;-87.60;29.42;14.15 
3.629;0.26;0.18;0.83;-42.02;37.29;-87.58;419.30;-554.85;-293.00;0.89;-85.57;27.69;14.06 
3.659;0.18;0.28;0.86;-39.37;36.17;-78.12;423.29;-537.61;-302.00;0.92;-82.83;26.17;14.46 
3.689;0.16;0.13;0.95;-41.32;20.17;-103.17;427.29;-525.15;-311.00;0.97;-80.65;24.85;14.21 
3.719;0.15;0.20;0.94;-37.98;8.49;-99.20;432.28;-501.19;-323.00;0.97;-78.07;23.79;14.18 
3.749;0.04;0.14;0.91;-33.88;-1.46;-101.15;432.28;-484.90;-330.00;0.92;-75.48;23.03;14.15 
3.779;0.06;0.13;0.85;-33.74;-7.79;-101.36;439.27;-476.27;-329.00;0.86;-72.78;22.56;14.19 
3.809;0.14;0.16;0.86;-35.97;-0.77;-107.55;440.26;-460.94;-334.00;0.89;-70.10;22.06;14.19 
3.839;0.00;0.26;0.94;-37.08;-8.00;-103.23;442.26;-447.53;-338.00;0.98;-67.21;21.47;14.20 
3.869;0.02;0.06;0.94;-32.42;0.83;-93.22;438.27;-428.36;-344.00;0.94;-64.69;20.93;14.12 
3.899;0.03;0.13;1.01;-30.47;-14.96;-103.72;440.26;-415.90;-350.00;1.02;-62.17;20.78;14.21 
3.928;0.14;0.26;0.86;-27.48;-28.52;-91.06;441.26;-406.32;-351.00;0.91;-59.59;20.94;14.36 
3.958;0.22;0.21;0.78;-26.30;-15.79;-84.17;440.26;-396.74;-354.00;0.84;-57.34;21.32;14.46 
3.988;0.27;0.14;0.82;-19.13;-14.26;-75.55;438.27;-387.15;-353.00;0.87;-55.30;21.51;14.58 
4.018;0.30;0.13;0.74;-13.50;-5.57;-62.54;434.27;-377.57;-355.00;0.81;-53.62;21.75;14.82 
4.049;0.29;0.17;0.80;-14.19;19.20;-58.57;434.27;-368.94;-363.00;0.87;-52.14;21.54;15.00 
4.079;0.22;0.14;0.92;-12.17;12.31;-42.09;433.28;-366.07;-359.00;0.96;-50.91;21.04;15.09 
4.109;0.18;0.11;0.90;-16.28;12.66;-33.60;430.28;-349.78;-360.00;0.92;-50.16;20.78;14.96 
4.140;0.18;0.10;0.90;-21.91;14.96;-32.90;427.29;-344.03;-367.00;0.92;-49.47;20.48;14.61 
4.170;0.11;0.10;0.86;-23.44;9.11;-33.81;423.29;-336.36;-370.00;0.87;-48.85;20.17;14.09 
4.200;0.15;0.09;0.82;-14.26;3.90;-34.09;418.30;-331.57;-367.00;0.84;-48.22;20.10;13.71 
4.230;0.21;0.13;0.83;-6.82;11.90;-34.09;416.30;-321.99;-369.00;0.87;-47.55;20.02;13.67 
4.260;0.18;0.17;0.86;-7.51;11.69;-32.90;414.31;-317.20;-369.00;0.89;-46.87;19.83;13.75 
4.290;0.11;0.06;0.89;-7.10;12.52;-33.67;413.31;-306.66;-366.00;0.90;-46.25;19.59;13.76 
4.320;0.12;-0.03;0.87;0.70;10.43;-36.24;411.31;-298.03;-361.00;0.88;-45.59;19.48;13.95 
4.351;0.10;0.00;0.91;8.90;3.06;-39.93;411.31;-287.49;-363.00;0.92;-44.85;19.31;14.20 
4.381;0.01;0.21;0.82;13.08;2.23;-31.23;415.31;-283.66;-358.00;0.85;-44.09;19.26;14.77 
4.411;0.02;0.18;0.88;16.63;-0.42;-18.71;416.30;-274.07;-357.00;0.90;-43.78;19.46;15.39 
4.441;0.08;0.10;0.94;23.86;-5.70;-9.11;424.29;-272.16;-347.00;0.95;-43.67;19.72;16.02 
4.471;0.10;0.09;0.94;25.81;-14.33;-0.21;430.28;-264.49;-341.00;0.95;-44.01;20.29;16.63 
4.501;0.16;0.19;0.86;19.97;-18.78;-5.43;441.26;-262.57;-331.00;0.90;-44.35;21.07;17.20 
4.531;0.22;0.29;0.82;10.99;-4.94;-3.20;447.25;-259.70;-322.00;0.90;-44.60;21.77;17.66 
4.562;0.18;0.26;0.87;4.66;8.56;-3.13;450.25;-259.70;-321.00;0.93;-44.86;22.07;17.93 
4.592;0.15;0.26;0.92;2.30;14.19;-2.71;448.25;-260.66;-319.00;0.97;-45.10;22.00;18.02 
4.622;0.10;0.23;0.86;2.09;10.30;-0.28;450.25;-258.74;-322.00;0.90;-45.39;21.93;18.04 
4.652;0.08;0.19;0.82;3.34;10.71;1.67;451.25;-257.78;-326.00;0.85;-45.75;21.92;18.01 
4.681;0.06;0.18;0.89;5.91;7.72;1.60;447.25;-257.78;-325.00;0.91;-46.13;21.91;18.00 
4.711;0.02;0.26;0.89;5.29;3.83;5.50;450.25;-257.78;-327.00;0.93;-46.51;21.98;18.08 
4.741;0.03;0.29;0.86;3.20;1.95;12.52;453.24;-259.70;-323.00;0.91;-47.07;22.17;18.10 
4.771;0.06;0.21;0.85;1.46;2.78;15.17;456.24;-262.57;-323.00;0.88;-47.78;22.45;17.97 
4.801;0.07;0.17;0.87;0.56;6.61;16.63;455.24;-262.57;-323.00;0.89;-48.58;22.68;17.73 
4.831;0.06;0.15;0.94;0.07;4.17;11.13;454.24;-263.53;-325.00;0.95;-49.31;22.85;17.44 
4.862;0.06;0.13;0.90;0.42;0.97;5.98;454.24;-267.37;-325.00;0.91;-49.94;23.07;17.18 
4.892;0.06;0.15;0.91;0.83;-0.56;0.42;456.24;-268.32;-328.00;0.92;-50.37;23.30;17.02 
4.922;0.07;0.20;0.84;0.00;-3.41;-1.11;452.24;-269.28;-330.00;0.87;-50.68;23.54;16.94 
4.951;0.09;0.21;0.83;-0.77;-2.37;-1.81;455.24;-271.20;-330.00;0.86;-50.93;23.80;16.88 
4.981;0.09;0.20;0.86;-0.42;-1.81;-0.49;454.24;-273.12;-332.00;0.89;-51.21;24.06;16.81 
5.011;0.10;0.18;0.86;-0.07;-1.95;0.49;457.24;-270.24;-333.00;0.88;-51.52;24.29;16.70 
5.041;0.09;0.17;0.88;0.14;-3.97;1.32;456.24;-272.16;-331.00;0.90;-51.85;24.56;16.58 
5.071;0.13;0.18;0.86;-0.70;-3.62;2.64;457.24;-272.16;-334.00;0.89;-52.23;24.89;16.45 
5.101;0.13;0.20;0.90;-0.97;0.70;2.71;455.24;-272.16;-330.00;0.93;-52.62;25.15;16.30 
5.131;0.10;0.22;0.88;-1.95;0.42;0.83;458.23;-275.99;-332.00;0.91;-52.97;25.31;16.16 
5.162;0.08;0.21;0.86;-1.88;-1.88;0.63;456.24;-273.12;-330.00;0.89;-53.29;25.49;16.02 
5.192;0.10;0.19;0.87;-0.49;-1.88;1.25;455.24;-273.12;-330.00;0.90;-53.61;25.68;15.91 
5.222;0.06;0.14;0.83;0.00;-1.39;1.32;455.24;-274.07;-331.00;0.84;-53.93;25.89;15.82 
5.252;0.10;0.17;0.90;0.14;-2.43;1.67;455.24;-275.99;-332.00;0.92;-54.29;26.11;15.70 
5.282;0.12;0.18;0.90;0.35;-4.31;1.74;455.24;-275.99;-332.00;0.93;-54.64;26.37;15.60 
5.312;0.12;0.18;0.88;0.56;-4.17;1.95;453.24;-279.82;-328.00;0.91;-54.99;26.64;15.49 
5.342;0.14;0.18;0.86;0.21;-1.53;1.67;456.24;-278.86;-330.00;0.89;-55.34;26.89;15.38 
5.373;0.14;0.20;0.87;-0.21;0.28;2.09;454.24;-280.78;-329.00;0.90;-55.69;27.06;15.28 
5.402;0.14;0.18;0.87;-0.07;1.11;1.74;458.23;-280.78;-331.00;0.90;-56.04;27.18;15.17 
5.431;0.12;0.22;0.88;0.14;1.18;1.11;454.24;-278.86;-329.00;0.91;-56.37;27.29;15.06 
5.462;0.13;0.20;0.85;-0.28;1.32;1.39;456.24;-279.82;-328.00;0.88;-56.69;27.42;14.96 
5.492;0.13;0.19;0.85;-0.14;2.64;1.60;456.24;-281.74;-333.00;0.88;-57.02;27.48;14.86 
5.522;0.14;0.18;0.85;-0.35;4.17;0.83;454.24;-279.82;-334.00;0.88;-57.34;27.52;14.76 
5.552;0.14;0.18;0.90;-0.90;6.54;0.07;452.24;-278.86;-329.00;0.93;-57.63;27.48;14.67 
5.582;0.13;0.19;0.88;-1.46;7.37;0.77;457.24;-275.99;-332.00;0.91;-57.93;27.41;14.56 
5.612;0.14;0.18;0.85;-1.88;9.74;1.04;454.24;-277.91;-333.00;0.88;-58.23;27.29;14.43 
5.642;0.13;0.21;0.83;-2.71;13.50;0.07;456.24;-273.12;-333.00;0.87;-58.49;27.09;14.32 
5.673;0.13;0.22;0.88;-3.34;17.95;0.42;455.24;-270.24;-331.00;0.92;-58.78;26.76;14.17 
5.703;0.11;0.19;0.88;-4.38;15.65;1.04;453.24;-269.28;-331.00;0.91;-59.09;26.40;13.99 
5.732;0.14;0.17;0.87;-5.15;17.11;0.42;455.24;-265.45;-332.00;0.90;-59.40;26.11;13.78 
5.761;0.13;0.18;0.82;-4.87;22.19;0.56;456.24;-262.57;-331.00;0.85;-59.70;25.74;13.55 
5.790;0.13;0.14;0.79;-5.01;30.89;-0.70;454.24;-259.70;-329.00;0.81;-60.02;25.15;13.32 
5.820;0.10;0.15;0.84;-5.50;37.77;-2.37;451.25;-253.95;-334.00;0.86;-60.27;24.30;13.11 
5.850;0.06;0.17;0.78;-4.87;43.41;-4.03;450.25;-247.24;-332.00;0.80;-60.47;23.23;12.94 
5.880;0.04;0.14;0.77;-4.03;50.78;-5.63;447.25;-235.74;-332.00;0.78;-60.67;21.93;12.79 
5.910;0.02;0.16;0.79;-3.90;58.50;-7.65;448.25;-229.03;-333.00;0.81;-60.81;20.44;12.68 
5.940;-0.02;0.14;0.79;-3.34;65.18;-8.42;445.26;-216.58;-332.00;0.80;-60.98;18.94;12.61 
5.971;-0.03;0.12;0.78;-5.98;74.30;-11.69;441.26;-206.03;-334.00;0.79;-61.13;17.22;12.53 
6.001;0.00;0.14;0.76;-6.54;80.42;-13.50;444.26;-188.78;-334.00;0.77;-61.24;14.98;12.40 
6.031;-0.06;0.16;0.77;-4.73;93.29;-13.98;438.27;-177.29;-332.00;0.79;-61.36;12.61;12.35 
6.062;-0.11;0.21;0.75;-2.30;119.58;-12.31;436.27;-163.87;-327.00;0.79;-61.52;9.56;12.32 
6.092;-0.18;0.14;0.90;1.32;135.65;-7.37;427.29;-137.04;-320.00;0.93;-62.03;5.86;12.32 
6.122;-0.46;0.06;1.15;-5.84;138.99;-25.04;426.29;-119.79;-309.00;1.24;-62.74;1.82;12.21 
6.151;-0.64;0.23;1.42;-49.11;28.59;-27.06;411.31;-105.41;-304.00;1.57;-62.72;-0.83;11.27 
6.181;-0.57;0.26;0.86;-7.23;21.77;-22.54;403.33;-97.75;-311.00;1.06;-62.55;-1.43;10.56 
6.211;-0.65;-0.05;0.86;-33.18;47.44;-3.83;398.33;-92.00;-312.00;1.08;-62.86;-2.59;9.93 
6.240;-0.71;-0.02;0.98;-2.37;53.91;-3.76;392.34;-83.37;-311.00;1.21;-63.46;-4.19;9.09 
6.271;-0.67;0.03;0.89;8.70;47.86;6.68;393.34;-77.62;-305.00;1.11;-64.24;-5.72;9.06 
6.301;-0.65;0.00;0.88;12.45;53.29;5.57;393.34;-74.75;-300.00;1.09;-65.16;-7.28;9.29 
6.331;-0.66;0.08;0.86;15.51;48.21;3.83;397.34;-68.04;-288.00;1.09;-66.01;-8.73;9.62 
6.361;-0.73;0.12;0.85;20.52;56.14;6.26;400.33;-61.33;-273.00;1.13;-66.90;-10.20;10.13 
6.391;-0.78;0.11;0.87;22.75;53.15;4.38;405.32;-51.75;-262.00;1.17;-67.92;-11.88;10.77 
6.421;-0.80;0.10;0.86;8.07;46.12;-14.75;409.32;-54.62;-251.00;1.18;-68.60;-13.32;11.22 
6.451;-0.91;0.12;0.86;7.44;37.36;-19.97;407.32;-47.91;-242.00;1.26;-68.88;-14.68;11.22 
6.482;-0.78;0.10;0.87;8.63;16.07;-11.90;403.33;-42.17;-233.00;1.17;-69.10;-15.62;11.27 
6.512;-0.74;0.06;0.91;10.30;-2.09;-7.51;405.32;-43.12;-235.00;1.17;-69.37;-15.85;11.46 
6.542;-0.66;0.08;0.93;10.09;-31.37;-13.57;402.33;-44.08;-233.00;1.14;-69.41;-15.42;11.65 
6.573;-0.62;0.05;0.85;14.33;-47.86;-10.64;401.33;-49.83;-240.00;1.05;-69.17;-14.18;11.81 
6.603;-0.50;0.01;0.73;17.04;-56.21;-13.70;402.33;-55.58;-249.00;0.88;-68.86;-12.38;12.22 
6.633;-0.41;0.04;0.60;13.50;-62.54;-22.68;400.33;-60.37;-256.00;0.73;-68.30;-10.66;12.46 
6.663;-0.34;0.07;0.46;13.15;-55.79;-21.77;400.33;-66.12;-262.00;0.58;-67.60;-8.96;12.61 
6.693;-0.31;0.06;0.51;22.61;-49.18;-10.64;399.33;-69.96;-266.00;0.60;-67.13;-7.45;12.99 
6.723;-0.34;0.11;0.51;28.94;-51.27;-2.02;400.33;-81.46;-276.00;0.62;-66.95;-6.04;13.60 
6.753;-0.40;0.15;0.51;32.70;-53.70;8.77;403.33;-88.16;-277.00;0.67;-67.01;-4.51;14.52 
6.784;-0.34;0.15;0.50;31.51;-48.07;10.71;408.32;-96.79;-283.00;0.62;-67.31;-2.93;15.55 
6.814;-0.31;0.14;0.54;22.89;-38.12;2.09;415.31;-103.50;-286.00;0.64;-67.55;-1.59;16.36 
