Time(s) acc_x(g) acc_y(g) acc_z(g) gyr_x(°/s) gyr_y(°/s) gyr_z(°/s) mag_x(G) mag_y(G) mag_z(G) SVM(g) yaw(°) pitch(°) roll(°)
0.000;0.83;0.62;-0.05;0.90;8.14;9.04;480.16;-365.79;116.00;1.04;141.32;46.38;43.57 
0.030;0.82;0.62;-0.03;-0.97;7.51;4.87;479.17;-367.70;115.00;1.03;141.62;46.59;43.35 
0.060;0.83;0.62;0.01;-2.85;7.65;2.30;481.15;-367.70;117.00;1.04;142.43;46.61;43.31 
0.089;0.83;0.64;0.02;-3.55;4.17;0.56;481.15;-365.79;115.00;1.05;143.35;46.60;43.30 
0.119;0.80;0.69;0.00;-2.16;1.60;0.77;480.16;-369.61;116.00;1.06;143.94;46.57;43.32 
0.149;0.78;0.74;0.00;-0.49;1.11;1.32;483.13;-369.61;115.00;1.08;144.46;46.48;43.40 
0.180;0.78;0.73;0.00;-0.35;0.42;2.92;483.13;-371.52;114.00;1.07;144.65;46.42;43.45 
0.210;0.78;0.71;0.00;-1.39;3.90;2.50;482.14;-371.52;113.00;1.05;144.89;46.43;43.44 
0.240;0.80;0.72;0.00;-1.46;1.25;2.78;482.14;-372.48;115.00;1.08;145.44;46.38;43.47 
0.270;0.78;0.71;-0.02;-1.18;-2.50;5.29;482.14;-371.52;112.00;1.05;145.52;46.42;43.42 
0.300;0.78;0.72;-0.03;-0.83;-3.55;7.79;480.16;-375.34;116.00;1.06;145.20;46.55;43.30 
0.330;0.81;0.66;-0.06;-0.90;-2.99;8.77;476.20;-373.43;118.00;1.05;144.74;46.75;43.11 
0.360;0.80;0.70;-0.06;-1.60;-1.25;8.14;477.19;-376.30;113.00;1.06;144.40;46.97;42.90 
0.391;0.82;0.67;-0.06;-1.88;-0.83;8.21;476.20;-374.39;119.00;1.06;144.14;47.19;42.69 
0.421;0.86;0.66;-0.03;-3.48;1.32;5.36;476.20;-379.16;117.00;1.08;144.04;47.37;42.51 
0.451;0.81;0.72;0.00;-2.09;-0.28;7.58;478.18;-379.16;115.00;1.08;144.19;47.51;42.36 
0.482;0.79;0.73;-0.06;2.23;-3.62;12.03;472.24;-381.07;118.00;1.08;143.79;47.67;42.20 
0.512;0.82;0.66;-0.13;1.74;0.83;14.40;474.22;-382.03;118.00;1.06;142.82;47.98;41.91 
0.541;0.86;0.62;-0.05;-0.70;8.42;9.46;471.25;-385.85;117.00;1.06;142.59;48.26;41.63 
0.570;0.84;0.61;-0.03;-1.81;6.89;7.72;469.27;-386.81;116.00;1.04;143.03;48.43;41.44 
0.600;0.80;0.64;0.01;-0.70;2.71;6.26;467.29;-387.76;117.00;1.02;143.29;48.55;41.31 
0.630;0.82;0.64;-0.03;-0.14;3.97;8.00;466.30;-387.76;114.00;1.04;143.40;48.65;41.20 
0.660;0.86;0.60;0.00;-0.49;3.27;7.93;466.30;-392.54;118.00;1.05;143.39;48.85;40.99 
0.691;0.85;0.60;0.00;0.49;1.74;8.70;465.31;-397.31;118.00;1.04;143.36;49.09;40.75 
0.721;0.86;0.62;-0.02;0.42;0.70;7.79;467.29;-395.40;117.00;1.06;143.19;49.28;40.56 
0.751;0.88;0.58;0.00;-0.90;1.18;3.34;463.33;-397.31;118.00;1.05;143.46;49.34;40.49 
0.781;0.88;0.58;-0.03;-1.95;1.18;0.97;462.34;-395.40;116.00;1.05;143.61;49.39;40.43 
0.811;0.87;0.58;0.02;-0.77;1.18;-1.53;463.33;-397.31;116.00;1.05;144.07;49.28;40.53 
0.840;0.86;0.63;0.00;0.56;-2.16;-1.04;463.33;-395.40;118.00;1.07;144.39;49.11;40.70 
0.870;0.84;0.61;0.00;0.28;-4.59;-2.43;463.33;-398.27;116.00;1.04;144.25;49.01;40.81 
0.900;0.78;0.56;-0.03;-0.63;-3.20;-1.18;466.30;-395.40;119.00;0.96;144.24;48.85;40.98 
0.930;0.86;0.60;0.00;-1.88;-0.21;-3.13;462.34;-392.54;120.00;1.05;144.12;48.73;41.11 
0.959;0.85;0.64;-0.06;-2.02;0.56;-3.55;464.32;-394.45;119.00;1.07;144.33;48.59;41.25 
0.990;0.86;0.65;-0.05;-1.67;0.83;-2.92;464.32;-391.58;119.00;1.08;144.60;48.44;41.39 
1.020;0.83;0.64;-0.04;-1.04;0.35;-3.27;464.32;-396.36;116.00;1.05;145.08;48.24;41.59 
1.050;0.86;0.64;0.00;-0.42;-1.18;-2.57;467.29;-391.58;116.00;1.07;145.21;48.09;41.74 
1.080;0.85;0.64;0.00;-0.35;-0.83;-2.71;466.30;-391.58;119.00;1.06;145.09;48.00;41.84 
1.110;0.84;0.64;0.00;-0.35;0.77;-2.78;466.30;-388.72;116.00;1.06;145.09;47.87;41.97 
1.139;0.83;0.62;0.00;0.21;0.35;-2.30;466.30;-391.58;118.00;1.04;145.06;47.76;42.09 
1.169;0.83;0.66;-0.04;0.28;-0.14;-1.60;471.25;-389.67;118.00;1.06;145.01;47.66;42.19 
1.200;0.83;0.65;-0.03;-0.63;1.18;-1.53;470.26;-391.58;122.00;1.05;144.85;47.62;42.23 
1.230;0.84;0.65;-0.06;-0.97;1.18;-1.32;467.29;-389.67;117.00;1.06;145.22;47.46;42.39 
1.260;0.85;0.63;-0.04;-1.25;0.83;-1.25;468.28;-388.72;117.00;1.06;145.32;47.39;42.46 
1.291;0.84;0.65;-0.05;-0.97;1.53;-1.32;470.26;-388.72;118.00;1.06;145.54;47.30;42.55 
1.321;0.84;0.66;-0.03;-1.04;1.46;-0.42;469.27;-390.63;119.00;1.07;145.70;47.21;42.63 
1.351;0.86;0.64;0.00;-0.83;0.90;-0.49;467.29;-385.85;117.00;1.07;146.10;47.09;42.75 
1.381;0.83;0.66;-0.04;-0.90;0.35;-0.56;470.26;-390.63;115.00;1.06;146.09;47.05;42.79 
1.411;0.85;0.65;0.00;-0.90;0.07;-0.14;468.28;-389.67;117.00;1.07;146.08;47.00;42.84 
1.440;0.78;0.63;-0.03;-0.70;0.63;0.42;467.29;-390.63;120.00;1.00;146.35;46.90;42.94 
1.470;0.83;0.64;-0.02;-0.42;0.21;1.39;470.26;-386.81;114.00;1.05;146.57;46.82;43.01 
1.501;0.84;0.64;-0.04;0.21;-1.11;1.67;463.33;-387.76;116.00;1.06;146.63;46.78;43.05 
1.530;0.84;0.65;-0.03;0.07;-1.74;2.78;470.26;-385.85;119.00;1.06;146.36;46.80;43.04 
1.559;0.86;0.64;-0.05;-0.49;-0.56;2.30;470.26;-387.76;121.00;1.07;146.02;46.84;43.01 
1.590;0.83;0.63;-0.06;-0.70;1.53;1.88;471.25;-391.58;123.00;1.04;145.78;46.88;42.98 
1.620;0.83;0.65;-0.06;-0.49;2.02;2.71;470.26;-387.76;119.00;1.06;145.70;46.91;42.95 
1.650;0.85;0.65;-0.06;-0.56;1.46;3.13;466.30;-390.63;115.00;1.07;145.58;46.97;42.89 
1.680;0.86;0.64;-0.05;-0.70;1.95;3.20;468.28;-392.54;116.00;1.07;145.46;47.02;42.84 
1.710;0.85;0.64;-0.02;-0.90;2.16;2.57;467.29;-393.49;121.00;1.06;145.70;47.01;42.84 
1.740;0.84;0.62;-0.06;-0.83;2.64;2.09;466.30;-394.45;117.00;1.05;146.08;46.97;42.88 
1.770;0.84;0.62;-0.03;-0.56;1.95;1.81;464.32;-392.54;117.00;1.04;146.43;46.91;42.93 
1.800;0.85;0.65;0.00;0.21;1.60;2.02;466.30;-394.45;113.00;1.07;146.62;46.89;42.94 
1.830;0.85;0.60;-0.02;0.21;0.70;2.50;468.28;-396.36;118.00;1.04;146.42;46.96;42.88 
1.860;0.86;0.61;0.00;0.00;1.67;1.53;465.31;-392.54;119.00;1.05;146.61;46.91;42.92 
1.891;0.85;0.66;0.00;-0.70;2.02;1.95;468.28;-394.45;117.00;1.08;146.54;46.94;42.89 
1.921;0.86;0.62;0.00;-0.56;0.70;1.60;462.34;-395.40;119.00;1.06;146.77;46.89;42.94 
1.951;0.83;0.62;0.00;-0.35;0.56;1.53;460.36;-396.36;116.00;1.04;146.62;46.94;42.89 
1.981;0.84;0.63;-0.04;-0.28;0.70;1.67;464.32;-397.31;121.00;1.05;146.43;46.99;42.85 
2.012;0.85;0.61;-0.05;-0.56;1.39;1.46;461.35;-397.31;115.00;1.05;146.23;47.03;42.81 
2.042;0.87;0.62;0.00;-0.63;1.95;1.32;463.33;-394.45;118.00;1.07;146.07;47.07;42.77 
2.072;0.83;0.62;0.00;-0.90;2.57;0.70;464.32;-398.27;118.00;1.04;146.38;47.01;42.83 
2.103;0.86;0.62;0.00;-0.14;1.18;1.18;465.31;-394.45;119.00;1.06;146.65;46.93;42.90 
2.132;0.85;0.61;-0.05;0.70;-0.49;1.88;462.34;-397.31;119.00;1.05;146.59;46.94;42.89 
2.162;0.86;0.62;-0.06;0.42;-0.83;1.88;461.35;-395.40;117.00;1.06;146.17;46.98;42.87 
2.192;0.86;0.63;-0.03;-0.07;1.18;1.25;463.33;-398.27;119.00;1.07;145.88;47.03;42.82 
2.222;0.86;0.62;-0.02;-1.04;1.67;1.53;465.31;-395.40;118.00;1.06;145.81;47.08;42.77 
2.252;0.86;0.60;-0.05;-1.74;2.57;0.77;464.32;-398.27;121.00;1.05;145.76;47.11;42.75 
2.282;0.84;0.62;-0.05;-1.81;2.16;0.49;463.33;-398.27;119.00;1.05;145.87;47.10;42.74 
2.313;0.84;0.64;-0.04;-1.53;1.60;0.70;460.36;-396.36;118.00;1.06;145.90;47.10;42.75 
2.343;0.87;0.61;-0.03;-1.53;2.02;0.70;460.36;-400.18;118.00;1.06;145.89;47.13;42.72 
2.373;0.86;0.60;0.00;-1.88;2.92;0.42;466.30;-400.18;117.00;1.05;146.03;47.14;42.71 
2.403;0.83;0.65;0.02;-1.53;1.11;0.35;463.33;-398.27;116.00;1.05;146.30;47.12;42.72 
2.433;0.86;0.61;0.00;-1.32;-1.39;1.11;461.35;-399.22;115.00;1.05;146.54;47.05;42.79 
2.463;0.86;0.60;-0.03;-1.95;-0.49;0.35;463.33;-400.18;118.00;1.05;146.43;47.06;42.78 
2.493;0.86;0.62;-0.04;-1.88;0.28;-0.42;464.32;-400.18;117.00;1.06;146.38;47.06;42.78 
2.524;0.86;0.62;0.00;-2.23;0.00;-0.28;462.34;-397.31;111.00;1.06;146.41;47.06;42.79 
2.554;0.85;0.65;-0.04;-2.02;0.56;-0.07;459.37;-399.22;112.00;1.07;146.40;47.06;42.79 
2.584;0.86;0.62;0.00;-1.60;0.70;0.49;462.34;-398.27;115.00;1.06;146.49;47.04;42.80 
2.615;0.89;0.60;-0.02;-1.74;1.18;-0.07;462.34;-400.18;111.00;1.07;146.42;47.06;42.78 
2.645;0.85;0.62;-0.05;-1.74;2.02;-0.77;460.36;-398.27;111.00;1.05;146.81;46.96;42.88 
2.675;0.87;0.62;-0.05;-1.18;1.81;-1.04;464.32;-397.31;112.00;1.07;147.21;46.84;42.99 
2.705;0.86;0.63;-0.04;-1.32;1.25;-0.77;464.32;-400.18;113.00;1.07;147.34;46.81;43.02 
2.736;0.88;0.61;-0.05;-1.18;2.02;-1.11;464.32;-398.27;114.00;1.07;147.78;46.67;43.15 
2.766;0.84;0.61;-0.02;-1.11;0.77;-0.14;463.33;-399.22;114.00;1.04;148.09;46.57;43.25 
2.795;0.87;0.60;0.00;-0.42;-0.63;-0.42;463.33;-400.18;109.00;1.06;148.26;46.48;43.34 
2.826;0.86;0.60;-0.06;-0.35;0.90;-0.83;463.33;-398.27;114.00;1.05;148.35;46.37;43.44 
2.856;0.85;0.62;-0.02;-0.28;1.74;-0.28;462.34;-399.22;113.00;1.05;148.58;46.27;43.55 
2.885;0.85;0.62;0.00;0.21;1.53;1.04;463.33;-396.36;115.00;1.05;148.68;46.25;43.56 
2.915;0.84;0.61;-0.01;0.90;-0.97;2.16;462.34;-399.22;114.00;1.04;148.63;46.22;43.60 
2.945;0.86;0.62;-0.07;0.97;-1.53;2.78;467.29;-396.36;112.00;1.06;148.50;46.18;43.64 
2.965;0.81;0.58;-0.07;3.13;5.77;-1.32;461.35;-395.40;119.00;1.00;146.84;46.34;43.50 
2.995;0.86;0.67;0.00;-0.70;5.77;-2.16;463.33;-399.22;121.00;1.09;146.84;46.26;43.57 
3.026;0.87;0.64;0.00;0.49;2.02;-0.28;462.34;-398.27;120.00;1.08;146.94;46.22;43.61 
3.056;0.83;0.62;-0.05;0.97;2.78;-0.35;459.37;-396.36;119.00;1.04;146.88;46.18;43.65 
3.086;0.84;0.64;0.00;0.90;0.07;1.04;461.35;-399.22;120.00;1.06;146.67;46.19;43.65 
3.117;0.85;0.65;-0.07;-1.04;-2.23;-0.97;457.39;-397.31;121.00;1.07;146.36;46.18;43.67 
3.147;0.86;0.65;-0.02;-2.92;2.02;-1.81;461.35;-396.36;120.00;1.08;146.23;46.14;43.72 
3.177;0.84;0.64;-0.04;-2.50;3.13;-0.42;464.32;-398.27;119.00;1.06;146.50;46.07;43.78 
3.207;0.84;0.65;0.00;-1.04;1.04;1.25;459.37;-398.27;119.00;1.06;146.91;45.98;43.86 
3.236;0.84;0.62;-0.04;0.35;-0.28;1.95;461.35;-399.22;118.00;1.04;146.72;46.02;43.82 
3.265;0.86;0.62;-0.05;0.77;-0.83;1.81;458.38;-396.36;114.00;1.06;146.28;46.09;43.77 
3.294;0.86;0.61;-0.05;0.07;0.49;1.04;461.35;-397.31;121.00;1.06;145.88;46.14;43.72 
3.323;0.86;0.59;-0.06;-0.42;2.43;0.00;463.33;-399.22;122.00;1.04;145.63;46.20;43.67 
3.352;0.86;0.64;0.00;-0.42;1.81;0.90;460.36;-398.27;119.00;1.07;145.53;46.21;43.66 
3.381;0.85;0.62;0.00;0.07;0.28;1.25;461.35;-402.09;121.00;1.05;145.62;46.16;43.71 
3.412;0.88;0.60;-0.04;0.49;-0.63;1.67;461.35;-396.36;119.00;1.07;145.32;46.20;43.68 
3.442;0.87;0.61;-0.05;0.14;0.14;1.25;461.35;-398.27;121.00;1.06;144.96;46.25;43.64 
3.472;0.86;0.60;-0.06;-0.42;1.18;0.49;458.38;-400.18;122.00;1.05;144.69;46.30;43.59 
3.503;0.86;0.61;-0.03;-0.42;1.11;1.18;461.35;-401.13;120.00;1.05;144.50;46.33;43.56 
3.533;0.84;0.62;-0.05;-0.28;0.77;1.11;458.38;-401.13;122.00;1.05;144.32;46.38;43.52 
3.563;0.86;0.61;0.00;-0.35;-0.35;1.32;461.35;-400.18;121.00;1.05;144.30;46.33;43.57 
3.593;0.85;0.60;-0.04;0.00;0.28;0.77;456.40;-402.09;125.00;1.04;144.03;46.38;43.53 
3.624;0.86;0.61;-0.06;-0.42;0.90;0.42;461.35;-402.09;122.00;1.06;143.80;46.41;43.50 
3.654;0.86;0.63;-0.04;-0.49;0.90;0.14;457.39;-400.18;118.00;1.07;143.61;46.42;43.49 
3.684;0.87;0.62;0.00;-0.28;1.11;0.14;458.38;-402.09;120.00;1.07;143.42;46.46;43.46 
3.715;0.87;0.62;0.00;-0.42;1.04;0.14;457.39;-399.22;118.00;1.07;143.28;46.46;43.45 
3.745;0.86;0.61;-0.04;-0.28;0.21;0.42;459.37;-399.22;119.00;1.06;143.14;46.46;43.46 
3.775;0.86;0.63;-0.05;-0.28;0.07;0.63;459.37;-401.13;126.00;1.07;142.87;46.48;43.45 
3.805;0.89;0.60;-0.03;-0.35;0.83;-0.35;459.37;-400.18;119.00;1.07;142.65;46.50;43.43 
3.835;0.87;0.58;-0.03;-0.28;0.77;0.56;458.38;-399.22;117.00;1.05;142.42;46.51;43.42 
3.865;0.86;0.63;-0.05;-0.35;0.28;0.56;459.37;-403.04;120.00;1.07;142.15;46.55;43.38 
3.895;0.88;0.60;-0.04;0.21;0.28;0.63;461.35;-400.18;122.00;1.07;141.90;46.58;43.36 
3.926;0.88;0.61;-0.06;-0.14;0.00;0.70;460.36;-404.00;120.00;1.07;141.62;46.63;43.31 
3.956;0.87;0.59;0.00;-0.63;1.46;0.42;462.34;-398.27;118.00;1.05;141.49;46.63;43.31 
3.986;0.88;0.59;-0.04;-0.35;1.88;0.14;460.36;-403.04;123.00;1.06;141.40;46.65;43.29 
4.016;0.87;0.62;-0.02;-0.63;1.53;0.63;458.38;-402.09;119.00;1.07;141.38;46.64;43.30 
4.046;0.86;0.62;-0.04;-0.56;1.39;0.56;462.34;-400.18;121.00;1.06;141.23;46.67;43.28 
4.076;0.88;0.62;-0.02;-0.49;0.83;0.35;456.40;-398.27;120.00;1.08;141.09;46.69;43.26 
4.106;0.86;0.60;-0.03;-0.21;0.97;0.42;457.39;-400.18;117.00;1.05;140.86;46.72;43.23 
4.137;0.84;0.62;-0.02;-0.35;0.70;0.56;459.37;-402.09;124.00;1.04;140.95;46.65;43.30 
4.166;0.85;0.59;0.00;0.07;0.49;0.56;456.40;-402.09;122.00;1.03;140.67;46.68;43.27 
4.196;0.85;0.60;-0.05;-0.14;0.42;0.83;457.39;-401.13;122.00;1.04;140.47;46.70;43.26 
4.227;0.87;0.62;-0.04;-0.14;0.97;0.35;459.37;-402.09;119.00;1.07;140.22;46.72;43.24 
4.257;0.86;0.61;-0.02;-0.49;1.53;0.28;457.39;-400.18;120.00;1.05;140.17;46.73;43.23 
4.287;0.85;0.62;-0.05;-0.56;1.32;-0.42;457.39;-399.22;118.00;1.05;140.09;46.74;43.23 
4.317;0.86;0.62;-0.02;-0.35;1.11;0.07;457.39;-404.95;123.00;1.06;139.96;46.77;43.20 
4.347;0.86;0.63;-0.06;-0.56;1.04;0.14;457.39;-405.91;119.00;1.07;139.87;46.77;43.20 
4.377;0.83;0.62;-0.02;-0.63;1.04;0.07;459.37;-402.09;121.00;1.04;139.62;46.79;43.18 
4.407;0.86;0.60;-0.06;-0.35;1.11;-0.07;459.37;-400.18;118.00;1.05;139.40;46.82;43.16 
4.438;0.88;0.60;-0.05;-0.28;0.77;-0.14;456.40;-397.31;121.00;1.07;139.25;46.83;43.14 
4.468;0.86;0.62;-0.05;-0.07;1.39;-0.21;456.40;-401.13;122.00;1.06;139.05;46.85;43.13 
4.498;0.86;0.62;-0.06;-0.14;0.90;-0.07;459.37;-403.04;124.00;1.06;139.17;46.76;43.21 
4.528;0.87;0.62;-0.05;0.42;0.28;-0.07;456.40;-401.13;120.00;1.07;138.81;46.76;43.22 
4.558;0.87;0.61;-0.03;-0.14;1.88;-0.63;458.38;-398.27;119.00;1.06;138.95;46.65;43.33 
4.588;0.86;0.60;-0.02;0.07;0.49;0.42;459.37;-402.09;121.00;1.05;138.81;46.67;43.31 
4.618;0.86;0.60;-0.03;0.21;0.00;0.21;456.40;-399.22;126.00;1.05;138.56;46.68;43.30 
4.649;0.89;0.62;0.00;-0.07;1.11;0.14;458.38;-399.22;123.00;1.08;138.27;46.71;43.27 
4.679;0.87;0.61;-0.04;-0.63;2.37;0.00;456.40;-401.13;118.00;1.06;138.18;46.74;43.24 
4.709;0.85;0.61;-0.04;-0.90;2.99;-0.63;459.37;-402.09;122.00;1.05;138.22;46.75;43.24 
4.740;0.85;0.61;0.00;-1.18;2.99;-0.21;455.41;-398.27;121.00;1.05;138.43;46.71;43.28 
4.770;0.82;0.61;-0.03;-1.32;2.43;0.00;454.42;-401.13;118.00;1.02;138.47;46.73;43.26 
4.800;0.86;0.62;0.00;-0.83;1.88;0.07;457.39;-404.00;123.00;1.06;138.50;46.74;43.24 
4.829;0.86;0.61;-0.02;-0.83;1.74;-0.21;460.36;-400.18;118.00;1.05;138.76;46.63;43.35 
4.859;0.86;0.61;-0.03;-0.97;1.53;-0.90;458.38;-402.09;123.00;1.05;138.72;46.62;43.36 
4.889;0.85;0.61;-0.04;-0.63;2.43;-1.11;458.38;-403.04;119.00;1.05;138.81;46.57;43.41 
4.919;0.86;0.59;-0.02;-0.28;2.16;-0.97;456.40;-401.13;114.00;1.04;138.85;46.54;43.44 
4.950;0.86;0.63;0.00;-0.42;0.35;-2.09;458.38;-403.04;120.00;1.07;138.94;46.42;43.56 
4.980;0.85;0.60;0.00;-0.97;2.23;-1.11;456.40;-402.09;117.00;1.04;139.10;46.36;43.62 
5.010;0.90;0.60;-0.05;-1.60;3.97;-1.04;460.36;-401.13;119.00;1.08;139.23;46.32;43.66 
5.040;0.85;0.64;-0.07;-3.06;2.30;-2.57;457.39;-399.22;123.00;1.07;139.42;46.29;43.69 
5.070;0.85;0.61;0.00;-3.06;2.85;-2.37;460.36;-400.18;114.00;1.05;139.95;46.23;43.74 
5.100;0.86;0.59;0.00;-0.90;0.97;-1.60;459.37;-401.13;113.00;1.04;140.41;46.07;43.90 
5.130;0.86;0.61;0.00;0.35;-0.77;-2.02;460.36;-401.13;119.00;1.05;140.19;46.03;43.94 
5.160;0.86;0.61;-0.06;-0.28;0.63;-2.43;460.36;-400.18;116.00;1.06;139.78;46.00;43.97 
5.190;0.83;0.64;-0.05;-1.88;2.71;-2.57;462.34;-401.13;120.00;1.05;139.78;45.94;44.03 
5.220;0.84;0.63;0.00;-1.46;1.32;-1.04;462.34;-400.18;117.00;1.05;140.12;45.81;44.17 
5.251;0.86;0.62;0.00;-0.42;-0.21;0.35;462.34;-399.22;116.00;1.06;140.31;45.69;44.29 
5.281;0.84;0.62;-0.05;-0.07;-0.14;0.83;460.36;-400.18;115.00;1.05;140.33;45.60;44.38 
5.311;0.85;0.62;-0.02;0.21;0.77;0.56;464.32;-401.13;116.00;1.05;140.36;45.52;44.46 
5.341;0.85;0.62;-0.03;0.28;-0.21;1.39;461.35;-401.13;114.00;1.05;140.29;45.48;44.50 
5.371;0.86;0.61;-0.05;0.28;-0.14;1.25;462.34;-400.18;117.00;1.06;140.12;45.45;44.53 
5.401;0.86;0.62;0.00;-0.07;1.39;0.97;459.37;-401.13;118.00;1.06;139.82;45.52;44.46 
5.431;0.85;0.62;0.00;-0.49;0.35;1.67;461.35;-402.09;116.00;1.05;139.55;45.61;44.37 
5.462;0.88;0.62;0.00;-0.56;-0.42;0.49;462.34;-400.18;118.00;1.08;139.28;45.65;44.33 
5.492;0.83;0.62;-0.06;-0.07;-0.77;0.97;456.40;-398.27;121.00;1.04;139.26;45.58;44.40 
5.522;0.86;0.61;-0.06;-0.14;0.35;1.18;459.37;-398.27;114.00;1.06;138.89;45.65;44.34 
5.552;0.87;0.62;-0.02;-0.21;1.81;0.56;457.39;-401.13;117.00;1.07;138.88;45.61;44.37 
5.582;0.88;0.61;-0.03;-0.83;1.88;0.14;457.39;-399.22;118.00;1.07;138.80;45.65;44.34 
5.612;0.86;0.62;0.00;-0.63;1.88;0.21;457.39;-404.00;117.00;1.06;138.71;45.71;44.28 
5.642;0.86;0.60;-0.03;0.07;0.90;0.77;458.38;-402.09;117.00;1.05;138.82;45.66;44.33 
5.673;0.88;0.63;0.00;0.49;-0.90;1.11;458.38;-400.18;118.00;1.08;138.41;45.70;44.29 
5.703;0.86;0.60;-0.02;-0.42;0.56;1.11;458.38;-403.04;118.00;1.05;137.93;45.76;44.23 
5.733;0.86;0.61;0.00;-0.90;0.77;0.83;465.31;-403.04;118.00;1.05;137.63;45.81;44.18 
5.764;0.89;0.60;-0.04;-0.49;0.90;0.28;458.38;-397.31;119.00;1.07;137.38;45.86;44.13 
5.794;0.84;0.62;-0.04;-1.39;2.37;-0.07;459.37;-400.18;113.00;1.04;137.27;45.90;44.09 
5.824;0.88;0.59;-0.02;-0.49;2.30;0.00;457.39;-402.09;118.00;1.06;137.26;45.93;44.07 
5.854;0.87;0.60;-0.03;-0.97;0.49;-0.28;458.38;-400.18;118.00;1.06;137.08;45.98;44.02 
5.885;0.86;0.62;-0.03;-0.77;0.07;-0.21;460.36;-399.22;114.00;1.06;137.20;45.87;44.12 
5.915;0.86;0.62;-0.04;-0.77;-0.42;-0.07;460.36;-402.09;120.00;1.06;137.01;45.88;44.11 
5.945;0.86;0.61;-0.05;-0.70;0.70;-0.83;459.37;-400.18;114.00;1.06;136.84;45.89;44.10 
5.976;0.88;0.61;-0.04;-0.90;1.95;-0.21;459.37;-399.22;115.00;1.07;136.75;45.89;44.10 
6.006;0.86;0.63;-0.04;-0.42;0.56;0.00;459.37;-400.18;117.00;1.07;136.81;45.89;44.11 
6.036;0.87;0.62;0.01;-0.07;0.63;1.04;461.35;-400.18;117.00;1.07;136.60;45.91;44.09 
6.065;0.85;0.61;-0.04;-1.04;0.56;1.53;460.36;-401.13;115.00;1.05;136.62;45.85;44.15 
6.095;0.86;0.61;0.00;-2.30;2.78;0.90;457.39;-401.13;117.00;1.05;136.60;45.93;44.07 
6.125;0.88;0.59;-0.03;-2.78;2.64;-0.70;457.39;-404.00;114.00;1.06;136.91;45.96;44.04 
6.155;0.88;0.60;-0.04;-2.30;2.85;-0.63;459.37;-402.09;117.00;1.07;137.21;45.92;44.08 
6.186;0.87;0.59;-0.05;-0.63;3.06;-0.35;459.37;-404.00;115.00;1.05;137.46;45.92;44.08 
6.215;0.86;0.62;-0.03;-0.28;1.39;-0.97;459.37;-404.00;115.00;1.06;137.70;45.80;44.19 
6.245;0.85;0.60;0.00;-2.50;0.35;-0.14;460.36;-403.04;114.00;1.04;137.83;45.72;44.27 
6.276;0.86;0.65;-0.07;-4.24;2.30;-0.35;464.32;-403.04;114.00;1.08;138.02;45.71;44.29 
6.306;0.86;0.62;-0.05;-2.30;5.98;0.35;459.37;-401.13;109.00;1.06;138.50;45.73;44.26 
6.336;0.88;0.55;-0.02;0.28;10.85;-6.05;462.34;-404.95;111.00;1.04;138.92;45.72;44.27 
6.366;0.82;0.54;0.04;0.77;8.56;-9.81;461.35;-404.00;111.00;0.98;140.02;45.40;44.58 
6.395;0.88;0.53;0.05;1.67;-2.78;-10.02;462.34;-399.22;111.00;1.03;140.49;45.20;44.78 
6.425;0.90;0.52;0.02;2.16;-6.26;-13.22;463.33;-398.27;112.00;1.04;139.96;44.98;45.00 
6.455;0.91;0.53;0.00;-0.07;-3.48;-17.25;466.30;-397.31;106.00;1.05;139.58;44.70;45.29 
6.485;0.86;0.56;0.04;-2.99;-5.57;-23.44;470.26;-394.45;113.00;1.03;139.77;44.17;45.82 
6.515;0.85;0.57;0.00;-4.52;-3.13;-29.84;471.25;-385.85;110.00;1.02;140.20;43.41;46.58 
6.545;0.86;0.60;0.00;-4.45;-3.69;-31.93;476.20;-382.99;105.00;1.05;141.20;42.56;47.43 
6.575;0.86;0.65;0.00;-4.17;-6.19;-33.04;479.17;-375.34;108.00;1.08;142.08;41.52;48.48 
6.605;0.78;0.73;-0.02;-5.50;-7.37;-33.39;487.09;-369.61;102.00;1.07;142.95;40.42;49.58 
6.635;0.78;0.70;0.02;-7.30;-7.86;-34.85;492.04;-360.06;103.00;1.05;143.93;39.34;50.66 
6.664;0.77;0.72;-0.02;-8.63;-8.28;-32.56;493.03;-355.29;101.00;1.05;144.91;38.37;51.62 
6.694;0.74;0.75;0.00;-12.31;-8.56;-30.19;496.99;-349.56;100.00;1.05;145.94;37.45;52.55 
6.724;0.73;0.78;-0.05;-12.80;-12.24;-30.12;501.94;-340.96;97.00;1.07;147.45;36.59;53.40 
6.754;0.70;0.84;-0.08;-13.08;-7.86;-31.03;506.89;-335.23;97.00;1.10;148.95;35.73;54.26 
6.784;0.76;0.85;-0.05;-6.26;-3.69;-31.17;512.83;-329.50;90.00;1.14;150.52;34.82;55.17 
6.813;0.72;0.77;0.02;1.04;-8.97;-25.25;513.82;-319.95;84.00;1.05;150.82;34.04;55.96 
6.843;0.73;0.72;0.00;3.83;-15.03;-29.22;516.79;-317.08;88.00;1.03;149.66;33.35;56.65 
6.873;0.74;0.65;-0.02;0.90;-19.48;-33.04;517.78;-311.35;90.00;0.99;147.78;32.41;57.59 
6.903;0.74;0.68;-0.04;-6.54;-18.71;-38.19;519.76;-298.94;93.00;1.01;146.57;31.30;58.70 
6.933;0.68;0.78;-0.08;-5.63;-17.04;-35.83;524.71;-290.34;87.00;1.04;145.69;30.32;59.67 
6.963;0.64;0.86;-0.07;-7.86;-16.49;-29.50;529.66;-281.75;85.00;1.07;144.52;29.47;60.52 
6.994;0.60;0.88;-0.10;-10.43;-16.70;-30.96;532.63;-271.24;86.00;1.07;143.68;28.55;61.44 
7.024;0.58;0.94;-0.12;-11.48;-15.10;-28.17;537.58;-269.33;83.00;1.11;142.88;27.70;62.29 
7.054;0.58;1.01;-0.18;-11.20;-6.96;-25.53;542.53;-261.69;80.00;1.18;142.90;26.87;63.11 
7.084;0.51;0.94;-0.11;-8.07;2.30;-27.34;541.54;-257.87;81.00;1.08;144.39;26.16;63.83 
7.113;0.55;0.95;-0.14;-5.91;4.38;-25.81;543.52;-250.23;79.00;1.11;146.57;25.40;64.59 
7.143;0.51;0.91;-0.11;-7.93;3.27;-22.68;545.50;-246.41;77.00;1.05;148.27;24.77;65.22 
7.173;0.50;1.01;-0.10;-16.07;11.76;-18.85;545.50;-242.59;77.00;1.13;153.50;24.20;65.80 
7.203;0.54;0.95;0.02;-15.51;11.20;-12.03;553.42;-240.68;73.00;1.09;161.96;23.71;66.29 
7.232;0.54;0.97;0.03;-15.79;2.85;-8.70;553.42;-235.90;70.00;1.11;169.36;23.48;66.50 
7.262;0.55;0.94;-0.02;-15.10;2.09;-4.45;549.46;-236.86;69.00;1.09;175.48;23.30;66.66 
7.293;0.55;0.92;-0.10;-18.64;11.20;-6.05;556.39;-233.99;60.00;1.08;-178.59;23.27;66.67 
7.322;0.54;0.88;-0.05;-24.00;25.67;-5.84;559.36;-236.86;55.00;1.03;-172.07;23.15;66.72 
7.352;0.53;0.90;0.04;-27.41;29.36;-3.34;559.36;-232.08;52.00;1.05;-165.48;23.05;66.68 
7.382;0.57;0.98;0.06;-26.50;22.89;-3.76;562.33;-233.99;45.00;1.14;-160.72;22.97;66.59 
7.412;0.56;0.94;0.05;-27.20;23.30;-2.50;563.32;-234.95;37.00;1.10;-156.94;22.88;66.45 
7.442;0.54;0.90;0.00;-28.59;19.06;-1.67;563.32;-236.86;33.00;1.05;-153.40;22.86;66.22 
7.472;0.57;0.84;0.02;-26.23;28.94;0.63;566.29;-235.90;24.00;1.02;-150.41;22.77;66.00 
7.502;0.58;0.86;0.08;-27.34;36.73;0.00;566.29;-234.95;13.00;1.04;-149.62;22.82;65.59 
7.532;0.53;0.84;0.15;-28.59;29.29;-0.35;564.31;-238.77;5.00;1.00;-148.55;22.87;65.14 
7.562;0.57;0.84;0.18;-24.00;30.61;1.95;568.27;-236.86;0.00;1.03;-147.90;22.86;64.69 
7.593;0.50;0.87;0.13;-22.89;28.66;0.63;571.24;-239.72;-4.00;1.01;-147.16;22.86;64.25 
7.623;0.51;0.92;0.14;-23.03;29.01;-1.95;570.25;-241.63;-14.00;1.06;-146.23;22.76;63.84 
7.653;0.50;0.97;0.20;-23.51;33.11;-2.43;572.23;-238.77;-22.00;1.11;-146.01;22.59;63.51 
7.684;0.48;0.90;0.28;-22.33;37.15;-2.23;573.22;-242.59;-26.00;1.06;-145.85;22.24;63.19 
7.714;0.49;0.87;0.27;-20.87;23.37;0.49;573.22;-240.68;-32.00;1.03;-145.48;22.05;62.77 
7.744;0.50;0.87;0.27;-22.54;24.63;-3.62;571.24;-242.59;-39.00;1.04;-145.20;21.92;62.39 
7.774;0.44;0.77;0.30;-25.95;25.11;-2.78;575.20;-241.63;-44.00;0.94;-144.46;21.67;61.95 
7.805;0.50;0.83;0.30;-23.23;21.77;-3.34;572.23;-242.59;-51.00;1.01;-143.82;21.45;61.47 
7.835;0.49;0.82;0.33;-25.04;26.57;-4.17;573.22;-239.72;-59.00;1.01;-143.41;21.27;60.97 
7.865;0.43;0.79;0.36;-27.55;30.19;-4.80;574.21;-238.77;-65.00;0.97;-143.01;20.96;60.45 
7.896;0.44;0.78;0.36;-27.27;20.59;-5.22;572.23;-235.90;-75.00;0.97;-142.37;20.65;59.84 
7.926;0.49;0.86;0.35;-27.13;22.33;-6.68;576.19;-234.95;-83.00;1.05;-141.61;20.29;59.33 
7.956;0.47;0.79;0.42;-28.52;24.97;-4.38;578.17;-232.08;-86.00;1.01;-140.94;19.89;58.81 
7.985;0.44;0.72;0.42;-25.88;20.59;-3.20;577.18;-233.04;-95.00;0.94;-140.40;19.58;58.28 
8.014;0.44;0.79;0.39;-27.41;20.45;-7.17;575.20;-228.26;-103.00;0.98;-139.83;19.29;57.75 
8.044;0.42;0.81;0.46;-29.01;22.12;-9.88;574.21;-229.22;-106.00;1.02;-139.09;18.88;57.20 
8.074;0.39;0.77;0.43;-30.05;14.05;-9.46;575.20;-226.35;-115.00;0.96;-138.24;18.43;56.62 
8.105;0.45;0.78;0.42;-29.01;15.10;-11.13;575.20;-223.49;-117.00;0.99;-137.19;18.07;56.02 
8.135;0.38;0.74;0.50;-36.94;23.79;-15.93;569.26;-216.80;-125.00;0.97;-136.27;17.48;55.38 
8.165;0.35;0.74;0.52;-40.07;9.04;-13.77;574.21;-213.94;-133.00;0.97;-135.07;16.96;54.50 
8.196;0.37;0.77;0.50;-41.11;1.11;-10.78;570.25;-208.21;-146.00;0.99;-133.53;16.68;53.57 
8.226;0.38;0.77;0.51;-43.06;2.09;-12.73;569.26;-206.30;-158.00;1.00;-131.96;16.43;52.60 
8.255;0.39;0.63;0.54;-39.30;-2.09;-12.87;568.27;-202.48;-168.00;0.92;-130.46;16.21;51.69 
8.285;0.39;0.73;0.49;-35.55;-0.21;-14.19;568.27;-200.57;-172.00;0.96;-129.04;16.05;50.89 
8.315;0.38;0.72;0.51;-35.41;4.52;-18.50;565.30;-196.75;-178.00;0.96;-127.69;15.70;50.19 
8.345;0.36;0.71;0.58;-34.43;3.62;-22.05;561.34;-191.01;-187.00;0.98;-126.32;15.19;49.48 
8.375;0.35;0.66;0.61;-30.19;2.99;-23.37;558.37;-181.46;-194.00;0.96;-125.03;14.75;48.82 
8.406;0.34;0.62;0.63;-28.24;2.92;-25.32;562.33;-176.69;-198.00;0.95;-123.73;14.24;48.21 
8.435;0.32;0.66;0.67;-31.37;2.78;-22.89;557.38;-170.96;-212.00;0.99;-122.53;13.69;47.59 
8.465;0.31;0.63;0.72;-34.23;0.70;-19.90;554.41;-172.87;-214.00;1.01;-121.37;13.31;46.89 
8.495;0.30;0.60;0.64;-34.37;3.62;-19.13;553.42;-161.41;-221.00;0.93;-120.16;12.88;46.03 
8.525;0.27;0.60;0.68;-35.69;4.87;-18.37;549.46;-162.36;-227.00;0.95;-119.09;12.46;45.14 
8.555;0.26;0.66;0.70;-38.05;6.05;-15.58;545.50;-154.72;-236.00;1.00;-118.13;12.03;44.21 
8.585;0.26;0.64;0.71;-39.58;4.03;-12.94;539.56;-151.86;-244.00;0.99;-117.30;11.65;43.20 
8.616;0.26;0.63;0.66;-38.61;1.11;-9.32;538.57;-150.90;-252.00;0.95;-116.42;11.46;42.09 
8.646;0.26;0.57;0.66;-37.36;2.57;-5.15;531.64;-148.99;-261.00;0.91;-115.72;11.36;40.99 
8.675;0.26;0.55;0.68;-37.15;3.69;-5.63;529.66;-148.04;-269.00;0.91;-115.20;11.28;39.96 
8.706;0.26;0.58;0.70;-37.01;4.31;-6.68;526.69;-146.13;-275.00;0.95;-114.66;11.14;38.94 
8.736;0.23;0.60;0.74;-36.31;-0.70;-3.34;521.74;-140.40;-282.00;0.98;-114.15;11.04;37.90 
8.766;0.26;0.58;0.70;-35.97;3.06;-1.74;517.78;-143.26;-286.00;0.95;-113.72;11.03;36.89 
8.796;0.26;0.54;0.74;-36.31;7.58;-0.35;512.83;-141.35;-296.00;0.95;-113.44;10.98;35.86 
8.826;0.25;0.52;0.73;-39.51;13.01;1.74;509.86;-143.26;-300.00;0.93;-113.29;10.83;34.74 
8.856;0.25;0.51;0.74;-40.56;12.94;4.10;503.92;-141.35;-308.00;0.93;-113.25;10.63;33.56 
8.886;0.22;0.46;0.76;-40.97;17.60;4.17;497.98;-140.40;-315.00;0.92;-113.30;10.37;32.34 
8.917;0.25;0.46;0.78;-38.19;17.95;5.91;489.07;-137.53;-327.00;0.94;-113.44;10.05;31.12 
8.947;0.26;0.45;0.79;-37.36;15.58;5.84;484.12;-138.49;-328.00;0.95;-113.62;9.79;29.95 
8.976;0.25;0.44;0.77;-36.03;13.57;6.89;484.12;-137.53;-332.00;0.92;-113.76;9.59;28.87 
9.006;0.25;0.40;0.79;-36.59;16.28;6.33;473.23;-135.62;-341.00;0.92;-113.92;9.41;27.81 
9.036;0.23;0.36;0.80;-38.19;18.02;6.40;470.26;-132.76;-347.00;0.91;-114.12;9.13;26.63 
9.066;0.20;0.33;0.86;-38.68;18.30;6.47;464.32;-131.80;-347.00;0.94;-114.30;8.78;25.44 
9.096;0.18;0.30;0.84;-40.28;16.00;8.00;454.42;-128.94;-354.00;0.91;-114.47;8.45;24.22 
9.126;0.15;0.27;0.87;-41.67;13.08;6.89;445.51;-129.89;-361.00;0.92;-114.63;8.14;22.90 
9.156;0.16;0.24;0.86;-42.02;10.50;2.78;440.56;-125.11;-369.00;0.91;-114.67;7.90;21.59 
9.186;0.21;0.18;0.91;-40.35;8.56;0.28;432.64;-125.11;-373.00;0.95;-114.59;7.64;20.30 
9.217;0.17;0.19;0.84;-35.83;8.07;-4.73;428.68;-123.20;-377.00;0.88;-114.39;7.44;19.05 
9.247;0.16;0.21;0.86;-31.93;9.95;-10.23;416.80;-118.43;-386.00;0.90;-114.08;7.13;17.99 
9.277;0.14;0.19;0.86;-30.96;8.83;-12.31;414.82;-117.47;-384.00;0.89;-113.68;6.78;17.04 
9.307;0.17;0.14;0.87;-31.17;8.56;-13.91;409.87;-110.79;-386.00;0.90;-113.23;6.45;16.09 
9.337;0.17;0.07;0.89;-31.93;5.77;-17.04;403.93;-110.79;-393.00;0.91;-112.69;6.16;15.09 
9.366;0.17;0.00;0.86;-32.14;8.28;-22.12;394.03;-105.06;-395.00;0.88;-112.08;5.88;14.07 
9.396;0.16;-0.03;0.92;-30.47;8.00;-26.09;389.08;-99.33;-403.00;0.93;-111.34;5.56;13.06 
9.427;0.15;0.03;0.94;-30.82;10.37;-31.23;387.10;-95.51;-405.00;0.95;-110.40;5.11;12.19 
9.456;0.14;0.02;0.88;-27.20;14.40;-33.11;380.17;-90.73;-404.00;0.89;-109.41;4.59;11.26 
9.486;0.14;0.02;0.87;-22.47;18.23;-32.28;375.22;-85.96;-404.00;0.88;-108.48;4.01;10.49 
9.517;0.15;0.00;0.92;-18.71;14.54;-34.64;368.29;-75.45;-414.00;0.93;-107.48;3.33;9.92 
9.547;0.14;0.02;0.88;-15.58;11.41;-33.81;364.33;-71.63;-417.00;0.89;-106.44;2.85;9.38 
9.577;0.12;0.04;0.86;-13.29;14.68;-35.13;359.38;-63.99;-417.00;0.87;-105.46;2.40;8.91 
9.607;0.14;0.06;0.89;-9.18;13.77;-35.27;358.39;-56.35;-414.00;0.90;-104.46;1.93;8.54 
9.636;0.11;0.10;0.85;-6.75;11.48;-33.25;353.44;-55.39;-418.00;0.86;-103.47;1.52;8.27 
9.665;0.14;0.10;0.90;-2.78;11.69;-29.77;351.46;-50.62;-415.00;0.92;-102.60;1.16;8.12 
9.695;0.12;0.11;0.90;-1.39;7.93;-24.42;347.50;-47.75;-416.00;0.91;-101.84;0.90;8.05 
9.726;0.13;0.11;0.90;0.35;3.27;-14.26;350.47;-40.11;-417.00;0.92;-101.25;0.77;8.03 
9.755;0.12;0.10;0.88;3.06;-0.14;-6.33;348.49;-38.20;-421.00;0.89;-100.92;0.80;8.05 
9.784;0.17;0.10;0.84;5.29;-2.43;1.25;349.48;-42.02;-418.00;0.86;-100.81;1.01;8.18 
9.814;0.14;0.09;0.88;8.14;-1.39;8.63;353.44;-39.16;-417.00;0.90;-100.93;1.24;8.37 
9.843;0.09;0.06;0.86;9.04;0.63;13.36;351.46;-43.93;-418.00;0.87;-101.25;1.44;8.60 
9.873;0.06;0.08;0.90;9.74;0.21;17.32;356.41;-44.89;-415.00;0.91;-101.70;1.54;8.81 
9.903;0.10;0.12;0.97;10.78;-5.36;19.62;360.37;-47.75;-418.00;0.98;-102.21;1.72;9.01 
9.933;0.10;0.13;0.93;12.10;-9.25;21.29;360.37;-52.53;-415.00;0.94;-102.77;2.10;9.29 
9.963;0.13;0.10;0.88;12.73;-7.23;22.68;364.33;-56.35;-414.00;0.90;-103.40;2.54;9.61 
9.993;0.11;0.10;0.88;11.69;-1.46;20.66;366.31;-61.12;-414.00;0.89;-104.04;2.89;9.89 
10.022;0.11;0.06;0.87;9.81;3.06;18.37;370.27;-63.03;-411.00;0.88;-104.64;3.04;10.12 
10.051;0.06;0.06;0.88;8.42;5.08;14.82;372.25;-65.90;-410.00;0.88;-105.13;3.05;10.32 
10.080;0.02;0.10;0.90;7.44;4.87;10.37;372.25;-69.72;-410.00;0.91;-105.53;2.99;10.47 
10.110;0.05;0.12;0.89;5.29;5.98;4.87;377.20;-67.81;-404.00;0.90;-105.78;2.87;10.60 
10.140;0.04;0.13;0.91;2.30;6.05;0.63;378.19;-67.81;-405.00;0.92;-105.90;2.70;10.67 
10.170;0.04;0.13;0.89;1.39;3.48;-2.30;376.21;-64.95;-407.00;0.90;-105.89;2.56;10.71 
10.201;0.10;0.13;0.90;0.28;2.50;-5.36;375.22;-64.95;-408.00;0.91;-105.78;2.49;10.70 
10.231;0.11;0.13;0.90;-0.63;1.67;-5.77;378.19;-64.95;-410.00;0.92;-105.60;2.47;10.70 
10.261;0.12;0.16;0.89;-1.18;2.43;-6.26;376.21;-62.08;-408.00;0.91;-105.42;2.46;10.66 
10.291;0.15;0.11;0.89;-1.39;3.55;-5.57;376.21;-60.17;-410.00;0.91;-105.24;2.45;10.58 
10.322;0.10;0.12;0.88;-1.11;4.59;-4.80;377.20;-63.03;-408.00;0.89;-105.08;2.38;10.52 
10.352;0.08;0.12;0.88;-0.21;4.66;-3.90;377.20;-60.17;-406.00;0.89;-104.95;2.29;10.46 
10.382;0.09;0.13;0.88;-0.14;4.52;-2.30;376.21;-61.12;-406.00;0.89;-104.86;2.20;10.42 
10.413;0.05;0.11;0.85;-0.70;5.29;-1.32;375.22;-60.17;-407.00;0.86;-104.80;2.12;10.36 
10.443;0.07;0.10;0.91;-0.56;5.15;-0.49;373.24;-58.26;-404.00;0.92;-104.78;2.02;10.29 
10.473;0.09;0.10;0.89;0.07;5.22;0.35;375.22;-56.35;-406.00;0.90;-104.79;1.92;10.24 
10.503;0.08;0.11;0.91;0.07;4.80;0.35;376.21;-58.26;-408.00;0.92;-104.81;1.83;10.20 
10.532;0.06;0.10;0.90;0.14;4.17;0.14;376.21;-56.35;-402.00;0.91;-104.83;1.75;10.16 
10.562;0.07;0.08;0.89;0.56;2.30;-0.21;378.19;-57.30;-404.00;0.90;-104.83;1.70;10.13 
10.592;0.05;0.12;0.90;0.49;0.14;-0.90;378.19;-59.21;-404.00;0.91;-104.80;1.71;10.09 
10.623;0.05;0.11;0.88;-0.14;-1.67;-1.18;376.21;-55.39;-405.00;0.89;-104.75;1.77;10.07 
10.653;0.06;0.14;0.87;-0.49;-2.43;0.07;376.21;-54.44;-406.00;0.88;-104.69;1.88;10.04 
10.683;0.09;0.15;0.87;-0.56;-0.83;1.39;377.20;-56.35;-407.00;0.89;-104.68;1.98;10.02 
10.713;0.08;0.14;0.90;-0.63;2.43;1.88;374.23;-57.30;-404.00;0.91;-104.71;2.02;9.99 
10.743;0.08;0.12;0.86;-0.49;6.82;3.41;377.20;-59.21;-408.00;0.87;-104.78;1.99;9.93 
10.773;0.10;0.10;0.90;-0.42;7.58;2.37;375.22;-52.53;-406.00;0.91;-104.87;1.87;9.90 
10.803;0.07;0.10;0.90;0.21;5.70;0.90;378.19;-54.44;-404.00;0.91;-104.94;1.73;9.84 
10.834;0.06;0.11;0.91;0.56;2.02;-1.18;377.20;-56.35;-404.00;0.92;-104.93;1.63;9.80 
10.864;0.06;0.10;0.91;0.07;-0.49;-2.16;375.22;-53.48;-405.00;0.92;-104.86;1.62;9.78 
10.894;0.07;0.10;0.92;-0.49;-0.70;-1.18;379.18;-51.57;-403.00;0.93;-104.78;1.66;9.75 
10.925;0.06;0.14;0.86;-0.49;1.46;-0.28;376.21;-55.39;-404.00;0.87;-104.73;1.70;9.69 
10.955;0.06;0.13;0.86;-0.21;1.39;0.14;379.18;-56.35;-402.00;0.87;-104.71;1.67;9.66 
10.985;0.08;0.14;0.89;-0.42;0.14;0.49;374.23;-54.44;-406.00;0.90;-104.71;1.67;9.63 
11.014;0.07;0.10;0.90;-0.28;-0.56;0.49;375.22;-52.53;-404.00;0.91;-104.69;1.73;9.59 
11.043;0.06;0.11;0.88;0.00;0.07;0.14;372.25;-54.44;-403.00;0.89;-104.67;1.79;9.57 
11.073;0.06;0.10;0.91;0.21;0.83;0.83;377.20;-55.39;-402.00;0.92;-104.66;1.83;9.54 
11.103;0.07;0.11;0.86;0.28;1.25;0.77;377.20;-56.35;-400.00;0.87;-104.67;1.87;9.53 
11.134;0.05;0.13;0.91;0.21;1.04;0.70;377.20;-54.44;-401.00;0.92;-104.68;1.88;9.50 
11.164;0.10;0.10;0.91;0.14;1.18;0.35;377.20;-55.39;-405.00;0.92;-104.67;1.89;9.47 
11.194;0.06;0.11;0.90;-0.42;0.63;0.14;374.23;-55.39;-401.00;0.91;-104.66;1.89;9.44 
11.225;0.07;0.14;0.90;-0.70;0.35;0.00;375.22;-56.35;-404.00;0.91;-104.64;1.91;9.40 
11.254;0.07;0.10;0.89;-0.21;0.28;0.00;376.21;-54.44;-407.00;0.90;-104.62;1.95;9.35 
11.284;0.10;0.12;0.92;0.00;0.83;-0.14;376.21;-56.35;-400.00;0.93;-104.59;1.98;9.32 
11.314;0.08;0.12;0.90;0.35;1.25;-0.21;375.22;-54.44;-405.00;0.91;-104.57;2.00;9.29 
11.344;0.07;0.12;0.92;0.35;1.04;-0.35;375.22;-55.39;-406.00;0.93;-104.54;2.01;9.27 
11.374;0.07;0.10;0.90;0.42;1.18;-0.28;376.21;-53.48;-404.00;0.91;-104.51;2.02;9.26 
11.404;0.06;0.13;0.89;0.42;0.42;-0.21;375.22;-53.48;-403.00;0.90;-104.48;2.02;9.28 
11.435;0.07;0.12;0.87;0.21;0.90;-0.56;377.20;-58.26;-401.00;0.88;-104.44;2.04;9.25 
11.464;0.09;0.13;0.87;0.00;1.25;0.00;375.22;-54.44;-404.00;0.88;-104.41;2.07;9.23 
11.494;0.08;0.10;0.87;-0.49;1.18;-0.35;378.19;-55.39;-403.00;0.88;-104.39;2.06;9.20 
11.524;0.07;0.10;0.90;-0.35;0.77;-0.07;376.21;-54.44;-407.00;0.91;-104.36;2.07;9.18 
11.554;0.07;0.14;0.87;-0.28;1.32;0.00;377.20;-53.48;-403.00;0.88;-104.34;2.07;9.14 
11.584;0.08;0.14;0.89;-0.49;1.25;-0.14;377.20;-55.39;-404.00;0.90;-104.32;2.06;9.10 
11.614;0.06;0.12;0.87;-0.35;1.25;0.14;378.19;-54.44;-403.00;0.88;-104.31;2.06;9.07 
11.643;0.06;0.11;0.87;-0.28;1.39;0.35;376.21;-54.44;-405.00;0.88;-104.29;2.06;9.04 
11.672;0.08;0.14;0.90;-0.14;1.53;0.00;377.20;-53.48;-403.00;0.91;-104.28;2.05;9.02 
11.702;0.07;0.12;0.87;0.21;1.74;0.70;380.17;-56.35;-403.00;0.88;-104.28;2.05;9.00 
11.733;0.08;0.10;0.92;-0.28;2.78;0.28;377.20;-54.44;-401.00;0.93;-104.27;2.05;8.98 
11.763;0.08;0.13;0.88;-0.42;2.85;0.14;380.17;-55.39;-402.00;0.89;-104.26;2.00;8.97 
11.793;0.07;0.12;0.90;-0.56;2.02;0.21;375.22;-55.39;-404.00;0.91;-104.25;1.97;8.94 
11.823;0.03;0.14;0.90;-0.63;2.09;0.00;375.22;-52.53;-404.00;0.91;-104.23;1.95;8.92 
11.853;0.06;0.12;0.90;-0.97;2.02;0.00;377.20;-52.53;-408.00;0.91;-104.20;1.91;8.87 
11.882;0.06;0.12;0.89;-0.49;1.32;0.07;377.20;-53.48;-406.00;0.90;-104.18;1.87;8.86 
11.912;0.08;0.14;0.91;-0.42;0.90;0.07;379.18;-53.48;-405.00;0.92;-104.15;1.85;8.85 
11.942;0.05;0.11;0.89;-0.49;1.46;0.21;378.19;-54.44;-401.00;0.90;-104.13;1.86;8.83 
11.972;0.06;0.11;0.90;-0.42;1.60;0.42;377.20;-52.53;-403.00;0.91;-104.12;1.86;8.80 
12.002;0.06;0.10;0.90;-0.49;3.27;-0.21;376.21;-53.48;-402.00;0.91;-104.11;1.84;8.75 
12.033;0.09;0.11;0.90;-0.63;3.62;0.14;373.24;-52.53;-403.00;0.91;-104.11;1.78;8.70 
12.063;0.03;0.10;0.87;0.21;2.50;-1.32;379.18;-50.62;-404.00;0.88;-104.07;1.68;8.66 
12.093;0.10;0.12;0.92;-0.97;0.35;-0.77;377.20;-50.62;-401.00;0.93;-103.99;1.65;8.66 
12.122;0.06;0.10;0.87;-0.42;-2.57;-0.07;375.22;-48.71;-404.00;0.88;-103.95;1.76;8.64 
12.151;0.07;0.09;0.89;-0.14;-0.35;-0.77;375.22;-54.44;-399.00;0.90;-103.89;1.84;8.64 
12.181;0.06;0.11;0.90;-0.07;-1.11;-0.28;374.23;-54.44;-403.00;0.91;-103.84;1.88;8.61 
12.211;0.06;0.14;0.86;0.21;-0.21;0.21;379.18;-51.57;-405.00;0.87;-103.81;1.94;8.59 
12.242;0.07;0.14;0.87;0.00;-0.63;0.63;377.20;-54.44;-401.00;0.88;-103.78;1.99;8.58 
12.272;0.06;0.12;0.88;-0.21;0.28;1.04;378.19;-50.62;-403.00;0.89;-103.78;2.04;8.57 
12.302;0.06;0.14;0.90;-0.42;0.42;1.32;378.19;-52.53;-403.00;0.91;-103.78;2.09;8.56 
12.333;0.07;0.13;0.88;-0.14;0.35;0.83;379.18;-53.48;-402.00;0.89;-103.78;2.13;8.56 
12.363;0.06;0.13;0.90;-0.28;0.49;0.49;377.20;-55.39;-402.00;0.91;-103.77;2.17;8.55 
12.392;0.06;0.13;0.90;-0.63;1.04;-0.14;375.22;-54.44;-404.00;0.91;-103.74;2.19;8.52 
12.422;0.06;0.13;0.90;-0.56;1.04;0.00;376.21;-54.44;-404.00;0.91;-103.71;2.21;8.50 
12.452;0.08;0.10;0.90;-0.63;1.11;-0.14;377.20;-53.48;-401.00;0.91;-103.67;2.23;8.47 
12.482;0.06;0.14;0.94;-0.28;0.56;-0.42;377.20;-53.48;-404.00;0.95;-103.64;2.23;8.43 
12.512;0.06;0.14;0.89;-0.42;0.07;-0.21;379.18;-51.57;-402.00;0.90;-103.60;2.23;8.40 
12.543;0.09;0.10;0.92;-0.28;0.00;-0.49;377.20;-52.53;-403.00;0.93;-103.55;2.26;8.38 
12.573;0.08;0.10;0.94;-0.14;0.28;-0.42;376.21;-52.53;-402.00;0.95;-103.50;2.29;8.36 
12.602;0.08;0.11;0.87;-0.21;0.56;-0.07;377.20;-53.48;-402.00;0.88;-103.46;2.32;8.33 
12.631;0.10;0.10;0.88;-0.42;0.49;-0.21;377.20;-53.48;-403.00;0.89;-103.42;2.34;8.33 
12.661;0.07;0.13;0.91;-0.21;0.97;-0.21;377.20;-51.57;-409.00;0.92;-103.38;2.36;8.33 
12.691;0.08;0.14;0.91;-0.21;1.04;0.35;377.20;-52.53;-400.00;0.92;-103.35;2.37;8.30 
12.721;0.05;0.14;0.90;0.21;0.21;0.21;379.18;-52.53;-402.00;0.91;-103.33;2.38;8.30 
12.751;0.09;0.14;0.89;-0.21;-0.21;0.28;375.22;-55.39;-404.00;0.91;-103.30;2.42;8.28 
12.781;0.07;0.14;0.87;-0.56;0.35;0.21;371.26;-52.53;-403.00;0.88;-103.27;2.46;8.27 
12.811;0.06;0.12;0.88;-0.14;0.83;-0.14;376.21;-49.66;-403.00;0.89;-103.23;2.47;8.26 
12.842;0.06;0.14;0.90;-0.21;1.18;0.28;377.20;-52.53;-405.00;0.91;-103.20;2.46;8.25 
12.871;0.06;0.11;0.89;0.14;1.04;-0.07;378.19;-53.48;-402.00;0.90;-103.17;2.46;8.25 
12.901;0.08;0.12;0.86;0.07;1.11;-0.49;378.19;-52.53;-406.00;0.87;-103.13;2.46;8.24 
12.932;0.07;0.11;0.90;-0.14;0.42;-0.21;378.19;-52.53;-403.00;0.91;-103.09;2.49;8.24 
12.962;0.09;0.11;0.87;-0.28;0.63;-0.63;375.22;-51.57;-404.00;0.88;-103.04;2.51;8.21 
12.992;0.06;0.13;0.90;-0.07;0.07;-0.49;380.17;-54.44;-404.00;0.91;-102.99;2.52;8.21 
13.022;0.08;0.14;0.94;0.35;-0.21;-0.14;377.20;-55.39;-402.00;0.95;-102.95;2.54;8.23 
13.051;0.08;0.14;0.91;-0.14;1.67;-0.83;375.22;-54.44;-405.00;0.92;-102.89;2.55;8.25 
13.080;0.08;0.14;0.97;-0.14;9.39;-0.70;377.20;-54.44;-405.00;0.98;-102.84;2.48;8.25 
13.110;0.10;0.12;0.90;-2.30;13.70;3.34;378.19;-49.66;-401.00;0.91;-102.89;2.20;8.23 
13.141;0.08;0.14;0.86;-3.13;13.08;1.18;378.19;-51.57;-404.00;0.87;-102.99;1.83;8.14 
13.171;0.08;0.13;0.84;-1.81;10.09;0.07;378.19;-49.66;-405.00;0.85;-103.02;1.53;8.09 
13.201;0.06;0.13;0.83;-0.70;5.63;0.21;376.21;-43.93;-396.00;0.84;-103.01;1.37;8.06 
13.231;0.05;0.12;0.86;0.49;6.54;0.70;377.20;-46.80;-400.00;0.87;-103.01;1.27;8.06 
13.261;0.01;0.12;0.86;0.63;15.23;1.32;374.23;-44.89;-400.00;0.87;-103.05;1.00;8.09 
13.291;0.00;0.07;0.86;0.07;25.18;-0.07;375.22;-43.93;-399.00;0.86;-103.12;0.45;8.10 
13.321;0.00;0.07;0.87;0.28;32.42;-2.23;376.21;-35.34;-396.00;0.87;-103.15;-0.35;8.09 
13.350;-0.02;0.08;0.86;1.67;34.85;-3.62;377.20;-32.47;-394.00;0.86;-103.17;-1.37;8.12 
13.380;-0.02;0.10;0.84;4.24;37.22;-4.66;378.19;-26.74;-393.00;0.85;-103.16;-2.42;8.19 
13.410;0.00;0.08;0.86;4.24;45.15;-7.37;379.18;-22.92;-386.00;0.86;-103.11;-3.64;8.30 
13.441;0.02;0.12;0.88;4.94;46.75;-6.12;377.20;-12.42;-386.00;0.89;-103.06;-5.06;8.42 
13.471;0.00;0.09;0.90;2.43;44.31;-7.93;376.21;-3.82;-382.00;0.90;-102.99;-6.38;8.48 
13.501;0.00;0.08;0.90;2.50;36.52;-10.09;378.19;3.82;-376.00;0.90;-102.84;-7.42;8.45 
13.531;-0.03;0.05;0.87;0.90;38.19;-10.43;378.19;9.55;-376.00;0.87;-102.65;-8.40;8.43 
13.561;-0.06;0.05;0.89;2.02;49.39;-18.09;374.23;21.01;-370.00;0.89;-102.32;-9.70;8.29 
13.591;-0.16;0.14;0.88;-4.38;62.75;-19.55;375.22;28.65;-364.00;0.91;-101.87;-11.30;8.11 
13.621;-0.23;0.19;0.97;-14.75;66.30;-14.54;371.26;42.98;-360.00;1.01;-101.51;-13.31;7.80 
13.652;-0.25;0.18;0.97;-13.98;68.45;-17.74;367.30;48.71;-354.00;1.02;-101.15;-15.38;7.27 
13.681;-0.30;0.14;1.07;-13.36;62.26;-15.51;364.33;63.99;-348.00;1.12;-100.75;-17.37;6.75 
13.711;-0.45;0.06;1.12;-6.19;62.54;-11.27;365.32;77.36;-341.00;1.21;-100.45;-19.19;6.29 
13.742;-0.40;0.09;1.10;11.97;51.48;-6.75;363.34;79.27;-342.00;1.17;-100.20;-20.92;6.23 
13.772;-0.44;0.04;1.04;17.32;40.56;-5.08;360.37;93.60;-330.00;1.13;-100.06;-22.36;6.52 
13.802;-0.49;0.06;0.98;16.35;33.60;-3.48;362.35;91.69;-322.00;1.10;-99.97;-23.46;6.87 
13.832;-0.44;0.07;1.03;16.00;35.90;-6.54;360.37;100.28;-318.00;1.12;-99.88;-24.49;7.18 
13.862;-0.54;0.07;0.97;20.03;34.16;-10.64;360.37;104.10;-309.00;1.11;-99.66;-25.60;7.50 
13.892;-0.54;0.10;0.96;27.90;28.24;-14.68;357.40;106.01;-308.00;1.11;-99.34;-26.55;7.90 
13.922;-0.53;0.09;0.98;29.91;24.56;-19.48;360.37;108.88;-304.00;1.12;-98.92;-27.34;8.43 
13.952;-0.54;0.10;0.92;30.68;22.96;-28.10;355.42;118.43;-296.00;1.07;-98.28;-28.13;8.84 
13.982;-0.48;0.10;1.00;29.50;9.74;-23.44;353.44;119.38;-288.00;1.11;-97.55;-28.78;9.16 
14.012;-0.45;0.08;0.92;31.30;-0.07;-23.93;355.42;125.11;-291.00;1.03;-96.86;-28.89;9.61 
14.042;-0.42;0.10;0.90;28.45;-15.44;-23.23;355.42;126.07;-289.00;1.00;-96.12;-28.66;9.97 
14.072;-0.31;0.04;0.88;34.37;-21.08;-33.53;352.45;120.34;-295.00;0.93;-95.22;-28.18;10.27 
14.102;-0.29;0.17;0.87;28.31;-40.28;-39.30;353.44;123.20;-295.00;0.93;-93.94;-27.28;10.56 
14.132;-0.34;0.12;0.74;17.04;-61.01;-30.82;349.48;118.43;-305.00;0.82;-92.67;-25.84;10.70 
14.162;-0.35;0.01;0.63;17.67;-69.01;-34.23;346.51;111.74;-320.00;0.72;-91.28;-24.09;10.63 
14.192;-0.36;-0.04;0.50;18.57;-72.49;-42.43;346.51;105.06;-330.00;0.62;-89.77;-22.13;10.64 
14.222;-0.32;-0.02;0.44;18.85;-62.33;-50.37;344.53;99.33;-341.00;0.54;-87.91;-20.44;10.48 
14.252;-0.31;0.07;0.41;17.18;-45.57;-55.30;343.54;99.33;-348.00;0.52;-85.93;-19.22;10.37 
14.282;-0.38;0.18;0.46;18.30;-24.49;-54.75;341.56;100.28;-352.00;0.62;-84.08;-18.63;10.34 
14.312;-0.44;0.26;0.42;19.55;-16.21;-51.97;340.57;106.97;-354.00;0.66;-82.42;-18.49;10.49 
14.342;-0.37;0.29;0.47;22.61;-10.71;-49.18;338.59;108.88;-353.00;0.66;-80.91;-18.51;10.84 
