Time(s) acc_x(g) acc_y(g) acc_z(g) gyr_x(°/s) gyr_y(°/s) gyr_z(°/s) mag_x(G) mag_y(G) mag_z(G) SVM(g) yaw(°) pitch(°) roll(°)
0.000;0.42;0.15;0.84;7.51;-9.32;-5.91;36.63;-518.61;-347.00;0.95;124.27;28.55;19.58 
0.030;0.44;0.16;0.79;7.58;-12.03;-5.50;37.62;-520.52;-346.00;0.92;124.42;28.90;19.85 
0.060;0.41;0.19;0.72;6.40;-10.43;-7.03;40.59;-524.34;-342.00;0.85;124.60;29.27;20.15 
0.090;0.40;0.19;0.77;4.59;-3.48;-7.23;40.59;-523.38;-344.00;0.89;124.80;29.51;20.44 
0.120;0.42;0.22;0.79;3.13;2.30;-6.82;45.54;-528.16;-342.00;0.92;125.00;29.57;20.66 
0.150;0.38;0.26;0.79;2.78;3.27;-6.12;46.53;-526.25;-343.00;0.91;125.20;29.50;20.87 
0.181;0.36;0.25;0.82;2.43;-2.37;-4.87;45.54;-525.29;-342.00;0.93;125.40;29.45;21.08 
0.211;0.36;0.25;0.80;2.71;-6.33;-3.62;45.54;-527.20;-340.00;0.91;125.55;29.57;21.24 
0.241;0.45;0.20;0.79;3.41;-7.79;-5.15;48.51;-529.11;-340.00;0.93;125.69;29.76;21.43 
0.272;0.47;0.18;0.78;2.78;-7.51;-6.40;49.50;-531.98;-338.00;0.93;125.84;30.02;21.60 
0.302;0.48;0.25;0.78;1.25;-3.97;-7.17;54.45;-530.07;-336.00;0.95;126.01;30.23;21.75 
0.332;0.48;0.22;0.78;-1.25;-1.04;-5.84;50.49;-532.93;-341.00;0.94;126.18;30.34;21.88 
0.362;0.46;0.24;0.77;-2.64;4.24;-8.00;54.45;-532.93;-334.00;0.93;126.36;30.36;21.94 
0.391;0.44;0.22;0.82;-1.04;8.28;-8.07;53.46;-529.11;-339.00;0.96;126.59;30.18;22.05 
0.420;0.37;0.22;0.82;-0.28;5.36;-7.51;55.44;-531.02;-340.00;0.93;126.81;29.96;22.16 
0.449;0.35;0.23;0.85;0.83;3.13;-8.00;56.43;-531.02;-339.00;0.95;127.03;29.74;22.29 
0.480;0.38;0.22;0.85;2.16;-4.03;-6.68;61.38;-531.02;-339.00;0.96;127.26;29.69;22.46 
0.510;0.43;0.19;0.77;1.95;-5.84;-5.91;60.39;-531.02;-338.00;0.90;127.46;29.81;22.61 
0.540;0.41;0.19;0.79;0.77;-0.83;-5.36;63.36;-531.02;-343.00;0.91;127.61;29.89;22.71 
0.570;0.39;0.22;0.81;0.42;1.67;-3.69;62.37;-532.93;-337.00;0.93;127.73;29.87;22.79 
0.600;0.42;0.22;0.79;0.21;3.06;-2.57;63.36;-531.02;-334.00;0.92;127.76;29.89;22.80 
0.630;0.46;0.24;0.84;1.46;5.43;-5.01;67.32;-531.98;-337.00;0.99;127.85;29.85;22.87 
0.660;0.42;0.22;0.82;1.53;-2.23;-2.78;66.33;-532.93;-337.00;0.95;127.93;29.83;22.96 
0.691;0.38;0.19;0.78;-0.49;-1.18;-3.48;67.32;-531.02;-340.00;0.89;128.00;29.93;22.99 
0.721;0.38;0.24;0.78;-0.97;0.90;-5.01;66.33;-532.93;-338.00;0.90;128.11;29.91;23.01 
0.751;0.37;0.27;0.77;0.28;-1.88;-1.53;72.27;-533.89;-334.00;0.90;128.22;29.95;23.06 
0.781;0.38;0.27;0.79;1.88;3.27;1.67;66.33;-531.02;-336.00;0.92;128.24;29.99;23.13 
0.810;0.39;0.30;0.78;1.74;4.94;4.66;70.29;-531.02;-337.00;0.92;128.18;29.96;23.18 
0.840;0.42;0.32;0.78;0.97;3.97;5.63;70.29;-532.93;-337.00;0.94;128.03;29.95;23.16 
0.870;0.42;0.26;0.78;-0.28;1.25;4.45;67.32;-533.89;-336.00;0.92;127.88;30.02;23.13 
0.900;0.42;0.23;0.76;-3.34;3.06;2.78;65.34;-529.11;-337.00;0.90;127.74;30.14;23.03 
0.930;0.46;0.24;0.78;-2.57;6.19;0.21;68.31;-531.98;-337.00;0.94;127.69;30.17;22.94 
0.960;0.39;0.24;0.78;-2.37;7.79;5.15;63.36;-530.07;-341.00;0.90;127.60;30.14;22.85 
0.991;0.38;0.22;0.80;-2.92;12.24;7.17;62.37;-527.20;-342.00;0.91;127.41;30.01;22.67 
1.021;0.41;0.19;0.85;-3.90;7.37;10.71;61.38;-530.07;-345.00;0.96;127.12;29.93;22.39 
1.051;0.38;0.19;0.85;-0.42;-2.16;6.12;56.43;-528.16;-342.00;0.95;126.82;30.01;22.12 
1.082;0.41;0.18;0.81;3.69;0.42;3.83;56.43;-526.25;-343.00;0.93;126.64;30.17;22.04 
1.112;0.38;0.24;0.77;1.53;0.07;3.48;60.39;-526.25;-347.00;0.89;126.53;30.27;22.05 
1.141;0.38;0.22;0.78;-0.21;9.60;1.95;59.40;-525.29;-344.00;0.90;126.43;30.26;22.04 
1.170;0.38;0.21;0.85;-1.60;12.10;1.74;56.43;-527.20;-346.00;0.95;126.39;30.04;21.99 
1.199;0.36;0.20;0.84;-1.95;10.57;1.32;57.42;-525.29;-349.00;0.94;126.34;29.79;21.91 
1.228;0.38;0.16;0.83;-2.71;8.56;-1.32;55.44;-522.43;-352.00;0.93;126.31;29.57;21.81 
1.257;0.39;0.17;0.83;-3.76;6.05;-3.13;57.42;-520.52;-351.00;0.93;126.35;29.41;21.72 
1.286;0.38;0.19;0.77;-3.48;5.29;-3.97;55.44;-518.61;-352.00;0.88;126.44;29.28;21.65 
1.315;0.37;0.22;0.84;-2.64;5.29;-3.97;55.44;-521.47;-351.00;0.94;126.53;29.18;21.60 
1.344;0.39;0.22;0.82;-1.81;6.40;-2.43;57.42;-520.52;-355.00;0.93;126.63;29.06;21.60 
1.375;0.39;0.22;0.84;-0.83;7.10;-1.32;54.45;-519.56;-352.00;0.95;126.68;28.92;21.59 
1.405;0.36;0.19;0.81;-1.74;7.23;-1.74;54.45;-516.70;-357.00;0.91;126.76;28.75;21.62 
1.435;0.36;0.19;0.83;-2.43;6.12;-2.92;56.43;-516.70;-359.00;0.92;126.83;28.58;21.60 
1.466;0.33;0.22;0.83;-2.30;4.87;-1.74;57.42;-514.79;-361.00;0.92;126.91;28.43;21.57 
1.496;0.34;0.23;0.81;-1.74;4.10;-1.46;59.40;-516.70;-359.00;0.91;126.97;28.34;21.54 
1.526;0.33;0.23;0.82;-1.53;5.01;-1.04;56.43;-516.70;-359.00;0.91;127.03;28.24;21.55 
1.556;0.34;0.23;0.82;-1.60;5.01;-0.83;54.45;-513.83;-358.00;0.92;127.07;28.14;21.53 
1.587;0.35;0.22;0.82;-1.25;4.45;-0.35;55.44;-516.70;-359.00;0.92;127.08;28.09;21.49 
1.617;0.34;0.21;0.85;-1.04;4.38;-0.21;57.42;-514.79;-364.00;0.94;127.11;28.00;21.48 
1.647;0.35;0.19;0.85;-1.11;3.34;-0.56;57.42;-512.88;-363.00;0.94;127.13;27.92;21.46 
1.678;0.33;0.21;0.83;-1.60;2.37;0.21;60.39;-512.88;-361.00;0.92;127.15;27.90;21.42 
1.707;0.34;0.19;0.84;-1.46;3.41;0.07;55.44;-513.83;-360.00;0.93;127.15;27.88;21.38 
1.736;0.30;0.16;0.79;-1.11;3.27;0.07;53.46;-514.79;-361.00;0.86;127.16;27.85;21.35 
1.765;0.34;0.20;0.84;-1.04;3.48;0.63;58.41;-514.79;-361.00;0.93;127.16;27.81;21.32 
1.795;0.33;0.18;0.80;-1.32;3.06;0.63;55.44;-510.01;-365.00;0.88;127.17;27.76;21.29 
1.825;0.34;0.20;0.82;-1.32;1.81;0.63;53.46;-512.88;-363.00;0.91;127.17;27.73;21.24 
1.855;0.34;0.18;0.82;-0.77;2.02;0.07;55.44;-510.01;-361.00;0.91;127.18;27.71;21.21 
1.886;0.31;0.22;0.84;-0.90;2.02;0.35;58.41;-510.97;-363.00;0.92;127.17;27.72;21.17 
1.916;0.32;0.18;0.84;-0.63;1.53;0.14;56.43;-510.97;-366.00;0.92;127.18;27.73;21.16 
1.946;0.33;0.20;0.85;-0.70;1.32;0.21;58.41;-511.92;-365.00;0.93;127.20;27.74;21.14 
1.977;0.29;0.16;0.83;-0.90;1.74;0.00;57.42;-512.88;-361.00;0.89;127.21;27.73;21.12 
2.007;0.34;0.18;0.83;-0.77;0.42;0.14;57.42;-514.79;-363.00;0.91;127.23;27.75;21.10 
2.037;0.33;0.19;0.85;-0.90;0.63;-0.07;53.46;-510.97;-367.00;0.93;127.23;27.80;21.06 
2.067;0.34;0.21;0.82;-0.42;0.97;0.35;55.44;-511.92;-362.00;0.91;127.23;27.83;21.03 
2.097;0.33;0.21;0.86;0.07;0.83;0.49;53.46;-510.97;-362.00;0.94;127.25;27.85;21.04 
2.127;0.35;0.22;0.84;-0.07;0.97;0.07;53.46;-510.97;-363.00;0.94;127.25;27.87;21.02 
2.156;0.34;0.22;0.82;-0.77;0.35;0.63;55.44;-510.01;-366.00;0.91;127.26;27.91;21.02 
2.187;0.34;0.18;0.83;-0.77;-0.14;0.21;54.45;-509.05;-363.00;0.91;127.26;27.98;20.99 
2.217;0.34;0.20;0.84;-0.90;0.49;0.42;52.47;-511.92;-362.00;0.93;127.27;28.01;20.98 
2.247;0.35;0.21;0.85;-0.28;0.35;0.28;51.48;-510.01;-369.00;0.94;127.28;28.04;20.96 
2.277;0.34;0.18;0.84;-0.77;0.49;0.14;52.47;-513.83;-363.00;0.92;127.29;28.08;20.94 
2.307;0.34;0.19;0.83;-0.28;0.77;0.21;53.46;-513.83;-363.00;0.92;127.32;28.12;20.93 
2.337;0.34;0.22;0.86;-0.56;0.35;0.14;52.47;-514.79;-363.00;0.95;127.33;28.17;20.90 
2.367;0.31;0.22;0.86;-0.49;0.56;-0.07;53.46;-511.92;-362.00;0.94;127.34;28.22;20.89 
2.398;0.35;0.20;0.82;-0.49;0.28;-0.42;53.46;-510.97;-361.00;0.91;127.37;28.23;20.89 
2.427;0.34;0.21;0.85;-0.70;-0.35;0.21;50.49;-512.88;-360.00;0.94;127.39;28.28;20.87 
2.457;0.35;0.21;0.82;-0.63;0.28;-0.42;53.46;-513.83;-360.00;0.92;127.42;28.31;20.86 
2.488;0.31;0.21;0.79;-0.77;0.42;-0.21;55.44;-512.88;-364.00;0.87;127.44;28.36;20.84 
2.518;0.34;0.19;0.84;-1.11;0.21;0.28;55.44;-512.88;-360.00;0.93;127.46;28.41;20.80 
2.548;0.34;0.19;0.85;-0.90;0.00;0.28;50.49;-511.92;-361.00;0.93;127.48;28.44;20.78 
2.578;0.34;0.21;0.82;-0.97;-1.60;1.11;53.46;-513.83;-362.00;0.91;127.49;28.50;20.75 
2.608;0.34;0.19;0.82;-0.70;0.63;0.56;45.54;-513.83;-359.00;0.91;127.48;28.57;20.71 
2.638;0.34;0.21;0.80;-0.97;0.49;0.49;55.44;-511.92;-360.00;0.89;127.48;28.60;20.68 
2.668;0.34;0.18;0.85;-0.35;1.74;-0.21;53.46;-510.01;-364.00;0.93;127.48;28.62;20.64 
2.699;0.34;0.18;0.85;-0.63;0.56;-0.56;52.47;-513.83;-361.00;0.93;127.51;28.63;20.62 
2.729;0.33;0.20;0.81;0.07;-0.97;0.00;53.46;-512.88;-360.00;0.90;127.56;28.66;20.65 
2.758;0.33;0.20;0.85;-0.21;-0.14;-0.49;50.49;-516.70;-359.00;0.93;127.60;28.71;20.64 
2.787;0.36;0.20;0.81;-0.83;0.90;-0.49;53.46;-515.74;-364.00;0.91;127.64;28.72;20.66 
2.817;0.34;0.18;0.84;-1.32;0.42;0.07;50.49;-516.70;-361.00;0.92;127.66;28.76;20.62 
2.847;0.34;0.18;0.85;-0.83;1.53;-0.14;51.48;-510.97;-362.00;0.93;127.68;28.74;20.58 
2.877;0.34;0.19;0.80;-0.90;1.39;0.14;49.50;-512.88;-363.00;0.89;127.71;28.75;20.56 
2.907;0.34;0.22;0.83;-0.77;1.18;0.07;49.50;-510.97;-362.00;0.92;127.73;28.75;20.53 
2.937;0.33;0.21;0.80;-0.42;1.74;0.07;49.50;-512.88;-360.00;0.89;127.76;28.74;20.51 
2.967;0.32;0.20;0.83;-0.14;1.39;0.35;50.49;-514.79;-362.00;0.91;127.78;28.73;20.49 
2.998;0.34;0.20;0.81;-0.42;0.97;0.35;52.47;-513.83;-360.00;0.90;127.80;28.72;20.48 
3.028;0.34;0.20;0.79;-0.83;1.25;0.07;52.47;-513.83;-361.00;0.88;127.83;28.71;20.46 
3.057;0.35;0.19;0.83;-1.11;0.35;0.00;51.48;-511.92;-362.00;0.92;127.87;28.70;20.43 
3.088;0.34;0.22;0.83;-1.67;-0.28;-0.07;49.50;-513.83;-359.00;0.92;127.89;28.71;20.38 
3.118;0.36;0.19;0.83;-0.70;-0.42;-0.14;52.47;-514.79;-362.00;0.92;127.91;28.76;20.32 
3.148;0.34;0.19;0.82;-0.97;0.28;0.07;47.52;-511.92;-360.00;0.91;127.93;28.80;20.29 
3.178;0.36;0.20;0.82;-1.18;1.11;0.49;51.48;-512.88;-359.00;0.92;127.95;28.83;20.25 
3.209;0.34;0.19;0.82;-0.42;1.11;-0.07;52.47;-516.70;-359.00;0.91;127.98;28.84;20.22 
3.239;0.36;0.18;0.85;-0.42;2.16;0.28;50.49;-515.74;-358.00;0.94;128.00;28.86;20.20 
3.269;0.34;0.21;0.83;-0.35;1.18;-0.21;51.48;-513.83;-360.00;0.92;128.04;28.85;20.19 
3.300;0.36;0.19;0.84;-0.83;0.70;-0.28;54.45;-513.83;-358.00;0.93;128.09;28.85;20.20 
3.330;0.29;0.18;0.82;-0.83;0.49;0.21;49.50;-513.83;-360.00;0.89;128.13;28.85;20.18 
3.360;0.33;0.20;0.82;-0.56;0.70;0.07;47.52;-513.83;-359.00;0.91;128.16;28.87;20.16 
3.389;0.34;0.18;0.82;-0.14;0.70;-0.28;48.51;-512.88;-360.00;0.91;128.19;28.88;20.15 
3.418;0.35;0.20;0.83;-0.07;1.11;-0.07;50.49;-513.83;-359.00;0.92;128.22;28.87;20.15 
3.447;0.35;0.19;0.83;-0.70;1.18;0.28;48.51;-513.83;-357.00;0.92;128.25;28.88;20.15 
3.477;0.36;0.16;0.77;-0.42;1.32;0.28;50.49;-512.88;-361.00;0.86;128.29;28.88;20.13 
3.508;0.34;0.19;0.85;0.00;2.02;0.28;52.47;-514.79;-360.00;0.93;128.31;28.87;20.10 
3.538;0.34;0.20;0.82;-0.07;1.39;0.00;50.49;-513.83;-359.00;0.91;128.33;28.87;20.09 
3.568;0.35;0.18;0.80;0.07;0.35;-0.14;45.54;-514.79;-361.00;0.89;128.38;28.88;20.11 
3.599;0.34;0.19;0.82;0.28;0.63;0.14;48.51;-516.70;-361.00;0.91;128.43;28.88;20.12 
3.629;0.34;0.19;0.83;-0.21;0.35;0.07;47.52;-512.88;-361.00;0.92;128.44;28.92;20.10 
3.658;0.34;0.18;0.82;-0.21;1.32;0.00;50.49;-512.88;-361.00;0.91;128.48;28.92;20.10 
3.688;0.33;0.19;0.82;-0.28;1.25;-0.07;49.50;-511.92;-360.00;0.90;128.51;28.92;20.09 
3.718;0.36;0.22;0.86;-0.42;1.18;-0.63;53.46;-514.79;-361.00;0.96;128.57;28.90;20.11 
3.748;0.35;0.21;0.84;-0.49;1.04;-0.83;50.49;-510.97;-362.00;0.93;128.63;28.90;20.10 
3.778;0.35;0.19;0.82;-1.11;0.83;-0.35;48.51;-512.88;-359.00;0.91;128.69;28.89;20.11 
3.809;0.34;0.20;0.82;-1.11;1.53;-0.63;50.49;-512.88;-362.00;0.91;128.75;28.89;20.09 
3.839;0.34;0.19;0.82;-0.97;1.39;-0.42;46.53;-516.70;-360.00;0.91;128.81;28.87;20.08 
3.869;0.35;0.18;0.81;-0.97;1.39;-0.07;50.49;-514.79;-361.00;0.90;128.86;28.86;20.06 
3.899;0.35;0.18;0.82;-1.11;1.25;-0.14;49.50;-511.92;-360.00;0.91;128.90;28.85;20.02 
3.929;0.36;0.17;0.82;-1.11;1.74;-0.42;50.49;-515.74;-356.00;0.91;128.96;28.80;20.00 
3.959;0.34;0.22;0.84;-1.04;2.02;-0.42;47.52;-510.97;-361.00;0.93;129.02;28.75;19.98 
3.989;0.35;0.20;0.79;-0.97;2.09;-0.42;51.48;-513.83;-358.00;0.89;129.08;28.72;19.96 
4.020;0.34;0.20;0.84;-1.39;1.46;-0.42;49.50;-514.79;-363.00;0.93;129.14;28.69;19.94 
4.049;0.34;0.18;0.84;-0.83;0.77;-0.14;50.49;-513.83;-361.00;0.92;129.18;28.71;19.90 
4.079;0.34;0.20;0.84;-0.70;1.39;0.21;48.51;-514.79;-363.00;0.93;129.21;28.73;19.86 
4.110;0.33;0.18;0.84;-0.70;1.67;-0.35;46.53;-510.97;-360.00;0.92;129.26;28.71;19.86 
4.140;0.34;0.20;0.80;-0.63;2.43;-0.35;52.47;-511.92;-358.00;0.89;129.32;28.68;19.85 
4.170;0.34;0.18;0.84;-0.56;1.60;-0.14;50.49;-511.92;-362.00;0.92;129.38;28.65;19.84 
4.200;0.36;0.19;0.82;-0.42;1.18;-0.28;51.48;-511.92;-359.00;0.92;129.42;28.64;19.83 
4.230;0.34;0.18;0.82;-0.28;1.67;-0.21;53.46;-512.88;-360.00;0.91;129.47;28.62;19.81 
4.260;0.35;0.17;0.86;-0.14;1.18;-0.35;48.51;-514.79;-361.00;0.94;129.52;28.59;19.82 
4.290;0.34;0.18;0.85;-0.35;1.81;-0.28;51.48;-511.92;-361.00;0.93;129.58;28.55;19.82 
4.321;0.34;0.21;0.80;-0.42;1.60;-0.28;50.49;-511.92;-363.00;0.89;129.64;28.51;19.81 
4.351;0.34;0.19;0.82;-0.70;1.60;-0.28;50.49;-510.97;-362.00;0.91;129.70;28.49;19.82 
4.381;0.35;0.18;0.82;-0.83;1.88;-0.28;50.49;-512.88;-363.00;0.91;129.76;28.46;19.80 
4.411;0.36;0.18;0.83;-0.77;2.09;-0.90;52.47;-510.97;-360.00;0.92;129.82;28.43;19.79 
4.440;0.33;0.20;0.82;-0.77;2.16;-0.70;50.49;-514.79;-365.00;0.91;129.89;28.40;19.79 
4.469;0.34;0.19;0.83;-0.56;1.95;-0.35;47.52;-510.97;-362.00;0.92;129.94;28.38;19.77 
4.498;0.32;0.18;0.82;-0.70;2.16;-0.07;50.49;-514.79;-361.00;0.90;129.99;28.33;19.75 
4.527;0.32;0.20;0.87;-0.63;2.02;-0.28;51.48;-512.88;-359.00;0.95;130.04;28.29;19.72 
4.557;0.33;0.18;0.84;-0.14;1.67;0.35;50.49;-510.97;-362.00;0.92;130.09;28.26;19.71 
4.587;0.32;0.19;0.82;-0.14;0.97;0.35;50.49;-512.88;-363.00;0.90;130.14;28.24;19.69 
4.618;0.34;0.19;0.88;-0.14;0.77;-0.14;51.48;-511.92;-365.00;0.96;130.19;28.22;19.67 
4.648;0.34;0.19;0.82;-0.28;1.25;-0.07;48.51;-514.79;-363.00;0.91;130.24;28.22;19.66 
4.678;0.34;0.18;0.84;-0.42;1.04;0.00;51.48;-510.01;-363.00;0.92;130.29;28.20;19.64 
4.708;0.34;0.18;0.82;-0.07;0.28;0.28;52.47;-512.88;-364.00;0.91;130.34;28.18;19.64 
4.737;0.32;0.18;0.83;-0.28;-0.21;0.56;50.49;-511.92;-363.00;0.91;130.39;28.20;19.65 
4.767;0.34;0.18;0.86;-0.07;0.42;0.42;48.51;-510.01;-362.00;0.94;130.44;28.21;19.65 
4.797;0.34;0.18;0.85;-0.35;0.77;0.28;44.55;-511.92;-363.00;0.93;130.50;28.20;19.66 
4.827;0.35;0.18;0.83;-0.83;0.63;0.14;53.46;-513.83;-362.00;0.92;130.55;28.20;19.64 
4.857;0.34;0.20;0.82;-0.56;0.42;0.21;51.48;-511.92;-364.00;0.91;130.59;28.23;19.63 
4.887;0.33;0.19;0.81;-0.42;0.97;0.63;52.47;-508.10;-361.00;0.90;130.63;28.25;19.61 
4.918;0.34;0.18;0.82;-0.21;0.97;0.70;49.50;-509.05;-363.00;0.91;130.65;28.26;19.58 
4.948;0.34;0.19;0.82;-0.35;1.46;0.56;48.51;-511.92;-362.00;0.91;130.71;28.24;19.58 
4.978;0.31;0.20;0.84;-0.42;2.16;-0.14;50.49;-509.05;-365.00;0.92;130.76;28.22;19.58 
5.008;0.34;0.18;0.82;-0.35;2.64;-0.77;51.48;-511.92;-361.00;0.91;130.83;28.17;19.59 
5.038;0.34;0.20;0.86;0.00;2.57;-0.97;50.49;-510.01;-363.00;0.95;130.90;28.11;19.60 
5.067;0.36;0.18;0.85;-0.49;1.60;-1.04;47.52;-508.10;-365.00;0.94;130.99;28.06;19.60 
5.097;0.34;0.20;0.82;-0.28;0.49;-0.14;51.48;-510.01;-364.00;0.91;131.06;28.05;19.59 
5.127;0.30;0.17;0.83;-0.14;-0.28;-0.14;51.48;-509.05;-365.00;0.90;131.12;28.06;19.59 
5.157;0.33;0.20;0.81;0.28;0.00;-0.28;49.50;-513.83;-362.00;0.90;131.19;28.08;19.60 
5.187;0.34;0.19;0.84;0.14;-0.83;-0.07;51.48;-515.74;-362.00;0.93;131.25;28.10;19.60 
5.218;0.32;0.21;0.85;0.07;-1.46;-0.07;49.50;-511.92;-364.00;0.93;131.32;28.11;19.61 
5.248;0.31;0.20;0.80;-0.14;-1.74;0.35;50.49;-509.05;-364.00;0.88;131.37;28.17;19.61 
5.278;0.34;0.18;0.82;-0.28;-2.57;0.97;49.50;-512.88;-365.00;0.91;131.40;28.26;19.58 
5.308;0.36;0.19;0.82;-0.49;-2.43;0.49;50.49;-510.97;-362.00;0.92;131.43;28.36;19.56 
5.338;0.36;0.19;0.78;-0.56;-1.04;0.77;51.48;-511.92;-359.00;0.88;131.47;28.44;19.55 
5.367;0.38;0.20;0.81;-0.49;0.63;0.70;50.49;-513.83;-358.00;0.92;131.50;28.48;19.54 
5.396;0.38;0.18;0.82;-0.14;0.63;0.90;51.48;-512.88;-360.00;0.92;131.53;28.51;19.51 
5.427;0.35;0.17;0.82;-0.14;1.11;0.14;48.51;-512.88;-360.00;0.91;131.57;28.52;19.50 
5.457;0.38;0.17;0.83;-0.07;1.81;-0.14;53.46;-512.88;-363.00;0.93;131.61;28.51;19.48 
5.487;0.34;0.17;0.81;-0.21;0.90;-0.49;49.50;-510.97;-360.00;0.89;131.67;28.50;19.47 
5.518;0.34;0.22;0.82;-0.70;1.53;-0.28;50.49;-513.83;-360.00;0.91;131.76;28.47;19.46 
5.548;0.34;0.22;0.86;-0.90;1.67;-0.42;49.50;-513.83;-360.00;0.95;131.83;28.43;19.45 
5.578;0.34;0.19;0.82;-0.90;0.97;-0.42;47.52;-513.83;-358.00;0.91;131.91;28.40;19.43 
5.608;0.36;0.19;0.83;-0.63;1.04;0.07;47.52;-513.83;-357.00;0.92;131.98;28.38;19.40 
5.637;0.34;0.19;0.82;-0.42;0.90;0.07;52.47;-515.74;-365.00;0.91;132.04;28.37;19.38 
5.667;0.33;0.21;0.82;-0.07;0.77;0.00;49.50;-512.88;-361.00;0.91;132.11;28.33;19.37 
5.697;0.35;0.18;0.81;-0.70;0.77;0.35;50.49;-516.70;-359.00;0.90;132.16;28.32;19.35 
5.728;0.35;0.20;0.82;-1.04;1.25;0.63;49.50;-514.79;-361.00;0.91;132.22;28.31;19.33 
5.758;0.34;0.18;0.85;-0.63;1.04;0.49;50.49;-513.83;-363.00;0.93;132.25;28.34;19.29 
5.788;0.35;0.18;0.82;-0.42;1.74;0.56;49.50;-512.88;-363.00;0.91;132.30;28.32;19.28 
5.818;0.34;0.17;0.82;-0.28;1.46;0.49;47.52;-512.88;-360.00;0.90;132.34;28.31;19.25 
5.848;0.34;0.18;0.80;-0.07;2.64;0.35;50.49;-511.92;-358.00;0.89;132.40;28.30;19.25 
5.878;0.38;0.22;0.87;-0.90;2.92;0.21;49.50;-513.83;-360.00;0.97;132.46;28.23;19.23 
5.908;0.33;0.20;0.86;-1.32;2.50;-0.07;50.49;-513.83;-362.00;0.94;132.54;28.16;19.22 
5.939;0.33;0.20;0.84;-1.74;2.16;-0.14;46.53;-512.88;-361.00;0.92;132.62;28.10;19.18 
5.969;0.34;0.19;0.86;-1.46;1.25;0.00;48.51;-511.92;-363.00;0.94;132.70;28.06;19.13 
5.999;0.34;0.17;0.82;-1.25;2.02;-0.07;48.51;-512.88;-362.00;0.90;132.76;28.03;19.08 
6.030;0.34;0.18;0.81;-1.04;2.92;-0.56;47.52;-511.92;-363.00;0.90;132.86;27.96;19.06 
6.060;0.32;0.20;0.84;-0.63;2.92;0.14;48.51;-510.01;-361.00;0.92;132.95;27.89;19.05 
6.090;0.33;0.17;0.82;-0.90;2.43;0.00;47.52;-511.92;-358.00;0.90;133.02;27.82;19.03 
6.120;0.33;0.19;0.88;-0.97;2.37;0.63;47.52;-509.05;-364.00;0.96;133.10;27.77;19.02 
6.150;0.31;0.20;0.86;-1.18;1.81;0.70;50.49;-511.92;-362.00;0.94;133.16;27.70;18.98 
6.179;0.34;0.18;0.84;-0.42;0.83;0.28;47.52;-511.92;-364.00;0.92;133.23;27.67;18.97 
6.208;0.31;0.19;0.84;-0.21;0.00;0.14;47.52;-510.01;-361.00;0.92;133.30;27.67;18.97 
6.239;0.34;0.19;0.84;-0.21;-0.42;0.07;44.55;-510.01;-364.00;0.93;133.36;27.68;18.95 
6.269;0.33;0.19;0.83;-0.35;0.21;0.28;44.55;-510.97;-358.00;0.91;133.44;27.67;18.95 
6.299;0.34;0.18;0.82;-0.21;0.63;0.21;47.52;-512.88;-360.00;0.91;133.50;27.67;18.93 
6.330;0.33;0.19;0.83;-0.28;0.56;0.42;49.50;-511.92;-361.00;0.91;133.57;27.67;18.93 
6.360;0.30;0.14;0.81;0.00;0.97;-0.21;45.54;-510.97;-365.00;0.88;133.64;27.67;18.92 
6.390;0.34;0.19;0.82;-0.28;0.97;-0.28;48.51;-508.10;-361.00;0.91;133.70;27.67;18.90 
6.419;0.34;0.20;0.80;0.07;1.11;-0.42;45.54;-510.97;-364.00;0.89;133.78;27.67;18.89 
6.449;0.33;0.18;0.82;-0.28;1.04;-0.21;44.55;-510.01;-363.00;0.90;133.86;27.66;18.90 
6.479;0.34;0.18;0.86;-0.21;1.11;0.14;44.55;-512.88;-364.00;0.94;133.92;27.64;18.89 
6.509;0.34;0.20;0.82;0.14;0.90;-0.07;44.55;-509.05;-362.00;0.91;134.00;27.63;18.88 
6.540;0.34;0.18;0.84;0.07;1.53;-0.70;49.50;-511.92;-362.00;0.92;134.08;27.60;18.89 
6.570;0.32;0.19;0.84;0.07;1.11;-0.42;47.52;-510.97;-360.00;0.92;134.19;27.55;18.90 
6.600;0.29;0.17;0.81;-0.07;0.83;-0.63;49.50;-512.88;-361.00;0.88;134.28;27.52;18.90 
6.630;0.34;0.18;0.82;-0.35;0.83;-0.70;47.52;-512.88;-362.00;0.91;134.36;27.51;18.90 
6.660;0.34;0.18;0.80;-0.42;0.00;0.14;48.51;-511.92;-363.00;0.89;134.44;27.52;18.88 
6.689;0.35;0.20;0.87;-0.70;0.63;0.42;47.52;-510.97;-364.00;0.96;134.50;27.52;18.85 
6.709;0.33;0.19;0.86;-0.07;0.90;-1.32;45.54;-510.01;-363.00;0.94;135.23;27.45;18.61 
6.739;0.34;0.16;0.81;0.21;0.14;-1.04;46.53;-512.88;-358.00;0.89;135.34;27.44;18.63 
6.769;0.34;0.17;0.84;0.28;-0.77;-1.25;48.51;-510.01;-359.00;0.92;135.45;27.44;18.65 
6.799;0.38;0.16;0.81;-0.49;0.21;-1.32;47.52;-512.88;-359.00;0.91;135.56;27.45;18.65 
6.829;0.37;0.18;0.87;-1.53;1.39;-1.46;48.51;-513.83;-362.00;0.96;135.68;27.43;18.65 
6.860;0.34;0.20;0.86;-1.39;0.63;-0.97;47.52;-512.88;-362.00;0.95;135.79;27.42;18.62 
6.890;0.33;0.20;0.81;-0.21;0.21;-0.35;47.52;-511.92;-361.00;0.90;135.90;27.42;18.62 
6.920;0.35;0.18;0.84;0.21;0.70;-0.35;47.52;-513.83;-363.00;0.93;135.99;27.41;18.63 
6.950;0.34;0.17;0.85;0.63;1.04;0.07;44.55;-511.92;-360.00;0.93;136.06;27.40;18.64 
6.980;0.34;0.19;0.87;0.77;1.74;0.00;46.53;-512.88;-359.00;0.95;136.14;27.37;18.67 
7.009;0.34;0.19;0.85;0.42;1.32;0.14;50.49;-513.83;-360.00;0.93;136.23;27.33;18.69 
7.039;0.34;0.19;0.81;-0.42;0.83;0.83;49.50;-512.88;-359.00;0.90;136.30;27.32;18.71 
7.070;0.35;0.18;0.85;-0.90;1.81;0.56;48.51;-514.79;-361.00;0.94;136.37;27.31;18.69 
7.100;0.36;0.15;0.83;-1.32;3.34;0.70;47.52;-512.88;-361.00;0.92;136.44;27.25;18.64 
7.130;0.34;0.18;0.81;-1.53;4.03;-0.07;45.54;-510.01;-364.00;0.90;136.52;27.15;18.59 
7.161;0.31;0.18;0.84;-1.39;2.30;-0.28;47.52;-510.97;-358.00;0.91;136.62;27.05;18.54 
7.191;0.33;0.18;0.82;-1.04;-0.63;0.07;44.55;-513.83;-360.00;0.90;136.72;27.03;18.51 
7.221;0.35;0.18;0.84;-0.83;0.21;-0.28;48.51;-511.92;-362.00;0.93;136.80;27.03;18.46 
7.251;0.34;0.19;0.81;-0.90;0.21;-0.07;52.47;-511.92;-359.00;0.90;136.88;27.03;18.43 
7.280;0.30;0.18;0.83;-0.21;0.35;-0.28;45.54;-510.97;-361.00;0.90;136.97;27.03;18.41 
7.310;0.36;0.18;0.89;0.21;-0.21;0.07;46.53;-511.92;-359.00;0.98;137.06;27.03;18.41 
7.340;0.32;0.20;0.84;0.00;0.07;0.07;47.52;-512.88;-359.00;0.92;137.13;27.04;18.42 
7.371;0.37;0.19;0.85;-0.28;0.14;-0.07;45.54;-510.01;-361.00;0.95;137.23;27.05;18.42 
7.401;0.37;0.17;0.82;-0.70;1.25;-0.07;47.52;-513.83;-359.00;0.92;137.32;27.03;18.42 
7.431;0.34;0.19;0.83;-1.04;2.64;-0.28;50.49;-511.92;-362.00;0.92;137.43;26.97;18.41 
7.461;0.30;0.19;0.82;-1.11;2.37;-0.35;45.54;-510.01;-359.00;0.89;137.54;26.91;18.39 
7.491;0.33;0.19;0.86;-1.39;2.09;-0.35;49.50;-510.97;-362.00;0.94;137.66;26.83;18.38 
7.521;0.34;0.18;0.83;-1.11;1.18;0.14;49.50;-510.01;-359.00;0.91;137.77;26.75;18.38 
7.551;0.35;0.18;0.82;-0.90;0.70;0.49;43.56;-511.92;-361.00;0.91;137.86;26.73;18.35 
7.581;0.34;0.17;0.85;-1.11;1.04;0.56;45.54;-510.01;-358.00;0.93;137.93;26.73;18.28 
7.610;0.32;0.15;0.82;-0.14;1.88;0.77;45.54;-510.97;-364.00;0.89;138.00;26.70;18.25 
7.640;0.33;0.20;0.84;-0.21;1.11;0.70;44.55;-510.01;-363.00;0.92;138.09;26.64;18.25 
7.671;0.35;0.17;0.86;0.21;0.97;0.28;44.55;-511.92;-360.00;0.94;138.17;26.62;18.23 
7.701;0.32;0.18;0.83;0.00;0.77;0.00;46.53;-511.92;-363.00;0.91;138.25;26.61;18.22 
7.731;0.34;0.18;0.85;0.00;1.04;-0.07;43.56;-510.01;-359.00;0.93;138.32;26.61;18.20 
7.761;0.34;0.18;0.81;-0.35;0.90;-0.21;44.55;-511.92;-361.00;0.90;138.41;26.59;18.20 
7.791;0.34;0.20;0.85;-0.83;-0.07;-0.49;43.56;-512.88;-361.00;0.94;138.52;26.56;18.17 
7.821;0.36;0.19;0.84;-0.49;-0.14;-0.07;43.56;-510.97;-361.00;0.93;138.62;26.57;18.15 
7.851;0.34;0.19;0.83;-0.21;-0.07;-0.14;48.51;-510.97;-360.00;0.92;138.70;26.60;18.14 
7.881;0.34;0.17;0.83;0.07;1.67;0.35;47.52;-508.10;-361.00;0.91;138.79;26.59;18.13 
7.911;0.34;0.19;0.83;0.14;2.30;0.07;45.54;-511.92;-360.00;0.92;138.87;26.55;18.11 
7.941;0.37;0.17;0.82;0.00;1.95;0.14;45.54;-510.97;-361.00;0.92;138.95;26.52;18.10 
7.972;0.30;0.17;0.82;0.07;1.11;0.00;47.52;-510.97;-361.00;0.89;139.05;26.48;18.12 
8.002;0.33;0.20;0.82;-0.21;0.14;-0.14;42.57;-509.05;-361.00;0.91;139.16;26.46;18.14 
8.031;0.34;0.19;0.84;-0.90;1.04;0.07;44.55;-510.97;-361.00;0.93;139.25;26.48;18.13 
8.061;0.32;0.21;0.82;-1.11;0.97;0.14;43.56;-511.92;-360.00;0.90;139.33;26.46;18.09 
8.091;0.34;0.18;0.82;-1.11;0.07;0.70;45.54;-511.92;-362.00;0.91;139.41;26.48;18.05 
8.121;0.33;0.16;0.81;-1.25;0.70;0.21;46.53;-510.01;-357.00;0.89;139.48;26.51;18.00 
8.151;0.34;0.17;0.80;-0.83;2.30;-0.63;44.55;-510.01;-360.00;0.89;139.58;26.46;17.98 
8.182;0.32;0.19;0.83;-0.63;2.64;-0.35;46.53;-510.01;-362.00;0.91;139.69;26.38;17.94 
8.212;0.30;0.17;0.82;-0.83;2.37;-0.97;48.51;-512.88;-364.00;0.89;139.82;26.29;17.91 
8.242;0.34;0.18;0.85;-0.35;1.53;-1.32;46.53;-510.01;-365.00;0.93;139.95;26.23;17.90 
8.271;0.33;0.19;0.84;-0.28;0.07;-0.97;46.53;-510.97;-360.00;0.92;140.08;26.19;17.90 
8.300;0.32;0.18;0.84;-0.56;0.35;-1.25;46.53;-509.05;-361.00;0.92;140.21;26.16;17.90 
8.330;0.31;0.19;0.85;-0.63;0.56;-0.63;45.54;-509.05;-361.00;0.92;140.33;26.14;17.89 
8.360;0.33;0.18;0.80;-0.83;1.25;-0.35;47.52;-510.97;-362.00;0.88;140.44;26.12;17.88 
8.390;0.34;0.18;0.81;-0.83;1.60;-0.21;43.56;-510.01;-360.00;0.90;140.54;26.10;17.84 
8.420;0.32;0.18;0.85;-1.60;2.02;-0.42;48.51;-510.01;-364.00;0.93;140.65;26.06;17.82 
8.450;0.34;0.18;0.85;-1.88;1.95;-0.70;48.51;-510.01;-363.00;0.93;140.78;26.00;17.80 
8.481;0.34;0.16;0.85;-1.95;1.74;-0.83;46.53;-509.05;-362.00;0.93;140.90;25.95;17.74 
8.511;0.34;0.19;0.84;-1.04;-0.07;-0.49;46.53;-509.05;-359.00;0.93;141.04;25.91;17.71 
8.541;0.33;0.18;0.82;-0.35;0.21;-1.11;47.52;-510.97;-363.00;0.90;141.16;25.90;17.71 
8.571;0.34;0.19;0.84;-0.97;0.77;-0.97;44.55;-510.01;-363.00;0.93;141.30;25.88;17.72 
8.601;0.33;0.23;0.86;-0.77;0.90;-1.04;46.53;-510.97;-360.00;0.95;141.43;25.86;17.70 
8.630;0.33;0.18;0.84;-0.70;1.32;-0.77;45.54;-510.97;-363.00;0.92;141.56;25.83;17.69 
8.659;0.33;0.17;0.85;-0.49;0.77;-0.63;47.52;-511.92;-360.00;0.93;141.68;25.78;17.68 
8.688;0.35;0.17;0.82;-0.28;0.56;-0.35;50.49;-511.92;-364.00;0.91;141.79;25.77;17.66 
8.718;0.34;0.19;0.84;0.21;0.28;-0.49;50.49;-511.92;-363.00;0.93;141.90;25.76;17.65 
8.748;0.34;0.16;0.82;0.14;0.35;0.21;42.57;-507.14;-360.00;0.90;141.99;25.75;17.66 
8.779;0.33;0.15;0.85;0.07;2.09;-0.14;49.50;-512.88;-360.00;0.92;142.09;25.73;17.65 
8.809;0.33;0.17;0.79;-0.07;2.50;-0.21;48.51;-509.05;-364.00;0.87;142.20;25.66;17.65 
8.839;0.31;0.17;0.82;-0.97;3.83;-0.42;50.49;-513.83;-364.00;0.89;142.30;25.60;17.62 
8.868;0.33;0.19;0.80;-2.30;6.68;-0.70;49.50;-510.01;-363.00;0.89;142.44;25.44;17.60 
8.897;0.37;0.19;0.84;-2.50;8.21;-0.28;46.53;-510.01;-363.00;0.94;142.59;25.24;17.56 
8.927;0.36;0.18;0.84;-1.04;8.97;-1.11;45.54;-510.97;-366.00;0.93;142.72;25.04;17.51 
8.957;0.37;0.17;0.81;-0.14;8.56;0.90;49.50;-509.05;-366.00;0.91;142.84;24.82;17.48 
8.987;0.36;0.17;0.77;-0.49;9.18;1.81;50.49;-504.28;-365.00;0.87;142.91;24.64;17.44 
9.017;0.37;0.18;0.77;-0.49;11.48;1.11;44.55;-502.37;-369.00;0.87;142.96;24.44;17.39 
9.047;0.34;0.20;0.78;0.97;13.57;0.07;50.49;-503.32;-372.00;0.87;143.06;24.15;17.38 
9.078;0.34;0.23;0.77;3.41;17.25;0.56;46.53;-500.46;-375.00;0.87;143.18;23.79;17.44 
9.108;0.29;0.29;0.78;8.00;21.15;3.69;48.51;-497.59;-372.00;0.88;143.29;23.28;17.62 
9.138;0.31;0.29;0.82;14.82;25.25;8.14;48.51;-490.91;-378.00;0.92;143.27;22.74;17.93 
9.168;0.32;0.26;0.81;21.01;27.48;11.83;49.50;-489.95;-385.00;0.91;143.07;22.16;18.36 
9.198;0.30;0.18;0.78;24.97;32.70;10.57;49.50;-485.18;-388.00;0.85;142.81;21.49;18.90 
9.228;0.31;0.10;0.86;24.49;33.32;8.35;50.49;-482.31;-389.00;0.92;142.59;20.69;19.43 
9.258;0.27;0.14;0.86;23.10;31.10;3.06;61.38;-469.90;-397.00;0.91;142.48;19.91;19.94 
9.289;0.24;0.18;0.85;22.19;34.30;2.43;59.40;-468.94;-405.00;0.90;142.47;19.05;20.48 
9.319;0.26;0.19;0.80;21.29;44.52;-1.11;69.30;-459.39;-408.00;0.86;142.54;18.01;21.03 
9.349;0.28;0.20;0.81;21.77;55.03;0.07;70.29;-450.80;-418.00;0.88;142.67;16.67;21.65 
9.378;0.32;0.18;0.86;24.63;62.40;0.28;78.21;-439.33;-424.00;0.94;142.71;15.24;22.23 
9.408;0.25;0.14;0.90;25.81;65.18;2.09;85.14;-425.96;-434.00;0.94;142.72;13.64;22.89 
9.438;0.14;0.14;0.89;18.99;65.18;8.28;89.10;-411.64;-437.00;0.91;142.58;12.00;23.38 
9.468;-0.04;0.30;0.81;17.60;72.90;-1.18;89.10;-401.13;-442.00;0.86;142.46;10.38;23.91 
9.497;0.04;0.38;1.10;8.56;104.42;-0.14;98.01;-373.43;-461.00;1.16;142.45;7.80;24.38 
9.527;-0.05;0.46;1.30;-6.26;70.96;-6.96;97.02;-356.24;-465.00;1.38;142.38;5.38;24.50 
9.557;-0.02;0.50;1.22;-4.45;33.39;4.38;99.00;-342.87;-471.00;1.32;142.41;3.88;24.42 
9.588;-0.05;0.41;1.17;-1.74;8.83;11.34;95.04;-339.05;-467.00;1.24;142.22;3.39;24.33 
9.618;0.06;0.37;1.02;-2.50;-10.09;7.44;94.05;-337.14;-469.00;1.09;142.09;3.51;24.32 
9.648;0.04;0.37;0.94;-4.87;-16.28;9.95;93.06;-339.05;-469.00;1.01;142.02;4.06;24.24 
9.679;0.00;0.31;0.90;-9.88;-8.63;7.44;94.05;-340.01;-470.00;0.95;141.88;4.63;24.13 
9.709;-0.06;0.31;0.82;-13.57;-2.92;1.95;92.07;-338.10;-464.00;0.88;141.87;4.85;23.79 
9.739;-0.07;0.34;0.81;-9.81;-1.67;-4.03;91.08;-334.28;-464.00;0.88;141.98;4.81;23.57 
9.768;-0.12;0.42;0.77;-5.36;-4.66;0.70;90.09;-331.41;-463.00;0.89;142.18;4.84;23.43 
9.797;-0.09;0.33;0.76;-5.84;-7.93;-1.53;90.09;-331.41;-461.00;0.83;142.37;4.93;23.39 
9.827;-0.06;0.37;0.77;-7.65;-8.42;2.57;92.07;-330.46;-463.00;0.86;142.52;5.09;23.29 
9.857;-0.09;0.34;0.67;-9.11;-6.68;7.03;87.12;-332.37;-461.00;0.76;142.58;5.32;23.16 
9.888;-0.13;0.30;0.66;-9.60;-1.25;12.94;87.12;-329.50;-458.00;0.74;142.45;5.44;22.97 
9.918;-0.10;0.28;0.68;-7.10;0.00;11.97;86.13;-326.64;-459.00;0.74;142.23;5.49;22.76 
9.948;-0.10;0.25;0.73;-5.15;-1.46;10.78;84.15;-325.68;-459.00;0.78;142.04;5.56;22.59 
9.978;-0.10;0.22;0.74;-6.61;-2.99;10.09;84.15;-323.77;-459.00;0.78;141.87;5.68;22.41 
10.008;-0.11;0.23;0.69;-6.96;0.49;7.23;83.16;-319.95;-463.00;0.74;141.73;5.72;22.18 
10.038;-0.07;0.24;0.71;-3.83;8.77;1.53;80.19;-319.00;-460.00;0.75;141.70;5.60;22.01 
10.068;-0.09;0.26;0.83;15.51;19.76;-0.90;83.16;-316.13;-459.00;0.87;141.77;5.02;22.23 
10.099;0.00;0.24;0.90;-0.83;6.54;-2.92;87.12;-310.40;-461.00;0.93;141.93;4.77;22.39 
10.129;0.02;0.32;0.83;-4.87;3.41;-4.31;88.11;-307.53;-459.00;0.89;142.16;4.66;22.30 
10.158;-0.04;0.30;0.82;-9.53;2.99;-8.42;88.11;-309.44;-461.00;0.87;142.45;4.55;22.21 
10.189;0.01;0.25;0.79;-11.41;6.89;-10.99;88.11;-305.62;-459.00;0.83;142.79;4.38;22.04 
10.219;0.04;0.19;0.77;-10.37;13.22;-23.58;92.07;-304.67;-459.00;0.79;143.37;3.98;21.84 
