Time(s) acc_x(g) acc_y(g) acc_z(g) gyr_x(°/s) gyr_y(°/s) gyr_z(°/s) mag_x(G) mag_y(G) mag_z(G) SVM(g) yaw(°) pitch(°) roll(°)
0.000;1.02;-0.24;0.10;-1.53;-14.05;-14.26;6.95;-624.69;-301.00;1.05;90.54;75.79;8.29 
0.030;0.96;-0.24;0.04;-1.39;-15.51;-10.99;8.94;-627.54;-300.00;0.99;91.08;76.15;8.45 
0.060;0.99;-0.26;0.00;3.27;-7.23;-6.75;9.93;-631.34;-301.00;1.02;91.46;76.48;8.53 
0.090;0.98;-0.22;0.04;6.82;3.69;-3.83;13.91;-633.23;-295.00;1.01;91.71;76.42;8.78 
0.120;1.00;-0.21;0.08;9.95;10.92;-9.39;12.91;-631.34;-298.00;1.02;91.62;76.39;8.80 
0.151;1.03;-0.26;0.20;8.21;2.71;-9.46;16.89;-628.49;-300.00;1.08;91.48;76.27;8.86 
0.181;0.98;-0.22;0.17;0.77;-15.30;-6.12;18.87;-632.29;-300.00;1.02;91.58;76.28;8.95 
0.211;0.98;-0.18;0.01;0.83;-20.52;-7.51;21.85;-632.29;-297.00;1.00;91.96;76.78;8.91 
0.241;1.03;-0.08;-0.08;5.29;-7.58;-8.83;20.86;-639.88;-292.00;1.04;92.62;77.14;9.11 
0.272;1.02;-0.12;0.02;8.90;2.02;-0.70;24.83;-640.83;-295.00;1.03;92.91;77.26;9.25 
0.301;1.00;-0.20;0.14;4.38;2.37;3.48;21.85;-638.93;-293.00;1.03;92.72;77.45;9.08 
0.331;0.96;-0.26;0.14;0.70;-2.16;1.04;25.83;-639.88;-296.00;1.00;92.42;77.62;8.84 
0.362;0.98;-0.26;0.09;-2.78;-8.77;3.62;24.83;-642.73;-294.00;1.02;92.24;77.98;8.54 
0.392;0.95;-0.21;0.06;-4.38;-11.76;-0.28;23.84;-640.83;-291.00;0.97;92.25;78.44;8.27 
0.422;1.02;-0.22;0.00;-4.59;-4.73;-5.63;24.83;-641.78;-287.00;1.04;92.59;78.56;8.38 
0.452;1.05;-0.18;0.00;-0.63;2.78;-11.27;23.84;-644.63;-288.00;1.07;92.99;78.29;8.77 
0.482;1.06;-0.14;0.02;3.13;0.35;-7.86;27.81;-643.68;-289.00;1.07;93.31;78.00;9.14 
0.512;1.02;-0.15;0.06;2.57;-0.49;-4.80;29.80;-644.63;-289.00;1.03;93.40;78.01;9.22 
0.542;1.02;-0.12;0.06;-0.14;-0.42;-2.43;32.78;-648.42;-293.00;1.03;93.43;78.08;9.21 
0.573;1.00;-0.14;0.06;-2.16;-2.37;2.50;29.80;-643.68;-291.00;1.01;93.36;78.26;9.07 
0.602;1.00;-0.16;0.03;-2.30;-3.13;2.99;25.83;-645.58;-290.00;1.01;93.24;78.58;8.82 
0.632;1.04;-0.18;0.03;-1.04;-0.07;2.43;30.79;-644.63;-293.00;1.06;93.26;78.64;8.80 
0.663;1.04;-0.18;0.00;0.21;1.32;2.23;28.81;-641.78;-289.00;1.06;93.08;78.85;8.60 
0.693;1.02;-0.17;0.02;0.90;-0.07;2.78;25.83;-645.58;-289.00;1.03;92.92;79.01;8.44 
0.723;1.02;-0.15;0.02;1.04;-1.74;2.71;28.81;-642.73;-291.00;1.03;92.77;79.24;8.23 
0.753;1.02;-0.22;0.04;0.28;-1.60;2.78;24.83;-643.68;-290.00;1.04;92.61;79.50;8.00 
0.784;1.01;-0.24;0.05;-0.90;-0.07;2.16;23.84;-645.58;-289.00;1.04;92.41;79.77;7.75 
0.814;1.02;-0.20;0.03;-0.97;1.60;1.11;27.81;-646.53;-291.00;1.04;92.19;79.98;7.52 
0.843;1.04;-0.23;0.07;-0.77;3.97;0.42;28.81;-643.68;-288.00;1.07;91.96;80.10;7.33 
0.874;1.02;-0.22;0.03;-0.49;2.99;-1.67;24.83;-646.53;-288.00;1.04;91.76;80.15;7.21 
0.904;0.98;-0.15;0.05;-0.63;0.42;-2.23;26.82;-644.63;-288.00;0.99;91.62;80.23;7.11 
0.934;1.03;-0.18;0.06;-0.35;-1.53;-2.23;20.86;-643.68;-287.00;1.05;91.61;80.31;7.07 
0.964;1.02;-0.19;0.04;-0.35;-2.37;-1.39;26.82;-643.68;-287.00;1.04;91.63;80.43;7.02 
0.994;1.02;-0.17;0.02;-0.70;-1.32;-1.39;23.84;-644.63;-289.00;1.03;91.62;80.58;6.93 
1.023;1.02;-0.17;0.02;-0.56;-1.39;-0.28;26.82;-647.48;-290.00;1.03;91.62;80.72;6.85 
1.053;1.02;-0.18;0.02;-0.21;-0.49;-0.56;29.80;-645.58;-288.00;1.04;91.61;80.83;6.79 
1.084;1.00;-0.16;0.02;0.35;0.42;-0.42;25.83;-646.53;-290.00;1.01;91.56;80.97;6.69 
1.114;1.02;-0.19;0.05;0.35;0.77;-0.14;23.84;-645.58;-288.00;1.04;91.45;81.08;6.58 
1.144;1.02;-0.18;0.03;-0.42;-0.77;0.70;25.83;-645.58;-290.00;1.04;91.35;81.21;6.46 
1.175;1.04;-0.19;0.03;-0.28;-0.28;0.77;25.83;-646.53;-289.00;1.06;91.25;81.38;6.32 
1.205;0.99;-0.18;0.04;-0.35;0.28;0.49;25.83;-644.63;-289.00;1.01;91.13;81.53;6.17 
1.235;1.04;-0.18;0.02;-0.14;0.14;0.56;26.82;-644.63;-294.00;1.06;91.03;81.65;6.06 
1.265;1.02;-0.17;0.02;-0.42;0.35;0.28;25.83;-646.53;-286.00;1.03;90.90;81.78;5.92 
1.296;1.05;-0.19;0.04;-0.14;1.11;0.49;26.82;-646.53;-288.00;1.07;90.95;81.73;6.00 
1.326;1.02;-0.18;0.03;-0.28;0.49;0.00;29.80;-647.48;-287.00;1.04;90.81;81.86;5.86 
1.356;1.01;-0.17;0.05;-0.70;0.70;-0.07;24.83;-643.68;-289.00;1.03;90.71;81.96;5.76 
1.387;1.01;-0.17;0.06;-0.63;0.21;-0.28;26.82;-648.42;-285.00;1.03;90.61;82.06;5.65 
1.416;1.04;-0.19;0.03;-0.42;-0.14;0.07;22.85;-646.53;-285.00;1.06;90.67;82.02;5.73 
1.446;1.02;-0.18;0.00;-0.21;0.63;0.14;29.80;-643.68;-289.00;1.04;90.59;82.13;5.63 
1.475;1.02;-0.17;0.03;-0.35;1.46;0.28;27.81;-645.58;-288.00;1.03;90.53;82.18;5.58 
1.505;1.02;-0.16;0.02;-0.28;1.88;0.70;27.81;-645.58;-291.00;1.03;90.40;82.28;5.46 
1.535;1.02;-0.19;0.07;0.07;2.23;0.70;25.83;-646.53;-288.00;1.04;90.24;82.37;5.34 
1.565;1.02;-0.17;0.00;0.00;2.02;0.49;23.84;-644.63;-287.00;1.03;90.07;82.43;5.23 
1.596;1.02;-0.18;0.06;-0.21;1.46;0.77;28.81;-641.78;-291.00;1.04;89.90;82.51;5.11 
1.625;1.01;-0.18;0.02;-0.70;1.11;0.90;21.85;-642.73;-289.00;1.03;89.79;82.59;5.00 
1.655;1.01;-0.19;0.02;-0.28;1.04;0.90;23.84;-644.63;-291.00;1.03;89.66;82.68;4.89 
1.686;1.02;-0.18;0.04;-0.21;0.83;1.11;24.83;-643.68;-291.00;1.04;89.52;82.78;4.77 
1.716;1.02;-0.18;0.04;-0.63;0.77;1.39;21.85;-644.63;-289.00;1.04;89.39;82.89;4.64 
1.746;1.01;-0.18;0.02;-0.70;0.70;0.97;22.85;-644.63;-292.00;1.03;89.26;83.03;4.49 
1.775;1.02;-0.18;0.05;0.21;2.02;1.25;22.85;-641.78;-289.00;1.04;89.11;83.13;4.35 
1.805;1.01;-0.19;0.02;0.07;1.74;1.18;21.85;-642.73;-292.00;1.03;88.94;83.20;4.23 
1.835;1.02;-0.20;0.06;-0.07;1.11;0.77;24.83;-642.73;-289.00;1.04;88.79;83.26;4.13 
1.865;1.00;-0.20;0.02;-0.14;0.35;0.70;25.83;-642.73;-290.00;1.02;88.81;83.22;4.20 
1.895;1.02;-0.21;0.06;-0.14;0.90;-0.14;21.85;-640.83;-286.00;1.04;88.71;83.30;4.11 
1.925;0.97;-0.22;0.00;-0.21;0.21;0.21;23.84;-643.68;-291.00;0.99;88.59;83.37;4.01 
1.955;1.00;-0.19;0.02;0.00;0.35;-0.42;19.87;-641.78;-290.00;1.02;88.52;83.47;3.92 
1.986;1.01;-0.21;0.04;0.21;1.53;-0.63;23.84;-642.73;-289.00;1.03;88.43;83.52;3.85 
2.015;1.02;-0.20;0.06;-0.21;0.70;-0.14;25.83;-640.83;-288.00;1.04;88.31;83.52;3.81 
2.045;1.02;-0.19;0.06;-0.70;-0.28;0.00;24.83;-643.68;-287.00;1.04;88.25;83.58;3.75 
2.075;0.99;-0.21;0.01;-0.42;-0.42;-0.14;22.85;-642.73;-287.00;1.01;88.23;83.68;3.68 
2.105;1.02;-0.18;0.04;-0.07;0.21;0.00;24.83;-645.58;-291.00;1.04;88.17;83.77;3.61 
2.135;1.02;-0.18;0.06;-0.14;-0.49;0.42;22.85;-642.73;-293.00;1.04;88.11;83.86;3.53 
2.164;1.02;-0.19;0.02;-0.14;0.83;0.42;23.84;-643.68;-293.00;1.04;88.06;83.97;3.43 
2.195;1.01;-0.18;0.04;0.07;0.63;0.21;24.83;-643.68;-292.00;1.03;87.95;84.05;3.34 
2.225;1.02;-0.20;0.02;-0.07;0.77;0.14;20.86;-644.63;-291.00;1.04;87.84;84.10;3.26 
2.255;1.01;-0.19;0.07;-0.63;0.83;0.14;21.85;-643.68;-290.00;1.03;87.72;84.17;3.16 
2.285;1.02;-0.17;0.07;-0.49;0.28;-0.14;21.85;-642.73;-289.00;1.04;87.58;84.22;3.07 
2.314;0.98;-0.22;0.02;-0.42;-1.11;-0.14;23.84;-641.78;-289.00;1.00;87.59;84.29;3.03 
2.344;1.00;-0.22;0.04;-0.14;0.00;-0.42;22.85;-644.63;-291.00;1.02;87.57;84.34;3.00 
2.374;1.02;-0.19;0.03;-0.14;-0.77;-0.07;23.84;-645.58;-288.00;1.04;87.59;84.41;2.99 
2.403;1.02;-0.22;0.00;-0.07;0.14;-0.35;25.83;-645.58;-288.00;1.04;87.56;84.48;2.94 
2.433;1.02;-0.17;0.02;0.14;1.04;-0.28;23.84;-643.68;-290.00;1.03;87.50;84.54;2.88 
2.463;1.02;-0.18;0.04;0.07;0.56;-0.77;24.83;-641.78;-292.00;1.04;87.46;84.60;2.82 
2.494;1.00;-0.17;0.05;-0.42;-0.35;-0.56;22.85;-643.68;-290.00;1.02;87.41;84.64;2.79 
2.524;1.02;-0.18;0.05;-0.70;-1.04;-0.35;22.85;-643.68;-291.00;1.04;87.40;84.72;2.74 
2.554;1.02;-0.17;0.04;-0.49;-0.07;0.21;24.83;-643.68;-287.00;1.03;87.42;84.80;2.71 
2.583;1.02;-0.16;0.05;-0.21;0.70;0.14;22.85;-643.68;-289.00;1.03;87.39;84.87;2.66 
2.613;1.02;-0.18;0.03;-0.28;-0.56;0.42;24.83;-645.58;-290.00;1.04;87.38;84.95;2.61 
2.643;1.02;-0.18;0.04;-0.14;-0.49;0.56;21.85;-646.53;-288.00;1.04;87.31;85.04;2.51 
2.673;1.01;-0.19;0.02;-0.42;-0.14;0.14;23.84;-643.68;-283.00;1.03;87.25;85.12;2.44 
2.704;1.02;-0.18;0.06;-0.07;0.14;0.49;25.83;-647.48;-293.00;1.04;87.19;85.17;2.38 
2.734;1.04;-0.20;0.05;-0.35;-0.42;0.00;24.83;-647.48;-288.00;1.06;87.11;85.23;2.30 
2.764;1.02;-0.22;0.01;-0.56;0.14;-0.21;23.84;-643.68;-288.00;1.04;87.07;85.30;2.25 
2.795;1.01;-0.18;0.03;-0.63;0.42;-0.21;24.83;-644.63;-287.00;1.03;87.06;85.37;2.20 
2.824;1.02;-0.20;0.00;0.14;8.49;0.21;26.82;-644.63;-289.00;1.04;86.96;85.23;2.29 
2.854;1.00;-0.16;0.05;-0.21;7.37;5.43;22.85;-641.78;-288.00;1.01;86.55;85.12;2.18 
2.884;0.99;-0.20;0.03;-0.56;8.00;8.90;20.86;-640.83;-291.00;1.01;85.99;85.04;1.93 
2.913;1.02;-0.15;0.02;-1.39;9.46;12.45;23.84;-638.93;-291.00;1.03;85.26;84.95;1.58 
2.943;1.05;-0.19;0.00;-1.88;11.13;18.43;17.88;-637.98;-294.00;1.07;84.53;84.83;1.20 
2.973;1.06;-0.24;0.05;0.14;23.93;15.51;12.91;-637.98;-297.00;1.09;83.39;84.45;0.77 
3.004;1.01;-0.26;0.19;-6.05;9.74;13.15;9.93;-631.34;-298.00;1.06;82.00;83.90;0.26 
3.034;0.98;-0.27;0.14;-6.96;-4.03;5.01;9.93;-632.29;-301.00;1.03;81.42;83.79;-0.16 
3.064;1.00;-0.18;0.11;0.14;-3.06;-5.15;7.95;-629.44;-296.00;1.02;81.49;83.92;-0.25 
3.095;0.99;-0.16;0.09;6.40;-5.43;-0.07;7.95;-631.34;-295.00;1.01;81.65;84.05;-0.16 
3.125;1.04;-0.15;0.07;10.99;-8.35;-0.35;9.93;-632.29;-293.00;1.05;81.85;84.27;-0.13 
3.155;1.05;-0.22;0.13;15.58;-17.11;-2.64;13.91;-635.13;-291.00;1.08;82.34;84.66;-0.01 
3.185;0.95;-0.20;0.04;14.54;-16.63;-2.02;14.90;-637.98;-290.00;0.97;83.08;85.26;0.03 
3.216;1.07;-0.16;0.05;13.01;-3.13;-4.94;17.88;-637.98;-293.00;1.08;83.61;85.62;0.17 
3.246;1.00;-0.15;0.15;15.37;-7.79;3.55;22.85;-637.98;-291.00;1.02;83.75;85.76;0.24 
3.275;1.01;-0.15;0.06;17.67;-5.77;5.22;23.84;-641.78;-288.00;1.02;83.83;85.97;0.15 
3.305;1.05;-0.20;0.09;17.46;-3.97;8.56;25.83;-641.78;-293.00;1.07;83.72;86.09;0.05 
3.335;0.95;-0.16;0.08;12.38;-13.29;10.85;22.85;-642.73;-290.00;0.97;83.61;86.30;-0.28 
3.365;1.00;-0.12;0.06;15.03;-13.63;18.78;28.81;-644.63;-292.00;1.01;83.92;86.70;-0.59 
3.395;0.96;-0.16;0.06;20.38;10.02;31.79;28.81;-643.68;-287.00;0.98;83.28;86.62;-1.21 
3.425;0.87;-0.25;0.00;14.89;-3.20;39.44;20.86;-642.73;-293.00;0.91;81.83;86.03;-2.26 
3.455;1.01;-0.42;-0.06;19.97;7.79;37.22;17.88;-640.83;-295.00;1.10;80.66;85.31;-3.46 
3.485;1.08;-0.38;-0.14;26.78;8.28;40.70;14.90;-637.03;-297.00;1.15;78.98;84.30;-4.67 
3.516;1.02;-0.38;-0.03;37.63;34.16;33.88;13.91;-632.29;-298.00;1.09;76.57;83.13;-5.82 
3.546;0.94;-0.42;0.07;37.36;49.95;23.65;15.89;-625.64;-304.00;1.03;72.43;81.75;-6.61 
3.576;0.91;-0.50;0.26;41.18;50.30;18.02;20.86;-614.25;-318.00;1.07;67.33;80.35;-7.12 
3.607;0.90;-0.34;0.28;33.25;30.75;13.98;25.83;-608.55;-324.00;1.00;62.29;79.07;-7.39 
3.637;0.99;-0.33;0.18;32.07;20.10;14.96;31.79;-600.96;-330.00;1.06;58.78;78.32;-7.59 
3.667;1.00;-0.33;0.13;28.10;11.69;9.67;36.75;-597.16;-332.00;1.06;55.86;77.80;-7.76 
3.697;0.92;-0.36;0.04;28.38;17.46;7.37;39.73;-596.21;-338.00;0.99;53.36;77.47;-7.85 
3.728;0.97;-0.42;0.06;31.65;36.66;-3.06;45.69;-591.46;-342.00;1.06;49.70;76.92;-7.75 
3.758;0.85;-0.46;0.16;34.30;48.35;-9.46;50.66;-584.82;-350.00;0.98;44.79;76.02;-7.44 
3.788;0.86;-0.46;0.18;31.93;44.80;-12.38;58.61;-576.27;-356.00;0.99;39.48;74.96;-6.97 
3.819;0.93;-0.36;0.24;28.24;49.81;-12.31;72.52;-562.98;-363.00;1.03;34.76;73.98;-6.41 
3.849;0.84;-0.38;0.37;22.33;54.68;-14.54;76.49;-556.34;-373.00;0.99;30.12;72.63;-5.69 
3.879;0.90;-0.26;0.27;14.47;55.23;-23.10;85.43;-547.79;-377.00;0.97;26.82;71.34;-4.96 
3.909;0.85;-0.17;0.36;14.75;56.77;-10.64;90.40;-531.65;-386.00;0.94;23.80;69.80;-4.21 
3.939;0.82;-0.20;0.38;15.51;57.39;-12.24;95.36;-525.01;-392.00;0.93;20.99;68.24;-3.52 
3.969;0.93;-0.09;0.45;14.40;57.60;-6.26;101.32;-510.77;-396.00;1.04;18.53;66.64;-2.92 
3.999;0.78;-0.11;0.52;19.83;51.13;8.77;102.32;-504.12;-406.00;0.94;15.92;65.06;-2.58 
4.030;0.67;-0.16;0.58;17.74;48.00;2.23;113.24;-488.93;-406.00;0.90;13.15;63.36;-2.37 
4.060;0.83;-0.10;0.58;13.84;37.36;-0.77;112.25;-479.44;-413.00;1.02;11.26;62.10;-1.99 
4.089;0.76;-0.05;0.59;12.52;25.60;3.55;117.22;-472.79;-415.00;0.96;9.64;61.07;-1.61 
4.118;0.76;-0.18;0.54;10.78;13.57;-2.64;118.21;-468.04;-420.00;0.95;8.36;60.50;-1.31 
4.148;0.79;-0.13;0.52;21.84;21.50;-4.24;123.18;-465.20;-419.00;0.95;7.13;60.07;-0.83 
4.178;0.70;-0.16;0.61;28.17;16.90;-3.48;134.10;-465.20;-420.00;0.94;5.40;59.54;-0.22 
4.208;0.78;-0.22;0.64;33.81;14.61;-1.88;137.08;-460.45;-424.00;1.03;3.47;59.07;0.44 
4.238;0.75;-0.24;0.61;32.77;11.20;1.81;145.03;-458.55;-423.00;1.00;1.11;58.78;0.97 
4.268;0.70;-0.15;0.58;34.92;17.81;2.57;153.97;-456.65;-424.00;0.92;-1.15;58.39;1.55 
4.298;0.75;-0.14;0.62;38.75;13.29;3.34;162.91;-450.00;-426.00;0.98;-3.37;57.96;2.16 
4.329;0.68;-0.12;0.58;41.53;5.43;18.78;173.84;-450.00;-426.00;0.90;-6.02;57.70;2.69 
4.359;0.74;-0.14;0.59;44.94;11.34;15.86;181.79;-450.00;-426.00;0.96;-9.08;57.51;3.04 
4.389;0.71;-0.07;0.56;47.44;17.39;23.51;187.75;-448.11;-425.00;0.91;-12.15;57.23;3.34 
4.419;0.73;-0.03;0.60;52.17;20.66;31.58;205.63;-444.31;-427.00;0.95;-15.31;56.87;3.62 
4.449;0.69;-0.17;0.63;56.83;16.83;36.45;214.57;-440.51;-428.00;0.95;-18.86;56.47;3.76 
4.479;0.71;-0.08;0.65;61.43;25.32;42.64;225.49;-437.66;-427.00;0.97;-22.28;56.04;3.93 
4.509;0.67;-0.06;0.66;73.25;27.06;46.82;236.42;-435.76;-423.00;0.94;-25.87;55.44;4.03 
4.540;0.62;-0.25;0.66;61.43;24.28;46.82;256.29;-433.87;-425.00;0.94;-29.76;54.89;3.92 
4.570;0.69;-0.18;0.63;58.64;35.41;51.13;262.25;-432.92;-423.00;0.95;-32.97;54.27;3.74 
4.600;0.62;0.02;0.62;58.71;53.01;48.49;278.14;-424.37;-423.00;0.88;-35.56;53.27;3.69 
4.631;0.67;0.00;0.62;44.87;57.39;51.55;288.07;-419.62;-422.00;0.91;-37.88;51.89;3.72 
4.660;0.60;-0.03;0.72;29.01;50.64;45.43;294.03;-407.28;-420.00;0.94;-39.66;50.51;3.41 
4.690;0.54;-0.04;0.74;28.10;53.01;36.45;301.98;-402.54;-420.00;0.92;-40.90;49.20;3.16 
4.720;0.54;-0.06;0.74;27.48;39.03;27.06;306.95;-393.04;-417.00;0.92;-41.95;48.02;3.15 
4.749;0.46;0.01;0.76;25.39;34.23;13.77;310.92;-389.24;-418.00;0.89;-42.71;46.99;3.44 
4.779;0.48;0.10;0.77;22.05;33.18;8.56;317.88;-384.50;-418.00;0.91;-43.18;46.15;3.95 
4.809;0.51;0.06;0.77;14.40;33.74;7.03;319.86;-378.80;-416.00;0.93;-43.47;45.26;4.43 
4.840;0.46;0.13;0.79;12.80;31.86;2.09;326.82;-370.26;-418.00;0.92;-43.62;44.32;4.83 
4.870;0.49;0.08;0.77;5.91;27.55;4.73;327.81;-366.46;-416.00;0.92;-43.79;43.56;5.22 
4.900;0.52;0.06;0.77;-1.11;23.30;7.44;327.81;-363.61;-417.00;0.93;-43.95;42.94;5.38 
4.930;0.47;0.01;0.82;-8.97;26.57;10.50;324.83;-359.81;-421.00;0.95;-44.18;42.41;5.30 
4.960;0.53;0.01;0.77;-11.34;29.50;13.08;325.82;-356.97;-420.00;0.93;-44.36;41.82;5.07 
4.990;0.50;-0.03;0.71;-14.82;33.74;17.18;319.86;-352.22;-424.00;0.87;-44.65;41.25;4.69 
5.020;0.46;-0.09;0.75;-12.94;48.07;14.61;317.88;-347.47;-423.00;0.88;-44.80;40.30;4.19 
5.051;0.45;-0.02;0.81;-0.83;55.23;13.01;314.90;-331.33;-426.00;0.93;-44.85;38.94;3.91 
5.080;0.31;0.11;0.89;1.04;57.04;19.90;316.88;-324.69;-423.00;0.95;-44.98;37.37;3.95 
5.109;0.25;0.10;0.80;-6.47;60.87;22.54;315.89;-314.24;-423.00;0.84;-45.18;35.80;3.83 
5.139;0.39;-0.04;0.83;-11.41;65.88;26.50;312.91;-304.75;-423.00;0.92;-45.48;34.06;3.34 
5.169;0.41;0.06;0.92;18.09;60.24;37.08;311.92;-290.51;-422.00;1.01;-46.18;32.51;3.13 
5.199;0.10;0.02;0.91;39.51;64.77;39.79;322.84;-284.81;-418.00;0.92;-47.39;31.03;3.43 
5.229;0.18;0.06;1.02;43.83;66.57;36.80;333.77;-275.32;-414.00;1.04;-48.52;29.27;4.24 
5.259;0.14;0.00;1.05;42.37;75.90;36.87;342.71;-265.83;-407.00;1.06;-49.57;27.21;5.23 
5.289;0.06;-0.14;1.14;39.10;79.23;28.52;354.63;-258.23;-404.00;1.15;-50.50;25.15;6.00 
5.319;0.10;-0.14;1.21;24.42;67.34;39.72;365.56;-240.19;-394.00;1.22;-51.57;23.14;6.58 
5.350;0.04;-0.09;1.05;21.36;53.70;39.79;370.52;-235.45;-391.00;1.05;-52.90;21.58;6.86 
5.380;-0.11;0.01;1.02;17.81;54.05;33.18;375.49;-231.65;-386.00;1.03;-54.24;20.19;7.15 
5.410;-0.19;0.18;1.02;7.58;46.05;32.35;384.43;-222.15;-379.00;1.05;-55.35;18.81;7.44 
5.441;-0.26;0.14;0.94;8.42;44.03;34.37;389.40;-219.31;-372.00;0.99;-56.49;17.55;7.63 
5.471;-0.11;0.11;1.03;10.37;37.91;36.03;394.36;-216.46;-374.00;1.04;-57.79;16.39;7.89 
5.501;-0.14;0.09;0.98;11.27;38.33;35.90;399.33;-216.46;-368.00;0.99;-59.10;15.55;8.12 
5.531;-0.21;0.12;0.99;11.20;43.97;34.85;407.28;-211.71;-360.00;1.02;-60.37;14.67;8.53 
5.561;-0.17;0.18;0.97;8.14;35.34;32.49;413.24;-207.91;-359.00;1.00;-61.62;13.74;8.94 
5.591;-0.14;0.18;0.95;6.40;28.38;29.84;412.24;-210.76;-355.00;0.98;-62.84;13.00;9.24 
5.621;-0.18;0.19;0.98;5.36;32.00;27.69;415.22;-206.01;-353.00;1.01;-64.02;12.27;9.48 
5.652;-0.14;0.26;0.91;5.84;25.95;31.23;420.19;-206.96;-350.00;0.96;-65.19;11.63;9.73 
5.682;-0.20;0.20;0.88;2.30;22.33;30.19;425.16;-206.01;-346.00;0.92;-66.51;11.14;9.96 
5.712;-0.12;0.23;0.87;4.73;27.27;20.73;427.15;-205.07;-344.00;0.91;-67.55;10.58;10.22 
5.742;-0.14;0.22;0.85;4.94;26.64;18.71;428.14;-204.12;-342.00;0.89;-68.49;10.00;10.59 
5.772;-0.21;0.26;0.81;6.26;25.81;14.75;429.13;-203.17;-333.00;0.88;-69.34;9.45;11.00 
5.802;-0.23;0.26;0.82;5.01;17.39;9.60;433.11;-200.32;-331.00;0.89;-70.05;9.02;11.46 
5.832;-0.14;0.26;0.80;3.20;10.71;6.26;435.09;-202.22;-335.00;0.85;-70.59;8.79;11.85 
5.863;-0.14;0.26;0.79;2.71;1.67;2.50;432.11;-203.17;-331.00;0.84;-71.01;8.74;12.16 
5.893;-0.15;0.26;0.81;0.70;-14.33;-0.77;434.10;-203.17;-332.00;0.86;-71.31;9.06;12.47 
5.923;-0.16;0.24;0.74;1.95;-22.40;-1.88;436.09;-205.07;-334.00;0.79;-71.43;9.60;12.73 
5.954;-0.15;0.17;0.74;-2.43;-34.71;3.41;436.09;-212.66;-337.00;0.77;-71.56;10.60;12.97 
5.984;-0.22;0.11;0.70;0.07;-44.80;4.03;434.10;-217.41;-339.00;0.74;-71.68;11.79;13.10 
6.014;-0.23;0.14;0.61;-2.92;-45.84;12.87;432.11;-231.65;-340.00;0.67;-72.08;13.10;12.97 
6.044;-0.30;0.13;0.56;-6.82;-37.43;18.30;432.11;-242.09;-346.00;0.65;-72.59;14.25;12.89 
6.075;-0.32;0.02;0.65;-14.61;-24.07;17.67;429.13;-246.84;-351.00;0.72;-73.34;15.13;12.33 
6.105;-0.32;-0.03;0.75;-26.85;-11.97;6.54;428.14;-249.69;-351.00;0.82;-73.98;15.95;11.79 
6.135;-0.29;-0.13;0.72;-21.84;18.43;-6.26;421.19;-251.59;-358.00;0.79;-74.32;15.76;11.18 
6.166;-0.17;-0.13;0.88;-16.28;35.34;-11.27;419.20;-244.94;-355.00;0.91;-74.48;14.74;10.63 
6.196;-0.17;-0.03;0.98;-16.97;25.18;-12.31;413.24;-239.24;-355.00;1.00;-74.53;13.68;10.22 
6.226;-0.22;-0.03;0.98;-23.72;1.95;-8.07;414.23;-239.24;-357.00;1.00;-74.60;13.13;9.74 
6.256;-0.20;-0.03;0.87;-24.56;-14.68;-4.52;406.28;-234.50;-361.00;0.89;-74.73;13.35;9.02 
6.286;-0.14;0.00;0.80;-29.70;-13.50;5.77;399.33;-235.45;-367.00;0.81;-74.92;13.75;8.37 
6.316;-0.10;0.01;0.90;-8.77;-9.60;-3.76;394.36;-243.04;-371.00;0.91;-75.24;14.37;7.95 
6.346;-0.16;0.03;0.92;5.70;-11.90;0.83;395.36;-243.04;-370.00;0.93;-75.48;14.69;8.06 
6.377;-0.22;0.00;0.94;5.43;-21.77;6.12;395.36;-245.89;-374.00;0.97;-75.81;15.25;8.36 
6.406;-0.16;0.12;0.87;-1.60;-22.47;14.82;394.36;-249.69;-370.00;0.89;-76.33;15.92;8.46 
6.436;-0.22;0.07;0.77;-5.50;-7.72;15.93;396.35;-258.23;-373.00;0.80;-76.96;16.40;8.46 
6.466;-0.19;-0.02;0.82;-5.29;18.30;7.58;398.34;-258.23;-375.00;0.84;-77.58;16.56;8.37 
6.496;-0.13;-0.02;0.93;-5.50;21.91;11.97;397.34;-257.28;-376.00;0.94;-78.22;15.80;8.18 
6.526;-0.20;0.06;0.86;-3.76;3.34;13.57;397.34;-253.48;-376.00;0.88;-78.92;15.76;8.09 
6.556;-0.08;0.14;0.86;3.69;-0.42;8.97;396.35;-258.23;-375.00;0.87;-79.51;15.71;8.11 
6.587;-0.18;0.19;0.90;12.31;-3.83;10.99;400.32;-259.18;-372.00;0.94;-80.06;15.75;8.49 
