Time(s) acc_x(g) acc_y(g) acc_z(g) gyr_x(°/s) gyr_y(°/s) gyr_z(°/s) mag_x(G) mag_y(G) mag_z(G) SVM(g) yaw(°) pitch(°) roll(°)
0.000;0.16;0.06;0.88;0.77;-1.74;3.90;374.11;-192.72;-394.00;0.90;-103.28;14.81;6.95 
0.030;0.17;0.08;0.86;1.67;-2.85;6.40;375.11;-197.49;-392.00;0.88;-103.52;14.88;6.94 
0.060;0.18;0.09;0.92;1.11;-1.11;7.30;376.10;-198.45;-395.00;0.94;-103.79;14.95;6.92 
0.091;0.11;0.18;0.86;2.30;0.83;4.87;373.12;-195.59;-393.00;0.89;-104.10;14.95;6.96 
0.121;0.14;0.14;0.90;0.21;0.21;-0.70;377.09;-198.45;-389.00;0.92;-104.26;14.90;7.02 
0.151;0.11;0.12;0.88;-0.07;-1.18;-2.99;377.09;-198.45;-393.00;0.89;-104.27;14.87;7.09 
0.181;0.14;0.14;0.91;-2.09;-1.67;-5.63;379.08;-198.45;-393.00;0.93;-104.23;14.84;7.14 
0.211;0.17;0.19;1.01;-10.78;3.06;-14.96;375.11;-198.45;-395.00;1.04;-104.02;14.81;7.07 
0.241;0.22;0.07;0.87;-9.25;10.78;-24.14;373.12;-195.59;-394.00;0.90;-103.52;14.53;6.97 
0.271;0.14;-0.05;0.82;-5.29;6.12;-20.73;370.15;-188.91;-394.00;0.83;-102.97;14.20;6.94 
0.301;0.08;-0.07;0.81;-2.30;-10.16;-13.36;372.13;-187.95;-394.00;0.82;-102.56;14.15;6.86 
0.331;0.22;0.00;0.94;2.85;-4.73;-11.48;369.15;-187.95;-398.00;0.97;-102.25;14.32;6.84 
0.360;0.21;-0.02;0.85;6.96;0.77;-6.68;373.12;-187.00;-395.00;0.88;-102.07;14.38;6.98 
0.390;0.15;-0.02;0.78;5.36;-5.08;-3.55;373.12;-185.09;-395.00;0.79;-102.01;14.38;7.14 
0.420;0.18;0.00;0.89;8.42;-14.33;5.57;377.09;-188.91;-392.00;0.91;-102.10;14.71;7.24 
0.450;0.22;0.03;0.96;9.32;-10.16;12.17;376.10;-189.86;-391.00;0.99;-102.38;15.20;7.41 
0.480;0.15;0.14;0.94;8.90;1.25;12.94;381.06;-193.68;-393.00;0.96;-102.85;15.39;7.55 
0.510;0.14;0.11;0.85;8.63;1.88;8.35;383.05;-196.54;-392.00;0.87;-103.31;15.30;7.72 
0.540;0.13;0.10;0.85;10.64;-4.87;8.83;383.05;-196.54;-389.00;0.87;-103.66;15.31;7.96 
0.570;0.17;0.12;0.92;8.35;-5.01;12.17;384.04;-199.40;-385.00;0.94;-104.02;15.46;8.19 
0.601;0.20;0.10;0.88;10.16;-1.60;14.40;387.02;-200.36;-388.00;0.91;-104.50;15.60;8.37 
0.631;0.14;0.10;0.91;14.12;1.04;22.54;390.98;-205.13;-384.00;0.93;-105.19;15.67;8.56 
0.661;0.19;0.16;0.88;13.15;10.71;24.42;392.97;-205.13;-384.00;0.91;-105.96;15.55;8.81 
0.692;0.23;0.26;0.85;9.53;2.92;29.43;392.97;-206.08;-383.00;0.92;-106.95;15.50;9.01 
0.722;0.26;0.37;0.80;5.15;-0.70;27.83;395.95;-207.99;-381.00;0.92;-107.90;15.66;9.15 
0.752;0.21;0.42;0.88;7.93;-6.40;10.71;393.96;-213.71;-383.00;1.00;-108.54;15.91;9.39 
0.782;0.14;0.26;0.88;5.63;2.71;4.94;394.95;-214.67;-380.00;0.93;-108.80;15.94;9.74 
0.813;0.19;0.24;0.74;-5.57;4.66;0.56;395.95;-214.67;-381.00;0.80;-108.97;15.74;9.89 
0.843;0.21;0.18;0.78;-11.13;-16.42;-7.79;395.95;-213.71;-378.00;0.83;-108.92;15.90;9.76 
0.873;0.26;0.18;0.93;-12.87;-13.01;-9.67;394.95;-215.62;-380.00;0.98;-108.57;16.34;9.56 
0.904;0.25;0.18;1.05;-5.43;-6.61;-15.37;390.98;-220.39;-382.00;1.09;-108.18;16.54;9.35 
0.934;0.27;0.13;1.09;1.32;7.65;-15.51;389.99;-216.58;-385.00;1.13;-107.68;16.57;9.52 
0.963;0.15;0.18;0.86;-5.77;36.66;-8.83;393.96;-213.71;-381.00;0.89;-107.59;15.85;9.55 
0.992;0.11;0.09;0.69;-6.96;21.01;-13.77;389.99;-204.17;-387.00;0.70;-107.53;14.80;9.52 
1.022;0.11;0.09;0.73;-3.55;-8.49;-11.34;389.99;-201.31;-382.00;0.74;-107.27;14.43;9.44 
1.052;0.23;0.19;0.94;-2.57;-9.53;-13.15;389.99;-201.31;-383.00;0.99;-106.91;14.67;9.48 
1.082;0.27;0.21;1.02;-3.62;13.77;-18.23;392.97;-198.45;-388.00;1.08;-106.52;14.64;9.54 
1.113;0.19;0.18;0.86;-4.17;24.97;-21.08;389.00;-196.54;-385.00;0.90;-106.14;13.92;9.61 
1.143;0.14;0.08;0.77;-4.03;12.73;-19.20;388.01;-186.05;-389.00;0.79;-105.71;13.20;9.64 
1.173;0.20;0.07;0.84;-3.48;6.75;-13.50;388.01;-183.18;-385.00;0.87;-105.36;12.87;9.60 
1.204;0.25;0.15;0.88;-3.97;10.37;-10.71;384.04;-182.23;-389.00;0.93;-105.12;12.63;9.56 
1.234;0.19;0.15;0.88;-4.59;14.12;-12.73;387.02;-177.46;-383.00;0.91;-104.93;12.24;9.55 
1.264;0.22;0.09;0.86;-3.76;14.26;-11.69;385.03;-173.64;-385.00;0.89;-104.70;11.81;9.57 
1.294;0.18;0.09;0.89;-4.59;11.83;-7.17;382.05;-167.92;-388.00;0.91;-104.56;11.44;9.47 
1.325;0.19;0.23;0.90;-5.08;13.63;-7.17;385.03;-166.96;-388.00;0.95;-104.55;11.11;9.44 
1.355;0.21;0.23;0.94;-5.77;16.97;-18.71;382.05;-159.33;-391.00;0.99;-104.28;10.66;9.46 
1.385;0.17;0.21;0.95;-6.89;25.88;-30.05;383.05;-156.47;-388.00;0.99;-103.79;10.00;9.46 
1.416;0.14;0.17;0.87;-6.68;32.21;-33.46;374.11;-146.93;-385.00;0.90;-103.00;8.99;9.47 
1.446;0.10;0.36;0.82;-15.03;32.70;-40.97;374.11;-136.43;-387.00;0.90;-102.26;7.85;9.45 
1.475;0.06;0.37;0.75;-26.09;21.43;-66.02;369.15;-124.03;-390.00;0.84;-100.94;6.76;9.37 
1.505;0.04;0.46;0.78;-30.47;10.09;-91.76;364.19;-111.63;-392.00;0.91;-98.92;5.98;9.08 
1.535;0.14;0.42;0.81;-32.28;8.00;-122.09;353.28;-101.13;-393.00;0.92;-95.78;5.27;8.84 
1.565;0.23;0.25;0.82;-38.40;11.76;-143.10;342.36;-88.73;-394.00;0.89;-92.00;4.58;8.37 
1.595;0.26;0.19;0.85;-40.63;4.94;-148.45;326.48;-74.42;-394.00;0.91;-87.82;3.96;7.65 
1.626;0.21;0.14;0.86;-44.17;1.25;-156.80;301.67;-57.24;-396.00;0.90;-83.33;3.57;6.78 
1.655;0.26;0.22;0.74;-51.55;9.32;-166.19;281.83;-41.98;-399.00;0.81;-78.53;3.14;5.75 
1.685;0.26;0.10;0.51;-52.80;-1.18;-171.76;259.00;-32.44;-396.00;0.58;-73.85;2.87;4.71 
1.715;0.38;-0.11;0.58;-52.17;-28.45;-161.39;235.19;-28.62;-399.00;0.70;-68.81;3.50;3.27 
1.744;0.38;0.13;0.73;-50.02;-39.03;-142.75;201.45;-21.94;-401.00;0.83;-64.50;4.93;2.10 
1.773;0.46;0.23;0.88;-55.17;-13.15;-152.35;179.61;-20.99;-401.00;1.02;-60.44;6.14;1.27 
1.802;0.38;0.00;0.82;-58.71;9.04;-148.80;154.81;-21.94;-398.00;0.90;-56.16;6.60;0.28 
1.832;0.38;0.00;0.62;-52.66;32.77;-146.92;134.96;-17.17;-396.00;0.73;-51.68;6.21;-0.85 
1.862;0.20;-0.05;0.61;-43.34;15.51;-128.90;110.15;-11.45;-389.00;0.64;-47.52;5.85;-1.78 
1.892;0.21;-0.03;0.42;-52.80;45.36;-124.73;82.36;-6.68;-382.00;0.47;-43.83;5.36;-2.84 
1.923;0.24;-0.07;0.20;-48.07;24.49;-106.99;59.54;-0.95;-374.00;0.32;-40.12;4.57;-3.97 
1.953;0.20;-0.29;0.30;-52.45;9.18;-87.23;45.65;-0.95;-373.00;0.46;-36.94;4.90;-5.62 
1.983;0.09;-0.10;0.26;-38.96;50.23;-72.70;25.80;1.91;-364.00;0.29;-34.47;4.71;-7.14 
2.014;0.10;0.17;0.08;-36.10;88.77;-86.61;7.94;12.40;-349.00;0.21;-32.01;3.20;-7.55 
2.044;0.01;0.28;-0.08;-26.64;74.09;-95.23;-6.95;20.99;-335.00;0.29;-29.15;1.14;-8.21 
2.074;0.00;0.35;0.03;-38.19;42.02;-85.08;-21.83;25.76;-329.00;0.35;-26.51;0.18;-8.48 
2.104;0.21;0.36;0.02;-47.17;32.63;-144.90;-36.72;30.53;-316.00;0.42;-23.37;-0.33;-8.82 
2.134;0.00;-0.53;0.24;-110.40;-10.16;-146.78;-74.43;22.90;-300.00;0.58;-18.34;0.13;-10.83 
2.164;-1.62;-1.24;1.42;-196.38;112.83;-20.45;-99.23;12.40;-291.00;2.49;-16.33;1.80;-14.46 
2.194;-0.11;0.61;-0.38;-245.29;-92.87;-188.24;-140.91;20.99;-250.00;0.73;-13.13;0.95;-21.73 
2.225;1.19;-0.51;-0.10;-130.85;-102.61;-283.97;-190.53;-17.17;-222.00;1.30;-4.84;7.59;-26.55 
2.255;1.62;-3.76;0.43;-299.20;-374.75;-151.03;-250.07;-92.55;-186.00;4.12;4.40;18.14;-30.97 
2.284;3.48;-7.96;1.18;-186.23;-185.60;-183.17;-269.92;-120.21;-164.00;8.77;13.44;27.39;-35.41 
2.314;2.46;-1.72;0.06;-57.95;-219.48;75.55;-298.70;-173.64;-115.00;3.00;19.36;34.18;-38.03 
2.344;0.05;-0.54;1.73;-183.58;-321.11;64.77;-305.64;-166.96;-108.00;1.81;20.08;37.27;-42.14 
2.374;1.54;-0.97;-0.29;-290.37;-182.68;91.83;-319.54;-169.83;-40.00;1.84;27.33;38.96;-47.47 
2.403;0.77;-1.10;-0.65;-176.07;-118.12;113.39;-330.45;-150.74;4.00;1.49;32.38;37.08;-52.37 
2.434;1.05;-1.14;-0.61;-127.72;-62.68;152.63;-324.50;-127.85;35.00;1.67;34.37;33.69;-56.30 
2.464;0.47;-0.60;-0.45;-121.46;-115.41;179.62;-315.57;-96.36;52.00;0.89;34.47;28.48;-60.75 
2.494;0.50;-0.86;-0.53;-133.08;-81.88;118.75;-301.67;-51.52;79.00;1.13;35.06;23.33;-63.62 
2.525;0.99;-1.49;-0.64;-78.68;-97.46;154.99;-286.79;-28.62;93.00;1.90;35.40;18.75;-64.85 
2.555;0.02;-1.28;-0.02;-92.52;9.74;234.09;-269.92;2.86;94.00;1.28;31.83;12.15;-67.27 
2.585;-0.53;-0.48;-0.43;-24.56;200.49;18.23;-245.11;31.48;115.00;0.83;26.35;8.44;-68.54 
2.614;0.10;-0.77;-1.36;-12.03;94.82;43.76;-239.16;20.99;146.00;1.57;24.66;8.81;-67.51 
2.643;-0.42;-0.02;-1.00;47.23;-72.07;50.37;-235.19;31.48;142.00;1.08;22.70;7.14;-68.24 
2.673;-0.05;-0.06;-0.37;50.85;-48.00;-2.64;-237.17;38.16;120.00;0.38;21.83;5.36;-69.14 
2.702;0.00;-0.55;-0.78;17.67;5.84;11.97;-237.17;40.07;120.00;0.95;21.45;4.73;-69.45 
2.733;-0.18;-0.90;-0.93;24.00;-29.98;0.63;-237.17;42.93;113.00;1.31;21.21;4.09;-69.42 
2.763;-0.02;-1.14;-0.77;40.35;-19.20;-9.18;-242.13;44.84;97.00;1.38;20.96;3.51;-69.89 
2.793;0.05;-1.14;-0.79;64.42;5.91;-26.64;-239.16;38.16;97.00;1.39;20.60;3.81;-70.83 
2.824;0.10;-1.04;-0.62;81.32;-5.57;-22.96;-252.06;39.12;79.00;1.21;19.72;4.38;-72.57 
2.854;0.06;-0.85;-0.34;63.65;-5.36;-22.61;-255.03;35.30;70.00;0.92;18.55;4.86;-74.22 
2.884;-0.08;-0.59;-0.17;56.56;-5.36;-33.67;-262.97;26.71;54.00;0.62;17.81;5.27;-75.53 
2.914;0.02;-0.81;-0.20;63.17;16.21;-61.22;-266.94;18.13;46.00;0.83;17.56;6.34;-76.48 
2.944;0.26;-1.21;-0.28;84.59;16.77;-52.10;-274.88;8.59;35.00;1.27;17.13;8.02;-77.44 
2.974;0.28;-1.11;-0.17;55.44;-9.88;-44.80;-278.85;2.86;24.00;1.16;16.81;9.38;-77.82 
3.004;0.17;-1.05;0.00;40.49;-0.90;-37.50;-285.80;-8.59;10.00;1.06;16.66;10.47;-77.76 
3.035;0.41;-1.18;0.00;24.07;28.66;-35.20;-288.77;-15.27;7.00;1.25;16.75;11.60;-77.25 
3.065;0.52;-1.17;-0.19;9.74;20.52;-3.48;-290.76;-20.04;3.00;1.29;16.77;12.33;-76.82 
3.095;0.25;-1.02;-0.23;-0.90;3.13;8.83;-292.74;-20.04;2.00;1.08;16.46;12.17;-77.01 
3.125;0.18;-0.93;-0.19;-4.24;-3.76;-6.54;-291.75;-18.13;5.00;0.97;16.57;11.98;-77.07 
3.155;0.29;-1.07;-0.19;-10.09;-0.42;-8.83;-290.76;-20.04;10.00;1.12;17.08;12.12;-76.80 
3.185;0.33;-1.09;-0.23;-15.86;-10.57;5.57;-289.77;-21.94;9.00;1.16;17.69;12.20;-76.50 
3.215;0.16;-0.96;-0.21;-19.27;-10.02;5.84;-288.77;-19.08;9.00;1.00;18.08;11.82;-76.50 
3.246;0.18;-0.94;-0.29;-15.86;-2.37;-6.12;-289.77;-21.94;16.00;1.00;18.67;11.63;-76.26 
3.276;0.30;-1.04;-0.35;-8.83;-3.48;-2.92;-291.75;-20.04;15.00;1.14;19.32;11.70;-75.88 
3.306;0.25;-0.98;-0.30;-2.85;-1.39;2.64;-292.74;-21.94;16.00;1.05;19.60;11.57;-75.76 
3.336;0.27;-1.02;-0.29;0.00;1.60;0.56;-288.77;-19.08;17.00;1.09;19.71;11.44;-75.72 
3.366;0.26;-1.06;-0.33;1.81;-0.49;3.55;-290.76;-20.04;16.00;1.14;19.75;11.31;-75.74 
3.396;0.25;-1.04;-0.28;2.78;1.46;5.57;-288.77;-16.22;15.00;1.11;19.64;11.11;-75.85 
3.426;0.26;-1.02;-0.30;3.27;1.18;6.96;-292.74;-16.22;18.00;1.09;19.46;10.87;-76.01 
3.456;0.18;-1.00;-0.26;2.78;1.32;6.19;-288.77;-14.31;15.00;1.05;19.18;10.55;-76.24 
3.486;0.18;-0.98;-0.25;2.30;1.39;2.92;-289.77;-14.31;11.00;1.03;19.01;10.31;-76.39 
3.516;0.18;-0.98;-0.26;1.74;0.83;-0.42;-288.77;-16.22;16.00;1.03;18.95;10.18;-76.45 
3.546;0.21;-0.98;-0.26;0.00;-0.21;-3.55;-286.79;-16.22;15.00;1.04;19.03;10.13;-76.41 
3.576;0.22;-0.98;-0.24;-2.64;1.46;-4.45;-287.78;-16.22;14.00;1.03;19.21;10.17;-76.30 
3.606;0.26;-1.02;-0.26;-2.85;0.63;-3.41;-287.78;-17.17;13.00;1.08;19.44;10.21;-76.14 
3.636;0.23;-1.01;-0.30;-2.23;-0.14;-2.64;-291.75;-15.27;15.00;1.08;19.67;10.23;-76.00 
3.666;0.25;-1.02;-0.26;-1.88;0.56;-2.37;-287.78;-17.17;16.00;1.08;19.88;10.24;-75.86 
3.696;0.26;-1.02;-0.27;-0.49;0.28;-1.32;-291.75;-17.17;17.00;1.09;20.05;10.24;-75.75 
3.726;0.25;-1.01;-0.28;-0.28;1.95;-1.74;-291.75;-18.13;16.00;1.08;20.18;10.24;-75.67 
3.755;0.23;-0.98;-0.29;0.21;-0.07;-0.28;-289.77;-16.22;17.00;1.05;20.26;10.21;-75.62 
3.784;0.23;-0.99;-0.29;0.83;0.56;0.42;-290.76;-18.13;16.00;1.06;20.34;10.17;-75.58 
3.814;0.26;-1.01;-0.30;1.60;0.83;1.46;-291.75;-20.99;12.00;1.09;20.33;10.09;-75.60 
3.845;0.24;-1.01;-0.26;1.46;0.56;1.53;-291.75;-15.27;17.00;1.07;20.30;10.00;-75.63 
3.875;0.24;-0.99;-0.27;0.70;0.28;2.23;-290.76;-20.04;12.00;1.05;20.27;9.88;-75.67 
3.905;0.25;-1.01;-0.29;0.35;0.07;1.67;-287.78;-19.08;16.00;1.08;20.25;9.77;-75.70 
3.935;0.26;-1.02;-0.26;0.07;-0.21;2.02;-289.77;-17.17;12.00;1.08;20.26;9.66;-75.70 
3.965;0.23;-0.99;-0.26;-0.77;-0.42;2.64;-289.77;-18.13;15.00;1.05;20.28;9.54;-75.71 
3.995;0.22;-1.00;-0.26;-0.56;-0.42;0.70;-283.81;-18.13;14.00;1.06;20.33;9.42;-75.67 
4.025;0.22;-1.02;-0.27;-0.21;-0.14;-0.21;-289.77;-16.22;15.00;1.08;20.39;9.36;-75.65 
4.056;0.23;-1.01;-0.28;-0.70;0.56;-1.04;-291.75;-16.22;15.00;1.07;20.49;9.33;-75.59 
4.085;0.24;-1.02;-0.27;-0.35;-0.14;-0.28;-288.77;-17.17;13.00;1.08;20.59;9.30;-75.53 
4.115;0.23;-1.00;-0.27;-0.07;0.14;-0.49;-289.77;-17.17;18.00;1.06;20.68;9.27;-75.47 
4.146;0.22;-1.01;-0.26;0.83;0.21;0.07;-288.77;-16.22;17.00;1.07;20.79;9.27;-75.40 
4.176;0.24;-1.02;-0.28;0.35;0.63;-0.49;-289.77;-16.22;17.00;1.08;20.86;9.24;-75.37 
4.206;0.25;-1.02;-0.30;0.35;0.49;-0.42;-290.76;-16.22;15.00;1.09;20.95;9.23;-75.31 
4.235;0.23;-1.00;-0.26;0.49;0.63;-0.07;-289.77;-15.27;11.00;1.06;21.01;9.20;-75.28 
4.265;0.23;-1.00;-0.31;0.56;0.35;0.00;-287.78;-16.22;14.00;1.07;21.06;9.18;-75.26 
4.295;0.24;-1.00;-0.26;0.21;0.21;0.56;-291.75;-16.22;15.00;1.06;21.11;9.14;-75.23 
4.325;0.25;-1.02;-0.27;-0.21;0.07;1.11;-289.77;-18.13;12.00;1.08;21.17;9.09;-75.20 
4.355;0.22;-0.99;-0.28;-0.35;-0.14;1.25;-292.74;-16.22;17.00;1.05;21.19;9.00;-75.18 
4.385;0.21;-1.02;-0.30;-0.07;-0.14;0.21;-288.77;-15.27;16.00;1.08;21.24;8.94;-75.16 
4.415;0.23;-1.01;-0.26;-0.56;-0.14;0.49;-285.80;-16.22;12.00;1.07;21.31;8.91;-75.12 
4.446;0.24;-0.99;-0.28;-0.49;-0.14;0.28;-288.77;-14.31;16.00;1.06;21.39;8.88;-75.08 
4.475;0.23;-1.02;-0.26;-0.42;0.42;0.35;-289.77;-16.22;16.00;1.08;21.46;8.84;-75.03 
4.505;0.22;-1.02;-0.28;0.35;-0.21;0.14;-288.77;-17.17;14.00;1.08;21.52;8.80;-75.00 
4.535;0.22;-1.02;-0.26;-0.07;0.70;0.07;-290.76;-16.22;17.00;1.08;21.60;8.78;-74.96 
4.565;0.23;-1.00;-0.26;0.00;0.14;0.49;-289.77;-17.17;17.00;1.06;21.64;8.77;-74.94 
4.595;0.24;-1.01;-0.26;0.00;0.21;1.18;-287.78;-16.22;14.00;1.07;21.68;8.72;-74.92 
4.625;0.22;-1.00;-0.28;0.35;0.07;1.60;-286.79;-15.27;15.00;1.06;21.70;8.66;-74.91 
4.656;0.22;-1.00;-0.26;0.35;0.28;1.67;-287.78;-14.31;16.00;1.06;21.73;8.61;-74.90 
4.686;0.26;-1.02;-0.26;0.35;0.35;1.46;-290.76;-15.27;12.00;1.08;21.77;8.56;-74.88 
4.715;0.23;-1.01;-0.25;0.14;0.28;1.53;-288.77;-15.27;16.00;1.07;21.79;8.49;-74.87 
4.745;0.21;-1.01;-0.28;0.42;0.00;1.25;-286.79;-14.31;16.00;1.07;21.81;8.43;-74.87 
4.775;0.22;-1.02;-0.27;0.21;-0.07;1.39;-286.79;-15.27;14.00;1.08;21.84;8.38;-74.85 
4.805;0.23;-1.02;-0.26;-0.49;-0.07;1.39;-289.77;-14.31;15.00;1.08;21.88;8.33;-74.83 
4.834;0.22;-1.00;-0.26;-0.28;0.07;1.46;-289.77;-14.31;14.00;1.06;21.92;8.26;-74.81 
4.864;0.22;-1.01;-0.26;0.00;0.21;0.49;-286.79;-13.36;16.00;1.07;21.96;8.22;-74.79 
4.894;0.20;-1.02;-0.26;0.56;0.56;0.07;-287.78;-14.31;15.00;1.07;22.01;8.19;-74.76 
4.924;0.23;-0.98;-0.26;0.49;0.70;-0.28;-283.81;-13.36;13.00;1.04;22.10;8.20;-74.71 
4.954;0.23;-1.01;-0.28;0.63;0.97;0.00;-287.78;-13.36;15.00;1.07;22.15;8.19;-74.68 
4.984;0.22;-1.01;-0.27;0.35;0.63;-0.07;-287.78;-14.31;15.00;1.07;22.23;8.19;-74.64 
5.014;0.22;-1.02;-0.26;0.42;0.83;-0.14;-286.79;-13.36;17.00;1.08;22.27;8.19;-74.62 
5.044;0.22;-1.00;-0.30;0.49;0.49;0.56;-286.79;-11.45;14.00;1.07;22.29;8.18;-74.62 
5.074;0.24;-1.02;-0.26;-0.14;0.42;0.42;-284.80;-14.31;18.00;1.08;22.34;8.17;-74.60 
5.103;0.22;-1.00;-0.27;0.00;0.28;1.46;-288.77;-11.45;14.00;1.06;22.39;8.15;-74.57 
5.133;0.24;-1.02;-0.26;0.00;0.35;1.67;-288.77;-13.36;15.00;1.08;22.43;8.12;-74.55 
5.163;0.21;-1.01;-0.26;0.00;0.42;1.11;-290.76;-12.40;15.00;1.06;22.47;8.07;-74.53 
5.192;0.22;-1.01;-0.28;0.21;0.42;0.83;-289.77;-12.40;12.00;1.07;22.50;8.05;-74.52 
5.222;0.22;-1.01;-0.26;0.49;0.56;0.70;-287.78;-12.40;14.00;1.07;22.54;8.03;-74.50 
5.253;0.22;-1.02;-0.24;0.35;0.70;0.70;-286.79;-15.27;12.00;1.07;22.56;8.00;-74.50 
5.283;0.22;-1.01;-0.24;0.35;0.77;0.49;-289.77;-12.40;16.00;1.06;22.61;7.99;-74.48 
5.313;0.22;-1.00;-0.26;0.07;0.56;0.70;-288.77;-14.31;12.00;1.06;22.65;7.99;-74.46 
5.342;0.22;-1.00;-0.28;0.07;0.70;0.35;-286.79;-12.40;14.00;1.06;22.69;7.97;-74.44 
5.372;0.23;-1.02;-0.24;0.21;0.49;0.42;-286.79;-12.40;15.00;1.07;22.74;7.96;-74.42 
5.402;0.23;-1.00;-0.27;-0.07;0.42;0.63;-287.78;-13.36;16.00;1.06;22.76;7.94;-74.42 
5.432;0.22;-1.02;-0.30;-0.28;0.14;0.35;-286.79;-12.40;17.00;1.09;22.82;7.94;-74.39 
5.461;0.20;-1.01;-0.24;-0.07;0.42;0.63;-290.76;-9.54;15.00;1.06;22.87;7.93;-74.37 
5.491;0.23;-1.02;-0.28;-0.07;0.49;0.63;-288.77;-9.54;13.00;1.08;22.93;7.94;-74.35 
5.521;0.23;-1.01;-0.26;-0.14;0.42;1.11;-287.78;-13.36;9.00;1.07;22.95;7.91;-74.34 
5.552;0.20;-0.99;-0.26;0.42;1.32;-0.21;-285.80;-12.40;15.00;1.04;23.00;7.89;-74.33 
5.582;0.22;-1.01;-0.26;0.49;0.07;-0.07;-287.78;-10.49;13.00;1.07;23.07;7.91;-74.30 
5.612;0.23;-1.02;-0.29;-0.77;0.83;0.35;-285.80;-12.40;14.00;1.09;23.13;7.93;-74.28 
5.642;0.23;-1.02;-0.27;-0.56;0.28;1.74;-285.80;-8.59;15.00;1.08;23.19;7.93;-74.25 
5.672;0.22;-1.02;-0.24;0.14;0.83;1.04;-287.78;-12.40;13.00;1.07;23.23;7.89;-74.23 
5.701;0.22;-1.04;-0.26;0.28;0.21;0.49;-287.78;-8.59;13.00;1.09;23.24;7.87;-74.23 
5.731;0.22;-1.02;-0.26;0.14;0.63;0.63;-286.79;-9.54;13.00;1.08;23.29;7.87;-74.22 
5.762;0.22;-1.02;-0.27;0.07;0.49;0.63;-281.83;-11.45;13.00;1.08;23.36;7.89;-74.19 
5.792;0.21;-1.00;-0.30;0.14;0.21;0.56;-285.80;-10.49;14.00;1.06;23.41;7.90;-74.17 
5.822;0.23;-1.02;-0.26;-0.28;0.35;0.49;-286.79;-9.54;15.00;1.08;23.47;7.88;-74.14 
5.852;0.23;-1.02;-0.26;-0.35;0.21;0.42;-285.80;-11.45;12.00;1.08;23.55;7.87;-74.10 
5.882;0.20;-1.00;-0.25;0.14;0.00;-0.28;-287.78;-9.54;14.00;1.05;23.63;7.88;-74.06 
5.912;0.21;-1.02;-0.26;-0.21;0.21;-0.14;-286.79;-10.49;11.00;1.07;23.72;7.91;-74.02 
5.942;0.20;-1.02;-0.25;-0.42;0.07;-0.56;-286.79;-9.54;8.00;1.07;23.80;7.93;-73.99 
5.972;0.19;-1.01;-0.26;-0.21;0.07;-0.42;-282.82;-10.49;16.00;1.06;23.90;7.95;-73.95 
6.002;0.22;-1.00;-0.27;-0.42;0.07;-0.21;-285.80;-12.40;12.00;1.06;23.97;7.96;-73.92 
6.032;0.22;-1.02;-0.26;-0.42;0.21;0.14;-287.78;-11.45;16.00;1.08;24.04;7.96;-73.89 
6.063;0.18;-1.02;-0.28;0.21;0.00;0.07;-287.78;-7.63;12.00;1.07;24.11;7.98;-73.87 
6.093;0.22;-1.02;-0.25;0.49;0.49;-1.11;-290.76;-11.45;11.00;1.07;24.18;8.00;-73.84 
6.123;0.22;-0.98;-0.26;0.28;-0.28;-0.77;-285.80;-9.54;13.00;1.04;24.27;8.05;-73.81 
6.153;0.23;-1.02;-0.25;-0.70;0.63;-0.28;-286.79;-7.63;12.00;1.08;24.36;8.08;-73.78 
6.182;0.21;-1.02;-0.25;-0.42;-0.42;0.77;-288.77;-11.45;15.00;1.07;24.47;8.11;-73.71 
6.212;0.20;-1.00;-0.26;-0.21;-0.07;0.14;-286.79;-11.45;13.00;1.05;24.56;8.11;-73.67 
6.242;0.22;-1.02;-0.25;0.14;-0.07;0.21;-283.81;-10.49;12.00;1.07;24.61;8.13;-73.66 
6.272;0.20;-1.01;-0.26;0.14;-0.07;0.14;-288.77;-9.54;14.00;1.06;24.68;8.12;-73.64 
6.301;0.18;-1.02;-0.26;-0.07;0.42;0.14;-284.80;-13.36;10.00;1.07;24.75;8.14;-73.62 
6.331;0.23;-1.02;-0.26;0.28;0.14;0.00;-283.81;-9.54;14.00;1.08;24.81;8.16;-73.60 
6.362;0.23;-1.02;-0.28;0.00;0.07;0.21;-286.79;-12.40;12.00;1.08;24.87;8.17;-73.58 
6.392;0.22;-1.02;-0.26;-0.14;0.21;0.14;-286.79;-7.63;9.00;1.08;24.93;8.19;-73.57 
6.422;0.22;-1.00;-0.25;-0.14;-0.14;-0.28;-286.79;-11.45;13.00;1.05;25.01;8.20;-73.54 
6.452;0.22;-1.02;-0.27;-0.07;0.28;0.14;-284.80;-11.45;15.00;1.08;25.09;8.22;-73.51 
6.482;0.21;-1.01;-0.28;-0.07;0.00;-0.14;-284.80;-12.40;14.00;1.07;25.15;8.24;-73.49 
6.511;0.22;-1.01;-0.29;0.07;0.07;0.21;-288.77;-12.40;12.00;1.07;25.23;8.25;-73.46 
6.541;0.21;-1.00;-0.26;0.00;0.14;-0.21;-284.80;-8.59;12.00;1.05;25.29;8.26;-73.44 
6.571;0.19;-1.03;-0.28;0.14;-0.14;-0.07;-286.79;-10.49;14.00;1.08;25.37;8.26;-73.41 
6.601;0.21;-1.02;-0.25;0.00;0.28;-0.21;-288.77;-12.40;12.00;1.07;25.45;8.29;-73.38 
6.630;0.23;-1.02;-0.26;-0.35;-0.14;0.70;-288.77;-11.45;14.00;1.08;25.52;8.30;-73.36 
6.661;0.21;-0.99;-0.26;-0.14;0.28;0.28;-286.79;-13.36;12.00;1.04;25.57;8.31;-73.34 
6.691;0.23;-1.00;-0.22;0.07;-0.28;0.49;-285.80;-10.49;12.00;1.05;25.66;8.30;-73.30 
6.721;0.22;-1.01;-0.27;-0.56;0.35;-0.28;-285.80;-10.49;11.00;1.07;25.74;8.32;-73.27 
6.750;0.21;-0.98;-0.25;-0.21;-0.07;0.42;-285.80;-13.36;11.00;1.03;25.81;8.33;-73.25 
6.780;0.19;-1.01;-0.24;-0.14;0.00;0.28;-285.80;-12.40;13.00;1.06;25.90;8.34;-73.21 
6.810;0.21;-1.02;-0.27;0.21;0.14;0.28;-286.79;-10.49;14.00;1.08;25.95;8.35;-73.20 
6.840;0.21;-1.01;-0.26;-0.14;0.28;-0.07;-284.80;-9.54;11.00;1.06;26.03;8.37;-73.18 
6.870;0.21;-1.04;-0.26;0.21;0.42;-0.83;-286.79;-10.49;15.00;1.09;26.10;8.40;-73.16 
6.900;0.19;-1.00;-0.26;0.77;0.70;-1.11;-286.79;-8.59;12.00;1.05;26.19;8.45;-73.13 
6.930;0.21;-1.02;-0.22;0.63;0.56;-0.70;-284.80;-11.45;12.00;1.06;26.25;8.51;-73.11 
6.961;0.19;-1.02;-0.26;0.14;0.21;-0.83;-286.79;-12.40;11.00;1.07;26.34;8.56;-73.08 
6.991;0.22;-0.99;-0.23;-0.21;0.56;-0.49;-285.80;-11.45;14.00;1.04;26.43;8.60;-73.05 
7.021;0.20;-1.00;-0.26;0.07;0.00;-1.53;-288.77;-10.49;16.00;1.05;26.53;8.65;-73.01 
7.051;0.22;-1.01;-0.26;0.07;0.00;-1.67;-287.78;-13.36;14.00;1.07;26.69;8.72;-72.94 
7.080;0.21;-1.02;-0.26;-0.14;0.63;-1.46;-289.77;-11.45;9.00;1.07;26.81;8.80;-72.88 
7.110;0.22;-1.02;-0.24;-0.28;0.21;-0.14;-288.77;-11.45;14.00;1.07;26.93;8.84;-72.83 
7.140;0.23;-1.02;-0.26;-0.42;-0.07;0.00;-285.80;-13.36;16.00;1.08;27.02;8.87;-72.79 
7.171;0.22;-1.01;-0.26;-0.49;-0.35;1.11;-287.78;-13.36;16.00;1.07;27.10;8.87;-72.77 
7.200;0.22;-1.01;-0.26;-0.70;-0.56;1.53;-287.78;-11.45;12.00;1.07;27.17;8.85;-72.74 
7.230;0.20;-1.00;-0.28;-0.90;-0.56;2.30;-283.81;-11.45;13.00;1.06;27.20;8.82;-72.74 
7.261;0.25;-1.03;-0.24;0.21;-0.35;0.70;-291.75;-11.45;14.00;1.09;27.28;8.80;-72.71 
7.291;0.25;-1.06;-0.30;0.07;-0.56;3.97;-286.79;-10.49;11.00;1.13;27.29;8.76;-72.73 
7.321;0.23;-1.02;-0.27;0.63;-0.35;6.19;-283.81;-10.49;11.00;1.08;27.23;8.67;-72.78 
7.350;0.20;-1.00;-0.27;0.90;-1.18;6.33;-287.78;-10.49;8.00;1.05;27.09;8.50;-72.88 
7.380;0.19;-1.02;-0.26;0.21;-0.70;4.52;-285.80;-11.45;12.00;1.07;26.95;8.33;-72.99 
7.410;0.17;-1.02;-0.26;0.14;0.21;3.97;-282.82;-8.59;11.00;1.07;26.86;8.22;-73.05 
7.440;0.20;-0.98;-0.24;-0.07;0.49;0.70;-283.81;-6.68;11.00;1.03;26.82;8.14;-73.07 
7.470;0.18;-1.02;-0.27;0.35;-0.56;-0.21;-282.82;-6.68;11.00;1.07;26.89;8.12;-73.06 
7.500;0.19;-1.02;-0.22;-0.21;-0.14;0.90;-286.79;-7.63;11.00;1.06;26.94;8.14;-73.06 
7.530;0.18;-1.01;-0.27;0.07;0.63;-0.90;-282.82;-8.59;13.00;1.06;27.02;8.18;-73.03 
7.560;0.20;-1.02;-0.26;0.00;-0.14;-1.74;-284.80;-7.63;9.00;1.07;27.15;8.24;-72.98 
7.590;0.19;-1.02;-0.26;-0.07;1.25;-2.16;-283.81;-5.72;10.00;1.07;27.28;8.33;-72.93 
7.620;0.22;-1.02;-0.27;-0.14;0.21;-2.30;-282.82;-7.63;13.00;1.08;27.42;8.42;-72.87 
7.649;0.24;-1.00;-0.26;-1.04;0.14;-1.60;-286.79;-10.49;8.00;1.06;27.58;8.51;-72.80 
7.679;0.22;-1.03;-0.27;-1.18;0.63;-0.77;-281.83;-6.68;13.00;1.09;27.73;8.56;-72.72 
7.709;0.21;-1.00;-0.26;-0.42;-0.77;1.95;-284.80;-9.54;11.00;1.05;27.81;8.58;-72.69 
7.739;0.21;-1.03;-0.27;-0.07;0.14;2.85;-281.83;-10.49;13.00;1.09;27.85;8.54;-72.69 
7.769;0.19;-1.01;-0.23;-0.35;-0.14;3.41;-283.81;-5.72;14.00;1.05;27.82;8.46;-72.72 
7.799;0.21;-1.02;-0.27;-0.49;0.14;2.30;-285.80;-6.68;11.00;1.08;27.83;8.39;-72.72 
7.829;0.22;-1.02;-0.24;0.35;0.35;2.85;-285.80;-2.86;11.00;1.07;27.83;8.34;-72.74 
7.860;0.18;-1.00;-0.29;0.63;0.70;2.02;-286.79;-4.77;13.00;1.06;27.81;8.28;-72.76 
7.889;0.20;-1.00;-0.26;1.04;0.49;1.60;-282.82;-7.63;11.00;1.05;27.80;8.24;-72.78 
7.919;0.22;-1.02;-0.26;1.25;1.04;0.56;-282.82;-4.77;11.00;1.08;27.79;8.20;-72.81 
7.949;0.22;-1.02;-0.26;0.77;0.97;0.77;-279.84;-4.77;14.00;1.08;27.77;8.20;-72.84 
7.979;0.20;-1.03;-0.26;0.28;0.28;1.81;-280.83;-6.68;12.00;1.08;27.72;8.16;-72.88 
8.009;0.20;-1.02;-0.26;-0.35;1.04;1.60;-281.83;-5.72;12.00;1.07;27.71;8.12;-72.91 
8.039;0.18;-1.02;-0.26;-0.28;0.14;0.77;-281.83;-0.95;12.00;1.07;27.73;8.10;-72.91 
8.070;0.18;-1.00;-0.26;-0.49;-0.21;-0.63;-280.83;-4.77;10.00;1.05;27.71;8.08;-72.96 
8.100;0.23;-1.02;-0.29;-0.42;0.90;-0.21;-280.83;-3.82;14.00;1.09;27.82;8.13;-72.92 
8.130;0.24;-1.03;-0.26;-0.14;-0.42;2.37;-281.83;-5.72;10.00;1.09;27.90;8.14;-72.88 
8.160;0.22;-1.02;-0.24;-0.77;0.83;4.59;-282.82;-1.91;9.00;1.07;27.88;8.08;-72.91 
8.190;0.20;-1.01;-0.27;-0.28;1.11;5.15;-281.83;-1.91;10.00;1.06;27.80;7.94;-72.95 
8.219;0.20;-1.00;-0.26;0.77;-0.28;4.10;-280.83;-1.91;12.00;1.05;27.71;7.80;-73.00 
8.249;0.16;-1.00;-0.23;0.49;0.28;2.78;-281.83;0.95;7.00;1.04;27.64;7.67;-73.06 
8.280;0.18;-1.02;-0.28;1.53;0.56;0.83;-280.83;-3.82;11.00;1.07;27.58;7.60;-73.11 
8.310;0.18;-1.01;-0.25;1.74;0.14;-0.14;-280.83;-1.91;10.00;1.06;27.56;7.61;-73.16 
8.339;0.17;-1.02;-0.26;0.90;1.32;-0.35;-277.86;-0.95;11.00;1.07;27.57;7.63;-73.18 
8.370;0.20;-1.01;-0.24;0.42;1.32;-1.32;-280.83;-2.86;11.00;1.06;27.58;7.67;-73.19 
8.400;0.20;-1.01;-0.25;0.63;0.63;-2.16;-280.83;-1.91;12.00;1.06;27.66;7.73;-73.17 
8.430;0.17;-1.00;-0.26;-0.07;1.25;-1.67;-279.84;-2.86;9.00;1.05;27.74;7.78;-73.15 
8.460;0.20;-1.02;-0.30;0.56;1.60;-0.49;-280.83;-2.86;10.00;1.08;27.81;7.86;-73.13 
8.489;0.22;-1.06;-0.30;1.11;2.30;1.46;-278.85;-2.86;9.00;1.12;27.78;7.87;-73.17 
8.519;0.21;-1.03;-0.24;1.46;0.97;4.59;-282.82;-0.95;8.00;1.08;27.69;7.81;-73.23 
8.549;0.20;-1.02;-0.25;1.32;1.95;5.43;-279.84;1.91;10.00;1.07;27.53;7.70;-73.33 
8.580;0.20;-1.02;-0.26;2.43;1.60;6.47;-275.87;1.91;8.00;1.07;27.31;7.53;-73.45 
8.610;0.18;-1.04;-0.24;2.57;1.95;6.12;-282.82;3.82;6.00;1.08;27.01;7.38;-73.61 
8.640;0.14;-1.02;-0.26;2.50;1.53;8.00;-278.85;2.86;7.00;1.06;26.72;7.21;-73.77 
8.671;0.14;-0.99;-0.22;0.97;4.31;4.87;-277.86;2.86;8.00;1.02;26.47;6.94;-73.91 
8.701;0.12;-0.99;-0.30;4.17;4.45;1.53;-275.87;2.86;6.00;1.04;26.21;6.88;-74.02 
8.731;0.15;-1.02;-0.22;4.66;-2.71;-4.24;-275.87;4.77;8.00;1.05;26.13;6.86;-74.12 
8.760;0.21;-1.03;-0.18;1.39;2.64;-1.39;-276.86;5.72;3.00;1.07;26.15;6.97;-74.18 
8.790;0.17;-1.02;-0.26;-0.77;1.67;-0.70;-277.86;4.77;6.00;1.07;26.16;7.03;-74.17 
8.820;0.17;-1.01;-0.22;-0.63;-1.04;-2.92;-277.86;2.86;9.00;1.05;26.33;7.09;-74.09 
8.849;0.18;-1.03;-0.26;-1.39;-0.07;-2.78;-277.86;4.77;9.00;1.08;26.50;7.14;-74.02 
8.880;0.18;-1.02;-0.24;-1.60;-0.49;-1.60;-277.86;2.86;10.00;1.06;26.70;7.22;-73.93 
8.910;0.18;-1.03;-0.24;-1.60;-0.21;-0.97;-281.83;2.86;9.00;1.07;26.87;7.26;-73.85 
8.939;0.19;-1.02;-0.25;-0.97;-0.14;0.07;-282.82;5.72;9.00;1.07;27.00;7.29;-73.80 
8.969;0.21;-1.04;-0.22;-0.83;-0.42;1.60;-277.86;5.72;7.00;1.08;27.10;7.30;-73.77 
8.999;0.16;-1.02;-0.23;-1.04;-0.49;2.85;-279.84;3.82;7.00;1.06;27.12;7.22;-73.77 
9.029;0.17;-1.02;-0.25;-0.49;0.14;2.43;-280.83;4.77;9.00;1.06;27.13;7.16;-73.77 
9.059;0.16;-1.02;-0.25;0.35;0.42;1.39;-277.86;4.77;10.00;1.06;27.13;7.08;-73.79 
9.090;0.18;-1.01;-0.26;0.90;0.00;0.21;-277.86;4.77;7.00;1.06;27.09;7.03;-73.83 
9.119;0.16;-1.02;-0.26;0.77;0.42;-0.70;-278.85;4.77;9.00;1.06;27.14;7.06;-73.84 
9.149;0.17;-1.02;-0.26;0.07;0.21;-0.97;-276.86;3.82;6.00;1.07;27.17;7.09;-73.85 
9.180;0.16;-1.02;-0.23;-0.35;0.21;-1.88;-277.86;1.91;10.00;1.06;27.27;7.15;-73.82 
9.210;0.18;-1.01;-0.26;-0.77;0.28;-1.88;-280.83;1.91;8.00;1.06;27.41;7.20;-73.77 
9.240;0.18;-1.02;-0.28;-0.49;0.14;-2.09;-278.85;1.91;10.00;1.07;27.57;7.26;-73.71 
9.270;0.19;-1.04;-0.24;-0.35;0.00;-2.30;-278.85;1.91;9.00;1.08;27.70;7.33;-73.66 
9.300;0.19;-1.02;-0.24;-0.42;0.00;-1.60;-278.85;2.86;10.00;1.06;27.84;7.38;-73.61 
9.330;0.20;-1.02;-0.24;-0.56;-0.07;-0.28;-283.81;1.91;7.00;1.07;27.95;7.42;-73.57 
9.360;0.18;-1.01;-0.21;-0.28;0.07;-0.21;-278.85;0.95;10.00;1.05;28.02;7.44;-73.55 
9.391;0.18;-1.02;-0.24;0.28;0.07;-0.07;-275.87;0.95;10.00;1.06;28.09;7.45;-73.53 
9.421;0.17;-1.02;-0.26;0.07;-0.07;0.77;-277.86;-0.95;6.00;1.07;28.13;7.45;-73.55 
9.451;0.18;-1.03;-0.26;-0.42;0.35;0.97;-274.88;1.91;6.00;1.08;28.17;7.45;-73.54 
9.481;0.15;-1.01;-0.28;-0.07;-0.21;1.46;-279.84;1.91;9.00;1.06;28.21;7.42;-73.54 
9.510;0.18;-1.02;-0.26;0.07;0.14;0.63;-281.83;1.91;8.00;1.07;28.26;7.41;-73.53 
9.540;0.15;-1.02;-0.26;0.07;0.63;0.00;-278.85;1.91;10.00;1.06;28.31;7.41;-73.52 
9.570;0.16;-1.02;-0.24;0.00;0.14;0.14;-276.86;4.77;8.00;1.06;28.33;7.41;-73.53 
9.599;0.17;-1.02;-0.24;0.00;0.21;-0.28;-277.86;1.91;8.00;1.06;28.37;7.41;-73.54 
9.629;0.18;-1.02;-0.22;0.14;0.28;0.28;-279.84;0.95;9.00;1.06;28.43;7.42;-73.52 
9.659;0.17;-1.02;-0.25;-0.21;0.21;-0.63;-278.85;2.86;8.00;1.06;28.46;7.43;-73.53 
9.689;0.19;-1.02;-0.26;-0.28;0.14;0.07;-280.83;4.77;3.00;1.07;28.51;7.43;-73.53 
9.719;0.18;-1.02;-0.17;-0.35;0.14;-0.07;-277.86;3.82;9.00;1.05;28.58;7.44;-73.51 
9.749;0.18;-1.02;-0.26;-0.35;0.07;-0.21;-280.83;1.91;8.00;1.07;28.64;7.44;-73.50 
9.779;0.18;-1.02;-0.23;-0.07;0.14;-0.14;-278.85;2.86;9.00;1.06;28.68;7.45;-73.51 
9.809;0.16;-1.02;-0.23;0.00;0.14;-0.07;-278.85;0.95;9.00;1.06;28.76;7.46;-73.49 
9.839;0.17;-1.02;-0.22;-0.21;0.07;-0.56;-279.84;5.72;5.00;1.06;28.82;7.48;-73.48 
9.869;0.22;-0.99;-0.22;-0.28;-0.14;-0.56;-279.84;2.86;7.00;1.04;28.85;7.48;-73.49 
9.899;0.18;-1.02;-0.25;-0.07;0.00;-0.21;-276.86;3.82;9.00;1.07;28.93;7.49;-73.47 
9.929;0.18;-1.02;-0.26;-0.28;-0.07;-0.14;-275.87;1.91;10.00;1.07;28.99;7.49;-73.46 
9.959;0.18;-1.02;-0.26;-0.35;0.14;0.07;-278.85;1.91;8.00;1.07;29.05;7.49;-73.45 
9.989;0.18;-1.02;-0.25;-0.14;-0.49;0.21;-282.82;3.82;12.00;1.07;29.13;7.49;-73.44 
10.019;0.17;-1.02;-0.25;0.00;0.42;-0.14;-278.85;3.82;8.00;1.06;29.20;7.47;-73.41 
10.049;0.16;-1.02;-0.26;0.21;0.21;-0.49;-278.85;0.95;5.00;1.06;29.28;7.47;-73.39 
10.078;0.19;-1.02;-0.25;-0.21;0.00;0.00;-276.86;1.91;7.00;1.07;29.34;7.48;-73.38 
10.108;0.18;-1.02;-0.26;-0.49;0.35;0.70;-278.85;0.00;8.00;1.07;29.39;7.48;-73.38 
10.138;0.16;-1.01;-0.26;-0.56;0.07;0.42;-280.83;2.86;8.00;1.06;29.44;7.47;-73.37 
10.168;0.19;-1.01;-0.24;0.07;0.00;0.49;-277.86;0.00;6.00;1.06;29.48;7.45;-73.37 
10.198;0.19;-1.03;-0.27;-0.28;0.35;-0.07;-278.85;3.82;9.00;1.08;29.53;7.44;-73.37 
10.228;0.18;-1.02;-0.25;0.21;0.00;0.77;-280.83;1.91;6.00;1.07;29.60;7.45;-73.35 
10.258;0.18;-1.03;-0.26;-0.14;0.42;0.28;-277.86;4.77;9.00;1.08;29.64;7.45;-73.36 
10.289;0.18;-1.03;-0.29;0.00;0.00;0.97;-278.85;1.91;9.00;1.09;29.66;7.47;-73.37 
10.318;0.14;-1.05;-0.22;-4.31;-4.17;-0.35;-276.86;2.86;7.00;1.08;29.76;7.46;-73.35 
10.348;0.17;-1.06;-0.25;-9.67;-2.71;-8.42;-275.87;0.00;7.00;1.10;30.24;7.53;-73.13 
