Time(s) acc_x(g) acc_y(g) acc_z(g) gyr_x(°/s) gyr_y(°/s) gyr_z(°/s) mag_x(G) mag_y(G) mag_z(G) SVM(g) yaw(°) pitch(°) roll(°)
0.000;0.14;0.18;0.89;-1.88;-0.42;3.83;405.94;-341.37;-356.00;0.92;-129.27;10.20;7.93 
0.031;0.13;0.19;0.86;-1.88;-0.90;2.57;410.91;-341.37;-354.00;0.89;-129.43;10.22;7.93 
0.060;0.11;0.19;0.86;-0.56;-1.95;0.28;406.93;-342.33;-356.00;0.89;-129.54;10.28;7.96 
0.089;0.10;0.20;0.88;-0.14;-2.78;-2.50;407.93;-343.29;-353.00;0.91;-129.55;10.33;8.03 
0.119;0.08;0.18;0.89;0.28;-2.99;-4.59;409.92;-344.24;-356.00;0.91;-129.50;10.38;8.10 
0.149;0.08;0.17;0.89;0.77;-2.92;-5.01;406.93;-344.24;-358.00;0.91;-129.41;10.42;8.19 
0.179;0.08;0.15;0.87;2.02;-2.30;-4.03;407.93;-342.33;-355.00;0.89;-129.33;10.44;8.31 
0.209;0.06;0.15;0.89;2.57;-0.42;-0.83;406.93;-342.33;-357.00;0.90;-129.31;10.44;8.41 
0.239;0.09;0.14;0.94;3.62;5.43;3.83;408.92;-342.33;-357.00;0.95;-129.44;10.36;8.50 
0.269;0.04;0.17;0.86;3.55;10.71;6.33;408.92;-342.33;-354.00;0.88;-129.72;10.11;8.62 
0.299;0.09;0.17;0.78;1.53;8.07;7.58;409.92;-340.42;-353.00;0.80;-130.06;9.84;8.69 
0.330;0.10;0.17;0.74;-0.21;3.48;7.93;410.91;-339.46;-353.00;0.77;-130.39;9.70;8.75 
0.360;0.13;0.21;0.81;-3.41;-4.31;5.84;410.91;-341.37;-356.00;0.85;-130.67;9.74;8.74 
0.390;0.17;0.30;0.86;-5.22;-11.27;-0.63;409.92;-346.15;-354.00;0.93;-130.77;10.03;8.71 
0.421;0.19;0.26;0.90;-4.45;-12.66;-7.72;406.93;-345.20;-356.00;0.96;-130.62;10.45;8.69 
0.451;0.20;0.21;0.91;-2.02;-10.37;-9.74;406.93;-346.15;-357.00;0.96;-130.31;10.83;8.72 
0.481;0.18;0.19;0.91;-1.32;-6.47;-9.32;406.93;-349.02;-359.00;0.95;-130.03;11.09;8.76 
0.511;0.14;0.25;0.86;-0.42;-6.68;-13.22;404.94;-347.11;-355.00;0.91;-129.72;11.26;8.90 
0.542;0.17;0.26;0.85;-0.07;-7.51;-18.02;403.95;-348.07;-354.00;0.90;-129.27;11.42;9.09 
0.572;0.13;0.23;0.89;-0.97;-8.42;-23.03;410.91;-345.20;-361.00;0.93;-128.66;11.58;9.30 
0.602;0.13;0.20;0.92;-1.74;-6.75;-25.32;409.92;-342.33;-355.00;0.95;-127.96;11.70;9.47 
0.633;0.11;0.21;0.94;-1.46;-0.49;-26.50;408.92;-340.42;-357.00;0.97;-127.19;11.69;9.64 
0.663;0.11;0.16;0.86;-0.63;3.13;-25.04;402.95;-336.59;-355.00;0.88;-126.49;11.50;9.77 
0.693;0.10;0.20;0.90;0.14;1.60;-23.51;403.95;-329.90;-355.00;0.93;-125.86;11.29;9.93 
0.723;0.11;0.15;0.86;1.11;2.30;-21.36;405.94;-329.90;-359.00;0.88;-125.29;11.13;10.09 
0.753;0.10;0.17;0.82;1.74;4.10;-19.13;407.93;-327.03;-357.00;0.84;-124.78;10.92;10.26 
0.783;0.08;0.18;0.86;1.81;4.31;-15.93;406.93;-323.21;-356.00;0.88;-124.38;10.71;10.41 
0.813;0.08;0.18;0.88;1.88;5.91;-11.27;406.93;-318.42;-356.00;0.90;-124.10;10.47;10.51 
0.844;0.07;0.19;0.84;1.11;5.77;-6.05;407.93;-317.47;-355.00;0.86;-123.96;10.23;10.60 
0.874;0.10;0.18;0.85;0.56;2.99;-2.57;406.93;-313.64;-353.00;0.87;-123.95;10.09;10.66 
0.904;0.14;0.15;0.91;-0.07;5.36;2.09;407.93;-316.51;-359.00;0.93;-124.05;10.01;10.64 
0.934;0.13;0.18;0.93;0.07;12.24;4.66;404.94;-314.60;-356.00;0.96;-124.30;9.83;10.61 
0.964;0.08;0.22;0.83;0.56;14.40;3.06;406.93;-313.64;-353.00;0.86;-124.60;9.44;10.63 
0.994;0.08;0.22;0.82;0.70;9.95;2.92;408.92;-311.73;-355.00;0.85;-124.85;9.13;10.68 
1.023;0.08;0.18;0.78;0.35;5.63;4.87;406.93;-309.82;-355.00;0.80;-125.10;8.95;10.74 
1.054;0.10;0.21;0.79;-1.39;-1.53;5.98;410.91;-313.64;-356.00;0.82;-125.37;8.93;10.73 
1.084;0.14;0.23;0.78;-3.69;-8.83;4.45;408.92;-310.77;-356.00;0.83;-125.59;9.17;10.69 
1.114;0.16;0.25;0.77;-6.54;-14.96;0.07;406.93;-314.60;-353.00;0.83;-125.66;9.58;10.63 
1.145;0.04;0.24;1.05;-2.78;-23.86;-6.26;404.94;-316.51;-358.00;1.08;-125.52;10.16;10.50 
1.175;0.17;0.12;1.24;8.70;-10.71;-6.47;405.94;-319.38;-359.00;1.26;-125.28;10.72;10.61 
1.204;0.14;0.22;0.87;4.45;6.89;-4.94;408.92;-321.29;-357.00;0.91;-125.25;10.76;10.83 
1.233;0.12;0.18;0.65;-0.77;5.50;-5.08;406.93;-314.60;-353.00;0.69;-125.21;10.56;10.97 
1.263;0.06;0.06;0.72;1.04;1.46;3.20;405.94;-314.60;-354.00;0.72;-125.27;10.50;10.94 
1.292;0.02;0.10;0.86;2.02;10.30;8.35;406.93;-316.51;-353.00;0.87;-125.56;10.36;10.88 
1.322;0.03;0.13;0.78;-1.74;8.14;10.57;408.92;-313.64;-356.00;0.79;-125.98;10.05;10.77 
1.353;0.09;0.15;0.86;-4.94;-6.68;11.83;406.93;-318.42;-358.00;0.88;-126.40;10.09;10.61 
1.383;0.08;0.19;0.97;-8.49;-4.38;11.41;406.93;-321.29;-356.00;0.99;-126.76;10.33;10.36 
1.413;0.05;0.14;1.02;-8.21;4.59;12.73;405.94;-324.16;-355.00;1.03;-127.16;10.38;10.04 
1.444;0.06;0.04;0.96;-1.67;9.32;19.97;405.94;-323.21;-357.00;0.96;-127.73;10.18;9.67 
1.474;0.06;0.13;0.90;1.81;8.00;26.16;405.94;-325.12;-356.00;0.91;-128.57;9.96;9.49 
1.503;0.10;0.19;0.83;0.90;7.37;27.13;406.93;-325.12;-360.00;0.86;-129.48;9.82;9.42 
1.532;0.10;0.24;0.82;2.09;7.58;22.89;407.93;-328.94;-356.00;0.86;-130.32;9.73;9.39 
1.561;0.09;0.23;0.81;2.43;2.50;16.56;401.96;-329.90;-357.00;0.85;-131.03;9.63;9.46 
1.591;0.09;0.22;0.90;2.50;-2.43;9.11;408.92;-334.68;-358.00;0.93;-131.50;9.65;9.59 
1.621;0.06;0.21;0.97;-0.77;4.38;3.69;404.94;-333.72;-357.00;0.99;-131.76;9.64;9.65 
1.652;0.04;0.26;0.86;-0.83;5.63;-3.20;407.93;-333.72;-356.00;0.90;-131.88;9.43;9.69 
1.682;0.05;0.26;0.89;-2.02;4.17;-17.04;404.94;-332.77;-357.00;0.93;-131.67;9.15;9.82 
1.712;0.07;0.29;0.88;-3.62;5.36;-31.23;407.93;-327.03;-358.00;0.93;-131.06;8.84;9.95 
1.743;0.11;0.26;0.86;-2.71;3.69;-44.38;402.95;-323.21;-353.00;0.91;-130.01;8.48;10.15 
1.773;0.13;0.29;0.82;-3.48;-1.04;-59.76;403.95;-314.60;-356.00;0.88;-128.50;8.17;10.45 
1.803;0.14;0.30;0.80;-4.10;-2.71;-72.90;401.96;-307.91;-356.00;0.87;-126.62;7.94;10.74 
1.833;0.14;0.30;0.73;-3.90;-5.84;-88.00;397.98;-296.43;-356.00;0.80;-124.32;7.68;11.09 
1.863;0.13;0.32;0.78;-4.66;-15.65;-101.91;397.98;-282.09;-357.00;0.85;-121.46;7.51;11.49 
1.893;0.17;0.33;0.78;-9.11;-21.84;-118.19;394.99;-276.35;-359.00;0.86;-118.20;7.52;11.88 
1.923;0.18;0.34;0.86;-13.08;-18.64;-136.14;387.04;-265.83;-362.00;0.94;-114.39;7.50;12.19 
1.954;0.19;0.30;0.81;-17.74;-14.05;-150.82;374.10;-246.71;-364.00;0.88;-109.95;7.25;12.39 
1.984;0.19;0.26;0.85;-21.70;-14.75;-159.93;369.13;-239.06;-365.00;0.91;-105.19;6.88;12.46 
2.013;0.25;0.26;0.87;-21.70;-16.83;-162.92;346.24;-218.02;-366.00;0.94;-100.56;6.59;12.39 
2.043;0.29;0.32;0.81;-21.36;-18.99;-167.44;338.28;-204.63;-369.00;0.92;-95.84;6.39;12.36 
2.073;0.35;0.25;0.77;-20.87;-25.25;-168.35;311.42;-191.25;-373.00;0.88;-90.68;6.36;12.35 
2.103;0.34;0.18;0.93;-14.82;-31.17;-164.66;292.52;-182.64;-374.00;1.01;-85.70;6.58;12.37 
2.133;0.32;0.14;0.97;-12.03;-26.99;-155.27;276.60;-174.99;-375.00;1.03;-80.95;6.89;12.45 
2.164;0.29;0.12;0.87;-12.94;-17.95;-145.67;258.69;-168.30;-379.00;0.92;-76.41;7.05;12.55 
2.194;0.25;0.18;0.78;-12.73;-16.00;-134.33;237.79;-162.56;-380.00;0.84;-72.24;7.13;12.59 
2.223;0.18;0.18;0.73;-12.59;-16.35;-128.00;223.86;-158.73;-379.00;0.77;-68.61;7.19;12.66 
2.254;0.23;0.13;0.72;-15.65;-21.98;-118.96;214.91;-154.91;-380.00;0.77;-65.05;7.39;12.67 
2.284;0.26;0.00;0.81;-20.94;-23.58;-100.24;195.01;-153.95;-382.00;0.85;-61.81;7.87;12.41 
2.314;0.22;0.02;0.88;-20.17;-17.67;-80.07;182.08;-157.78;-383.00;0.91;-59.29;8.37;12.02 
2.344;0.18;0.05;0.84;-20.45;-10.09;-56.07;163.17;-155.87;-385.00;0.86;-57.44;8.80;11.55 
2.374;0.16;0.17;0.74;-22.19;-8.90;-39.23;157.20;-158.73;-384.00;0.78;-56.21;9.21;11.02 
2.404;0.11;0.26;0.78;-25.53;-10.02;-35.69;151.23;-160.65;-386.00;0.83;-55.32;9.68;10.53 
2.434;0.10;0.34;0.78;-28.80;0.14;-45.98;138.30;-158.73;-385.00;0.86;-54.32;9.99;10.05 
2.465;0.01;0.42;0.79;-32.28;14.47;-64.21;122.38;-158.73;-384.00;0.89;-52.87;9.82;9.55 
2.495;-0.09;0.42;0.67;-25.95;23.51;-85.98;109.44;-153.95;-379.00;0.80;-50.73;9.12;9.26 
2.525;-0.13;0.30;0.47;-12.17;35.48;-99.27;97.51;-149.17;-375.00;0.57;-48.10;7.97;9.37 
2.555;-0.06;0.18;0.33;-10.57;34.57;-98.92;83.58;-146.30;-369.00;0.38;-45.31;6.48;9.72 
2.584;0.05;-0.02;0.44;-17.74;15.79;-85.84;65.67;-139.61;-366.00;0.44;-42.60;5.64;9.52 
2.614;0.00;0.14;0.55;-8.90;27.62;-76.87;58.70;-137.70;-362.00;0.57;-40.48;5.20;9.14 
2.644;-0.02;0.12;0.46;-1.18;62.54;-74.99;46.76;-134.83;-355.00;0.48;-38.46;3.97;9.16 
2.674;0.07;0.00;0.25;-0.14;80.28;-62.75;38.80;-125.27;-345.00;0.26;-36.55;1.93;9.01 
2.704;0.10;0.06;0.06;16.63;62.26;-43.20;29.85;-108.05;-333.00;0.13;-35.22;-0.02;9.08 
2.734;-0.06;0.26;-0.04;16.35;25.25;-40.07;30.84;-101.36;-330.00;0.27;-34.27;-0.86;9.47 
2.764;0.01;0.26;0.16;10.09;-6.19;-53.01;27.86;-100.40;-325.00;0.31;-32.98;-1.00;10.44 
2.794;0.00;0.32;0.35;-8.97;-33.60;-59.34;21.89;-102.32;-326.00;0.47;-31.40;-0.13;10.93 
2.824;-0.15;0.51;0.53;-39.10;-49.53;-66.92;4.97;-116.66;-325.00;0.75;-29.70;1.25;10.49 
2.854;0.00;0.02;0.67;-65.60;-28.80;-78.54;-12.93;-123.35;-325.00;0.67;-27.64;2.61;9.17 
2.884;0.34;-0.18;0.45;-143.03;-26.43;-36.52;-36.81;-131.00;-319.00;0.59;-26.06;3.97;5.76 
2.914;-0.46;0.05;-0.06;-182.61;-33.67;-17.88;-70.64;-134.83;-307.00;0.47;-25.32;5.37;0.32 
2.944;-0.22;0.02;-0.40;-185.25;-44.10;-92.94;-100.49;-136.74;-287.00;0.46;-23.48;6.34;-5.31 
2.975;1.37;-1.61;0.96;-145.46;-401.88;-219.20;-164.17;-180.73;-263.00;2.32;-19.06;12.08;-11.08 
3.005;1.86;-6.50;8.16;521.11;-120.90;126.89;-182.08;-266.79;-295.00;10.60;-16.83;25.97;-5.44 
3.035;-2.30;1.16;3.68;-568.21;142.33;120.42;-133.32;-269.66;-325.00;4.49;-23.23;30.44;-8.46 
3.066;1.06;1.12;-0.48;-803.34;-99.34;-157.01;-281.57;-276.35;-167.00;1.62;-4.27;30.80;-24.75 
3.096;0.46;-0.18;-2.39;-399.72;-244.52;-10.30;-333.31;-297.39;-47.00;2.44;14.37;36.64;-38.52 
3.126;1.30;-1.66;-0.30;-85.08;-262.54;33.53;-345.25;-303.12;3.00;2.13;24.00;41.21;-43.07 
3.155;0.80;-0.89;0.35;-150.61;-203.69;-28.38;-349.23;-300.26;17.00;1.25;30.84;43.59;-44.29 
3.185;1.39;-1.34;-0.48;-145.04;-191.86;30.12;-349.23;-305.99;47.00;1.99;41.64;45.19;-44.66 
3.215;1.02;-1.49;-0.28;-139.27;-215.10;29.63;-346.24;-296.43;87.00;1.83;51.28;44.12;-45.47 
3.245;1.07;-1.26;0.38;-193.88;-222.33;73.60;-341.27;-280.18;109.00;1.70;61.87;41.19;-45.83 
3.275;0.00;-0.15;-0.36;-301.15;-93.77;129.81;-327.34;-257.23;148.00;0.39;68.33;36.08;-45.71 
3.305;-0.32;-0.20;-1.00;-196.38;-103.72;37.91;-312.41;-240.97;170.00;1.07;71.16;31.15;-43.00 
3.335;-0.13;-0.18;-0.81;-43.76;-127.37;-12.38;-277.59;-212.28;224.00;0.84;74.63;28.13;-40.59 
3.365;0.18;-0.98;-0.57;-76.31;-119.37;-20.38;-273.61;-202.72;223.00;1.15;78.91;25.47;-38.83 
3.395;0.05;-0.72;-0.83;-99.48;-104.28;-28.59;-265.65;-191.25;234.00;1.10;82.63;22.89;-36.33 
3.425;0.26;-0.92;-1.18;-86.96;-127.23;-18.99;-257.69;-191.25;240.00;1.52;86.09;20.48;-33.50 
3.454;0.02;-0.77;-1.31;-55.79;-97.11;-25.25;-247.74;-172.12;245.00;1.52;89.04;17.72;-31.20 
3.484;0.31;-0.79;-1.26;-12.52;-42.09;-34.09;-248.74;-169.25;238.00;1.52;91.46;16.01;-29.86 
3.514;0.40;-0.33;-1.11;2.43;25.60;-27.55;-245.75;-169.25;240.00;1.23;92.68;16.09;-29.39 
3.544;0.28;-0.65;-1.08;34.02;55.72;-13.84;-249.73;-177.86;242.00;1.29;92.52;17.36;-29.68 
3.575;0.29;-0.75;-1.22;46.82;62.96;-5.08;-257.69;-191.25;242.00;1.46;92.08;19.01;-29.92 
3.605;0.25;-0.62;-0.76;39.86;60.38;-21.63;-265.65;-197.94;237.00;1.01;90.85;20.83;-31.34 
3.635;0.31;-0.70;-0.95;68.52;82.09;1.88;-270.63;-207.50;232.00;1.22;89.20;22.84;-32.77 
3.665;0.38;-0.62;-0.82;66.50;106.16;-13.36;-278.59;-213.24;225.00;1.10;87.50;25.09;-34.24 
3.694;0.36;-0.76;-0.74;77.08;117.08;4.10;-283.56;-229.49;221.00;1.12;84.78;27.49;-36.15 
3.724;0.42;-0.68;-0.73;81.95;123.62;-6.54;-297.49;-241.93;213.00;1.08;81.53;29.88;-38.02 
3.754;0.44;-0.77;-0.62;81.95;120.07;9.60;-302.46;-253.40;199.00;1.08;77.53;32.16;-40.04 
3.785;0.45;-0.75;-0.49;75.06;84.73;12.94;-308.43;-259.14;190.00;1.00;73.55;33.65;-42.18 
3.815;0.58;-0.70;-0.33;58.71;53.91;16.00;-316.39;-263.92;182.00;0.97;70.31;34.20;-44.16 
3.845;0.43;-0.75;-0.23;35.13;34.09;13.84;-321.37;-264.88;166.00;0.89;67.88;34.31;-45.60 
3.876;0.46;-0.84;-0.34;10.02;14.82;13.77;-325.35;-261.05;161.00;1.02;66.24;34.13;-46.57 
3.906;0.42;-0.83;-0.40;2.16;-1.32;11.34;-321.37;-262.96;158.00;1.01;65.45;33.64;-47.19 
3.936;0.45;-0.85;-0.39;-6.40;-13.70;9.81;-321.37;-260.09;159.00;1.04;65.35;33.10;-47.52 
3.966;0.40;-0.86;-0.41;-14.75;-22.05;6.19;-320.37;-254.36;162.00;1.03;65.74;32.39;-47.69 
3.996;0.46;-0.85;-0.48;-21.15;-26.43;4.38;-317.39;-254.36;165.00;1.08;66.60;31.69;-47.58 
4.026;0.43;-0.86;-0.51;-22.47;-28.45;5.43;-317.39;-253.40;167.00;1.09;67.62;30.95;-47.35 
4.056;0.46;-0.87;-0.51;-22.40;-26.92;5.22;-315.40;-248.62;174.00;1.11;68.63;30.20;-47.09 
4.086;0.42;-0.85;-0.57;-20.52;-24.70;5.36;-314.40;-244.79;175.00;1.11;69.57;29.49;-46.79 
4.116;0.42;-0.87;-0.58;-17.46;-21.43;5.43;-311.42;-242.88;178.00;1.13;70.37;28.80;-46.55 
4.146;0.41;-0.86;-0.60;-14.54;-16.49;3.69;-309.43;-239.06;177.00;1.13;71.06;28.20;-46.34 
4.176;0.41;-0.86;-0.61;-10.71;-12.10;3.76;-307.44;-237.14;182.00;1.13;71.61;27.71;-46.14 
4.206;0.41;-0.89;-0.66;-4.45;-6.68;4.52;-305.45;-233.32;181.00;1.18;71.95;27.27;-46.07 
4.236;0.39;-0.91;-0.62;1.67;-2.16;5.50;-306.44;-235.23;182.00;1.17;72.09;26.93;-46.11 
4.265;0.42;-0.88;-0.58;5.70;0.00;6.75;-303.46;-232.36;183.00;1.13;72.02;26.62;-46.31 
4.294;0.42;-0.88;-0.60;7.65;1.46;8.42;-305.45;-231.41;181.00;1.14;71.82;26.29;-46.64 
4.324;0.40;-0.88;-0.56;8.35;2.64;8.21;-303.46;-231.41;177.00;1.12;71.55;26.03;-46.96 
4.354;0.39;-0.89;-0.55;8.63;2.92;8.07;-307.44;-228.54;173.00;1.12;71.24;25.78;-47.33 
4.385;0.38;-0.85;-0.57;7.30;2.92;8.00;-302.46;-227.58;172.00;1.09;70.91;25.52;-47.69 
4.415;0.38;-0.86;-0.54;8.07;2.37;8.21;-305.45;-226.63;173.00;1.08;70.59;25.28;-48.03 
4.445;0.34;-0.87;-0.59;9.60;4.38;7.44;-303.46;-225.67;172.00;1.10;70.30;25.04;-48.34 
4.475;0.38;-0.88;-0.58;6.19;-0.07;8.28;-308.43;-225.67;170.00;1.12;69.99;24.78;-48.68 
4.505;0.47;-0.68;-0.50;7.30;-1.04;8.35;-304.45;-224.71;168.00;0.97;70.19;24.50;-48.85 
4.535;0.34;-0.87;-0.53;2.23;-2.23;6.89;-308.43;-221.85;167.00;1.07;70.12;24.23;-49.04 
4.565;0.36;-0.87;-0.57;4.31;-0.97;6.12;-305.45;-219.93;166.00;1.10;70.07;23.99;-49.19 
4.594;0.34;-0.90;-0.52;1.32;-3.48;6.40;-305.45;-220.89;164.00;1.09;70.05;23.70;-49.34 
4.623;0.33;-0.88;-0.56;0.83;-2.78;5.57;-308.43;-218.98;164.00;1.09;70.07;23.45;-49.46 
4.652;0.37;-0.90;-0.54;0.70;-2.02;4.31;-306.44;-214.20;162.00;1.11;70.12;23.23;-49.54 
4.683;0.37;-0.90;-0.52;4.31;-0.56;3.69;-305.45;-216.11;163.00;1.10;70.16;23.03;-49.62 
4.713;0.34;-1.03;-0.49;5.08;0.77;6.33;-306.44;-215.15;160.00;1.19;70.05;22.56;-50.11 
4.743;0.34;-0.85;-0.52;0.28;-0.83;2.92;-307.44;-212.28;159.00;1.05;70.08;22.39;-50.23 
4.773;0.37;-0.90;-0.54;0.83;-0.83;2.64;-304.45;-211.33;158.00;1.11;70.17;22.25;-50.24 
4.803;0.33;-0.90;-0.54;1.32;-0.63;2.99;-307.44;-210.37;158.00;1.10;70.23;22.12;-50.28 
4.833;0.34;-0.90;-0.54;1.04;0.42;2.02;-307.44;-212.28;161.00;1.10;70.26;22.01;-50.32 
4.863;0.34;-0.90;-0.58;1.53;0.56;2.50;-302.46;-209.41;158.00;1.12;70.30;21.93;-50.35 
4.894;0.33;-0.91;-0.53;1.25;0.21;2.30;-305.45;-211.33;158.00;1.10;70.35;21.83;-50.39 
4.924;0.34;-0.88;-0.50;2.37;-0.28;2.23;-305.45;-210.37;158.00;1.07;70.38;21.82;-50.39 
4.954;0.33;-0.90;-0.52;0.56;0.14;2.16;-307.44;-210.37;159.00;1.09;70.43;21.72;-50.44 
4.985;0.31;-0.85;-0.51;0.56;-0.14;1.88;-303.46;-209.41;157.00;1.04;70.52;21.63;-50.44 
5.014;0.30;-0.89;-0.52;0.28;-0.35;1.18;-305.45;-207.50;157.00;1.07;70.62;21.56;-50.44 
5.043;0.33;-0.88;-0.54;0.21;-0.28;0.97;-305.45;-207.50;156.00;1.08;70.73;21.49;-50.43 
5.073;0.34;-0.88;-0.51;-0.56;-0.28;0.56;-304.45;-210.37;161.00;1.07;70.87;21.44;-50.40 
5.103;0.31;-0.90;-0.54;-0.42;-0.07;-0.07;-304.45;-207.50;158.00;1.09;71.04;21.41;-50.33 
5.133;0.34;-0.89;-0.54;0.07;0.00;0.35;-307.44;-207.50;158.00;1.10;71.18;21.38;-50.28 
5.163;0.32;-0.90;-0.53;-0.28;-0.42;0.49;-304.45;-205.59;156.00;1.09;71.32;21.34;-50.24 
5.194;0.31;-0.89;-0.51;-0.63;0.00;0.07;-306.44;-208.46;153.00;1.07;71.47;21.30;-50.19 
5.224;0.32;-0.89;-0.49;-0.49;0.14;0.07;-307.44;-208.46;156.00;1.07;71.66;21.27;-50.12 
5.254;0.32;-0.90;-0.54;-0.35;0.00;-0.28;-304.45;-206.55;157.00;1.10;71.80;21.26;-50.07 
5.284;0.33;-0.91;-0.51;-0.63;0.35;-0.83;-306.44;-207.50;155.00;1.09;71.98;21.27;-49.99 
5.313;0.32;-0.90;-0.54;-0.14;0.35;-0.77;-308.43;-208.46;159.00;1.10;72.14;21.29;-49.92 
5.343;0.33;-0.89;-0.53;-0.63;0.49;-1.04;-306.44;-207.50;160.00;1.09;72.29;21.31;-49.86 
5.373;0.31;-0.89;-0.54;-0.77;0.42;-0.77;-306.44;-208.46;157.00;1.09;72.45;21.33;-49.79 
5.403;0.34;-0.92;-0.54;-0.63;0.14;-0.56;-305.45;-207.50;157.00;1.12;72.61;21.34;-49.73 
5.433;0.32;-0.90;-0.51;-0.56;0.14;-0.35;-304.45;-208.46;157.00;1.08;72.77;21.33;-49.67 
5.463;0.34;-0.90;-0.52;-0.83;0.35;-0.49;-306.44;-204.63;160.00;1.09;72.92;21.34;-49.61 
5.494;0.32;-0.91;-0.53;-0.28;0.14;-0.56;-306.44;-209.41;157.00;1.10;73.08;21.34;-49.55 
5.524;0.34;-0.93;-0.54;-0.42;0.00;-0.21;-302.46;-209.41;158.00;1.13;73.24;21.35;-49.49 
5.554;0.34;-0.90;-0.56;-0.42;0.14;-0.21;-304.45;-209.41;158.00;1.11;73.40;21.35;-49.42 
5.584;0.32;-0.89;-0.54;0.00;0.21;0.14;-307.44;-206.55;158.00;1.09;73.53;21.34;-49.38 
5.613;0.35;-0.92;-0.53;0.35;0.21;0.35;-305.45;-211.33;157.00;1.12;73.66;21.31;-49.36 
5.642;0.33;-0.90;-0.52;0.42;0.14;0.35;-304.45;-209.41;156.00;1.09;73.77;21.29;-49.35 
5.672;0.33;-0.90;-0.56;0.21;0.49;0.28;-303.46;-211.33;158.00;1.11;73.88;21.27;-49.34 
5.702;0.34;-0.90;-0.54;0.35;0.21;0.63;-305.45;-209.41;157.00;1.10;73.99;21.27;-49.31 
5.732;0.33;-0.90;-0.54;0.42;0.07;0.35;-305.45;-204.63;155.00;1.10;74.09;21.26;-49.30 
5.762;0.30;-0.86;-0.54;0.28;-0.14;0.49;-304.45;-207.50;158.00;1.06;74.20;21.23;-49.30 
5.793;0.33;-0.92;-0.54;0.14;0.07;0.49;-304.45;-209.41;155.00;1.12;74.35;21.21;-49.25 
5.823;0.32;-0.90;-0.55;0.00;0.00;0.42;-305.45;-207.50;157.00;1.10;74.49;21.20;-49.22 
5.853;0.33;-0.89;-0.55;0.14;0.35;0.28;-306.44;-208.46;159.00;1.10;74.62;21.19;-49.19 
5.883;0.27;-0.94;-0.57;0.42;0.00;0.21;-306.44;-209.41;158.00;1.13;74.77;21.18;-49.14 
5.912;0.34;-0.92;-0.53;-0.07;0.07;0.00;-303.46;-206.55;158.00;1.11;74.90;21.19;-49.11 
5.942;0.33;-0.87;-0.55;-0.14;0.28;0.07;-303.46;-208.46;157.00;1.08;75.03;21.20;-49.07 
5.972;0.34;-0.91;-0.51;-0.21;0.28;-0.07;-302.46;-207.50;158.00;1.10;75.16;21.20;-49.04 
6.002;0.34;-0.91;-0.54;-0.42;0.14;-0.28;-306.44;-207.50;157.00;1.11;75.32;21.21;-48.99 
6.032;0.32;-0.89;-0.56;-0.35;0.14;0.07;-307.44;-205.59;159.00;1.10;75.45;21.23;-48.95 
6.062;0.33;-0.89;-0.54;-0.14;0.00;-0.07;-305.45;-208.46;158.00;1.09;75.58;21.24;-48.92 
6.093;0.34;-0.90;-0.52;-0.35;-0.14;-0.28;-305.45;-207.50;157.00;1.09;75.74;21.26;-48.87 
6.123;0.35;-0.90;-0.53;0.00;0.35;0.21;-303.46;-208.46;156.00;1.10;75.86;21.26;-48.84 
6.152;0.34;-0.90;-0.53;0.00;0.70;0.00;-303.46;-207.50;158.00;1.10;75.99;21.29;-48.81 
6.182;0.34;-0.90;-0.54;0.28;0.70;-0.28;-305.45;-210.37;156.00;1.10;76.12;21.29;-48.77 
6.212;0.34;-0.90;-0.52;0.21;0.56;0.21;-305.45;-210.37;158.00;1.09;76.24;21.31;-48.74 
6.242;0.32;-0.92;-0.53;-0.07;0.14;0.07;-303.46;-210.37;156.00;1.11;76.37;21.34;-48.70 
6.272;0.35;-0.90;-0.53;-0.14;0.63;-0.07;-304.45;-209.41;158.00;1.10;76.48;21.34;-48.68 
6.303;0.34;-0.89;-0.51;-0.14;0.35;-0.35;-305.45;-210.37;158.00;1.08;76.61;21.37;-48.65 
6.333;0.32;-0.90;-0.54;-0.49;-0.07;-0.28;-307.44;-206.55;158.00;1.10;76.76;21.37;-48.60 
6.362;0.32;-0.89;-0.52;-0.63;0.00;-0.14;-306.44;-208.46;157.00;1.08;76.90;21.38;-48.57 
6.392;0.34;-0.90;-0.55;-0.56;0.14;-0.21;-306.44;-210.37;156.00;1.11;77.04;21.38;-48.53 
6.422;0.32;-0.90;-0.57;-0.21;0.49;-0.21;-307.44;-206.55;156.00;1.11;77.17;21.40;-48.50 
6.452;0.32;-0.91;-0.56;-0.07;0.42;-0.07;-304.45;-210.37;159.00;1.12;77.30;21.41;-48.47 
6.482;0.33;-0.88;-0.52;0.00;0.49;0.14;-303.46;-206.55;159.00;1.07;77.43;21.42;-48.44 
6.512;0.34;-0.91;-0.52;-0.07;0.42;-0.35;-307.44;-208.46;156.00;1.10;77.56;21.43;-48.41 
6.542;0.32;-0.90;-0.52;-0.28;0.21;-0.14;-308.43;-206.55;159.00;1.09;77.69;21.43;-48.38 
6.572;0.34;-0.93;-0.56;-0.35;0.00;0.35;-303.46;-205.59;154.00;1.14;77.82;21.43;-48.35 
6.603;0.34;-0.90;-0.53;-0.21;0.07;-0.21;-301.47;-209.41;159.00;1.10;77.97;21.44;-48.32 
6.633;0.35;-0.91;-0.54;-0.21;0.28;-0.21;-300.47;-207.50;159.00;1.11;78.10;21.44;-48.29 
6.663;0.32;-0.90;-0.56;-0.07;0.14;0.07;-305.45;-206.55;157.00;1.11;78.22;21.45;-48.27 
6.693;0.34;-0.91;-0.54;-0.28;-0.07;-0.14;-304.45;-210.37;157.00;1.11;78.35;21.46;-48.25 
6.722;0.35;-0.91;-0.51;-0.28;0.14;0.21;-305.45;-208.46;157.00;1.10;78.48;21.47;-48.23 
6.752;0.34;-0.89;-0.51;-0.42;0.07;-0.21;-307.44;-208.46;159.00;1.08;78.61;21.47;-48.20 
6.782;0.34;-0.90;-0.53;-0.28;0.07;-0.14;-305.45;-207.50;157.00;1.10;78.75;21.49;-48.18 
6.812;0.34;-0.90;-0.53;-0.28;0.21;-0.14;-303.46;-209.41;157.00;1.10;78.88;21.49;-48.15 
6.842;0.34;-0.88;-0.55;-0.49;-0.14;0.14;-306.44;-209.41;158.00;1.09;79.03;21.51;-48.11 
6.872;0.32;-0.90;-0.54;-0.21;0.00;-0.28;-308.43;-209.41;160.00;1.10;79.16;21.52;-48.09 
6.903;0.32;-0.92;-0.51;-0.49;0.07;-0.28;-306.44;-206.55;159.00;1.10;79.31;21.53;-48.05 
6.932;0.34;-0.90;-0.53;-0.35;-0.14;0.14;-306.44;-207.50;159.00;1.10;79.45;21.54;-48.02 
6.962;0.34;-0.89;-0.54;-0.63;-0.42;0.00;-306.44;-207.50;159.00;1.10;79.58;21.54;-48.00 
6.992;0.33;-0.90;-0.53;-0.70;0.07;0.00;-303.46;-206.55;157.00;1.10;79.72;21.53;-47.98 
7.022;0.34;-0.89;-0.57;-0.49;0.21;-0.14;-302.46;-206.55;162.00;1.11;79.87;21.54;-47.94 
7.052;0.34;-0.93;-0.51;0.00;0.07;-0.14;-303.46;-208.46;160.00;1.11;79.99;21.57;-47.93 
7.082;0.32;-0.89;-0.52;0.21;0.28;0.28;-305.45;-205.59;155.00;1.08;80.11;21.59;-47.91 
7.113;0.32;-0.90;-0.52;-0.07;0.49;0.14;-301.47;-208.46;158.00;1.09;80.26;21.60;-47.89 
7.142;0.34;-0.87;-0.53;0.00;0.14;0.00;-306.44;-207.50;158.00;1.07;80.39;21.60;-47.87 
7.172;0.30;-0.90;-0.53;-0.14;0.42;-0.21;-304.45;-208.46;156.00;1.09;80.49;21.61;-47.88 
7.203;0.35;-0.90;-0.51;0.14;0.14;0.42;-305.45;-210.37;160.00;1.09;80.62;21.62;-47.86 
7.233;0.34;-0.89;-0.53;-0.28;0.00;0.07;-307.44;-211.33;156.00;1.09;80.77;21.63;-47.83 
7.263;0.34;-0.90;-0.55;0.14;0.14;0.28;-304.45;-209.41;159.00;1.11;80.90;21.66;-47.81 
7.292;0.34;-0.90;-0.55;-0.14;0.00;0.28;-305.45;-207.50;160.00;1.11;81.03;21.67;-47.79 
7.322;0.34;-0.90;-0.56;-0.21;0.21;-0.14;-304.45;-210.37;161.00;1.11;81.16;21.68;-47.77 
7.352;0.34;-0.90;-0.54;-0.14;0.28;-0.14;-304.45;-207.50;162.00;1.10;81.29;21.69;-47.76 
7.382;0.33;-0.90;-0.50;-0.42;0.14;-0.63;-304.45;-207.50;159.00;1.08;81.42;21.70;-47.74 
7.413;0.33;-0.90;-0.53;-0.21;0.42;-0.14;-306.44;-208.46;156.00;1.10;81.56;21.70;-47.72 
7.443;0.33;-0.90;-0.52;-0.07;0.07;0.21;-302.46;-206.55;154.00;1.09;81.70;21.71;-47.71 
7.473;0.31;-0.90;-0.54;-0.28;0.07;-0.14;-305.45;-210.37;159.00;1.09;81.84;21.72;-47.69 
7.504;0.34;-0.89;-0.50;2.09;0.70;0.35;-305.45;-207.50;159.00;1.08;82.10;21.69;-47.66 
7.534;0.34;-0.90;-0.54;-0.07;0.28;-1.04;-306.44;-204.63;157.00;1.10;82.21;21.70;-47.68 
7.564;0.34;-0.90;-0.54;-0.70;-0.14;-0.07;-303.46;-210.37;161.00;1.10;82.34;21.71;-47.66 
7.594;0.34;-0.90;-0.52;-1.11;-0.21;-0.07;-304.45;-205.59;155.00;1.09;82.48;21.72;-47.64 
7.625;0.31;-0.89;-0.54;-1.04;-0.28;-0.28;-302.46;-210.37;156.00;1.09;82.63;21.73;-47.61 
7.655;0.32;-0.90;-0.51;-0.90;0.21;-0.83;-305.45;-206.55;158.00;1.08;82.80;21.74;-47.57 
7.685;0.34;-0.90;-0.55;-0.28;0.49;-0.21;-305.45;-209.41;158.00;1.11;82.97;21.76;-47.52 
7.715;0.34;-0.91;-0.54;-0.28;0.49;-0.42;-308.43;-210.37;158.00;1.11;83.09;21.78;-47.51 
7.744;0.34;-0.89;-0.52;-0.35;0.56;-0.77;-304.45;-210.37;158.00;1.09;83.23;21.81;-47.48 
7.774;0.32;-0.91;-0.53;-0.63;0.28;-0.56;-301.47;-208.46;158.00;1.10;83.36;21.85;-47.46 
7.804;0.34;-0.89;-0.57;-0.63;0.35;-1.04;-306.44;-207.50;157.00;1.11;83.50;21.89;-47.43 
7.834;0.35;-0.90;-0.53;-0.49;0.28;-0.90;-304.45;-209.41;162.00;1.10;83.66;21.92;-47.39 
7.864;0.34;-0.88;-0.54;-0.77;-0.07;-0.49;-307.44;-207.50;160.00;1.09;83.81;21.92;-47.35 
7.894;0.32;-0.87;-0.53;-0.49;0.21;0.21;-302.46;-210.37;160.00;1.07;83.95;21.93;-47.33 
7.925;0.36;-0.91;-0.52;-0.28;-0.07;-0.28;-307.44;-209.41;160.00;1.11;84.07;21.95;-47.33 
7.955;0.36;-0.93;-0.53;-0.28;0.07;-0.21;-304.45;-208.46;158.00;1.13;84.20;21.97;-47.33 
7.985;0.34;-0.91;-0.53;-0.28;0.28;0.21;-306.44;-209.41;155.00;1.11;84.31;21.97;-47.32 
8.016;0.32;-0.89;-0.52;-0.14;0.07;-0.14;-305.45;-212.28;161.00;1.08;84.44;21.97;-47.32 
8.046;0.34;-0.90;-0.51;0.07;0.35;0.14;-305.45;-209.41;161.00;1.09;84.59;21.97;-47.31 
8.076;0.34;-0.91;-0.55;-0.21;0.00;0.07;-306.44;-210.37;160.00;1.12;84.71;21.99;-47.30 
8.106;0.34;-0.88;-0.57;-0.21;0.14;-0.14;-302.46;-208.46;158.00;1.10;84.83;22.00;-47.29 
8.137;0.34;-0.89;-0.53;-0.21;0.21;0.21;-304.45;-208.46;160.00;1.09;84.96;22.01;-47.29 
8.167;0.35;-0.90;-0.54;0.07;0.42;0.00;-302.46;-208.46;163.00;1.11;85.09;22.02;-47.29 
8.197;0.32;-0.90;-0.54;-0.14;0.35;0.00;-307.44;-209.41;160.00;1.10;85.22;22.03;-47.30 
8.228;0.33;-0.87;-0.55;0.07;-0.28;0.35;-303.46;-209.41;156.00;1.08;85.33;22.05;-47.29 
8.257;0.34;-0.90;-0.53;-0.28;-0.21;-0.07;-304.45;-210.37;159.00;1.10;85.47;22.06;-47.29 
8.287;0.32;-0.89;-0.50;-0.28;-0.21;0.28;-303.46;-208.46;157.00;1.07;85.62;22.06;-47.28 
8.317;0.33;-0.90;-0.51;0.00;-0.07;0.14;-304.45;-208.46;159.00;1.09;85.75;22.07;-47.28 
8.347;0.33;-0.90;-0.55;-0.21;0.42;0.07;-305.45;-212.28;160.00;1.11;85.88;22.06;-47.28 
8.377;0.33;-0.88;-0.55;0.14;0.28;0.28;-302.46;-211.33;158.00;1.09;86.00;22.06;-47.29 
8.407;0.33;-0.88;-0.54;-0.14;0.21;0.28;-302.46;-210.37;158.00;1.08;86.12;22.08;-47.29 
8.437;0.33;-0.90;-0.54;-0.07;0.07;0.42;-304.45;-207.50;158.00;1.10;86.23;22.09;-47.31 
8.467;0.34;-0.90;-0.56;0.14;0.21;0.42;-306.44;-209.41;158.00;1.11;86.35;22.10;-47.32 
8.497;0.34;-0.91;-0.55;-0.28;-0.28;0.07;-306.44;-208.46;156.00;1.12;86.47;22.09;-47.33 
8.528;0.34;-0.90;-0.54;-0.28;-0.14;0.63;-306.44;-210.37;160.00;1.10;86.61;22.10;-47.32 
8.558;0.34;-0.89;-0.50;-0.14;0.07;0.21;-304.45;-208.46;156.00;1.08;86.75;22.09;-47.32 
8.588;0.32;-0.89;-0.52;-0.07;0.28;0.14;-305.45;-208.46;158.00;1.08;86.87;22.09;-47.33 
8.618;0.35;-0.92;-0.52;-0.07;0.21;0.00;-307.44;-206.55;158.00;1.11;87.01;22.09;-47.32 
8.649;0.34;-0.90;-0.52;-0.21;0.35;-0.07;-304.45;-206.55;157.00;1.09;87.13;22.13;-47.33 
8.679;0.34;-0.90;-0.55;-0.28;0.28;-0.14;-305.45;-211.33;157.00;1.11;87.26;22.14;-47.33 
8.709;0.35;-0.91;-0.53;-0.21;-0.14;-0.21;-305.45;-207.50;159.00;1.11;87.40;22.16;-47.32 
8.740;0.35;-0.92;-0.58;-0.49;0.00;0.07;-306.44;-209.41;158.00;1.14;87.53;22.18;-47.31 
8.770;0.35;-0.90;-0.56;-0.28;-0.07;-0.14;-307.44;-208.46;159.00;1.12;87.66;22.19;-47.31 
8.799;0.34;-0.91;-0.52;-0.35;0.00;-0.35;-304.45;-207.50;158.00;1.10;87.81;22.20;-47.29 
8.829;0.31;-0.90;-0.53;-0.07;-0.07;0.14;-309.43;-211.33;159.00;1.09;87.95;22.21;-47.29 
8.859;0.34;-0.90;-0.54;0.07;0.97;-0.21;-306.44;-212.28;158.00;1.10;88.07;22.23;-47.29 
8.889;0.34;-0.90;-0.54;-0.14;0.70;-0.49;-304.45;-210.37;161.00;1.10;88.20;22.26;-47.29 
8.919;0.35;-0.90;-0.53;-0.49;0.56;-0.28;-307.44;-209.41;158.00;1.10;88.34;22.27;-47.27 
8.950;0.33;-0.90;-0.51;-0.63;0.21;-0.42;-303.46;-210.37;162.00;1.09;88.48;22.30;-47.25 
8.980;0.33;-0.88;-0.55;-0.42;0.21;-0.49;-305.45;-211.33;157.00;1.09;88.63;22.32;-47.23 
9.010;0.33;-0.89;-0.54;-0.70;0.42;-0.83;-306.44;-209.41;160.00;1.09;88.78;22.35;-47.21 
9.040;0.36;-0.90;-0.52;-0.56;0.35;-0.49;-304.45;-210.37;162.00;1.10;88.92;22.37;-47.20 
9.070;0.35;-0.90;-0.50;-0.70;0.42;-0.90;-305.45;-211.33;161.00;1.09;89.09;22.38;-47.16 
9.100;0.34;-0.89;-0.52;-0.77;-0.07;-0.63;-304.45;-213.24;160.00;1.09;89.24;22.40;-47.14 
9.130;0.34;-0.88;-0.52;-0.83;-0.14;-0.35;-304.45;-211.33;162.00;1.08;89.39;22.41;-47.12 
9.159;0.34;-0.90;-0.54;-0.83;0.00;-0.56;-305.45;-209.41;161.00;1.10;89.55;22.44;-47.09 
9.189;0.33;-0.90;-0.50;-0.70;-0.14;-0.21;-305.45;-212.28;161.00;1.08;89.69;22.46;-47.08 
9.219;0.32;-0.92;-0.50;-0.90;-0.42;-0.07;-302.46;-211.33;159.00;1.09;89.84;22.46;-47.06 
9.250;0.34;-0.90;-0.54;-0.77;-0.07;-0.35;-302.46;-209.41;158.00;1.10;90.02;22.46;-47.04 
9.280;0.35;-0.91;-0.51;-0.63;-0.07;-0.35;-303.46;-208.46;158.00;1.10;90.18;22.49;-47.02 
9.310;0.34;-0.89;-0.53;-0.56;0.00;0.07;-305.45;-213.24;161.00;1.09;90.32;22.50;-47.03 
9.340;0.36;-0.90;-0.56;-0.28;0.07;-0.07;-304.45;-210.37;160.00;1.12;90.47;22.51;-47.01 
9.370;0.34;-0.90;-0.53;-0.28;0.14;0.00;-303.46;-208.46;160.00;1.10;90.62;22.50;-47.01 
9.400;0.33;-0.88;-0.53;-0.21;0.35;0.14;-304.45;-208.46;161.00;1.08;90.74;22.51;-47.03 
9.430;0.34;-0.90;-0.56;-0.21;0.42;-0.56;-306.44;-212.28;159.00;1.11;90.87;22.51;-47.03 
9.460;0.36;-0.91;-0.54;-0.42;0.42;-0.35;-306.44;-209.41;163.00;1.12;91.01;22.53;-47.01 
9.490;0.33;-0.90;-0.53;-0.42;0.42;-0.07;-303.46;-209.41;160.00;1.10;91.15;22.53;-47.02 
9.520;0.35;-0.90;-0.55;-0.28;0.28;-0.07;-302.46;-211.33;163.00;1.11;91.29;22.54;-47.02 
9.551;0.34;-0.93;-0.50;-0.21;0.28;0.00;-308.43;-211.33;161.00;1.11;91.44;22.55;-47.00 
9.581;0.32;-0.88;-0.54;-0.42;0.07;0.21;-306.44;-210.37;162.00;1.08;91.57;22.55;-47.02 
9.611;0.34;-0.89;-0.54;-0.56;-0.42;0.07;-305.45;-211.33;156.00;1.10;91.70;22.55;-47.03 
9.641;0.35;-0.88;-0.54;-0.49;-0.35;0.00;-305.45;-208.46;162.00;1.09;91.84;22.56;-47.04 
9.670;0.34;-0.88;-0.58;-0.35;-0.21;0.07;-302.46;-212.28;161.00;1.11;91.99;22.56;-47.05 
9.699;0.34;-0.89;-0.54;-0.14;0.21;-0.07;-304.45;-209.41;162.00;1.10;92.12;22.55;-47.06 
9.729;0.32;-0.90;-0.52;0.28;0.14;0.28;-305.45;-209.41;160.00;1.09;92.27;22.55;-47.07 
9.760;0.34;-0.90;-0.54;0.42;0.63;0.14;-306.44;-213.24;161.00;1.10;92.40;22.55;-47.09 
9.790;0.34;-0.89;-0.52;0.35;0.35;0.14;-306.44;-210.37;161.00;1.09;92.53;22.56;-47.11 
9.820;0.37;-0.90;-0.53;0.42;0.35;0.28;-302.46;-210.37;160.00;1.11;92.65;22.56;-47.14 
9.851;0.35;-0.89;-0.54;0.14;0.35;0.00;-307.44;-209.41;161.00;1.10;92.78;22.55;-47.16 
9.881;0.34;-0.92;-0.57;-0.07;0.14;0.07;-302.46;-209.41;159.00;1.13;92.91;22.58;-47.16 
9.911;0.34;-0.90;-0.56;-0.28;0.07;0.28;-305.45;-210.37;160.00;1.11;93.05;22.58;-47.18 
9.940;0.34;-0.89;-0.52;-0.28;-0.21;-0.28;-303.46;-212.28;162.00;1.09;93.19;22.58;-47.19 
9.970;0.34;-0.88;-0.55;-0.14;-0.21;0.14;-303.46;-209.41;158.00;1.09;93.35;22.58;-47.19 
10.000;0.37;-0.90;-0.53;-0.14;0.49;0.14;-307.44;-208.46;160.00;1.11;93.50;22.58;-47.20 
10.030;0.35;-0.90;-0.54;0.14;0.00;-0.07;-302.46;-210.37;159.00;1.11;93.63;22.59;-47.21 
10.061;0.36;-0.90;-0.53;0.21;0.28;0.56;-305.45;-211.33;161.00;1.10;93.77;22.60;-47.22 
10.091;0.32;-0.93;-0.52;0.42;0.28;0.14;-305.45;-209.41;159.00;1.11;93.90;22.61;-47.25 
10.121;0.34;-0.90;-0.53;0.14;0.28;0.14;-304.45;-210.37;163.00;1.10;94.03;22.62;-47.27 
10.150;0.33;-0.88;-0.55;0.00;-0.07;0.28;-303.46;-213.24;159.00;1.09;94.16;22.62;-47.30 
10.180;0.33;-0.90;-0.54;0.00;0.21;0.14;-304.45;-208.46;162.00;1.10;94.28;22.62;-47.33 
10.210;0.34;-0.90;-0.55;0.00;0.07;0.07;-305.45;-210.37;160.00;1.11;94.42;22.61;-47.35 
10.240;0.34;-0.90;-0.54;-0.21;0.21;-0.35;-302.46;-211.33;161.00;1.10;94.55;22.61;-47.35 
10.271;0.34;-0.91;-0.54;0.07;0.14;0.00;-307.44;-210.37;161.00;1.11;94.70;22.62;-47.36 
10.300;0.33;-0.89;-0.52;-0.14;0.14;0.00;-305.45;-210.37;159.00;1.08;94.84;22.63;-47.39 
10.329;0.34;-0.90;-0.58;-0.49;0.21;-0.21;-304.45;-210.37;159.00;1.12;94.99;22.62;-47.38 
10.360;0.34;-0.90;-0.54;0.07;-0.14;-0.21;-304.45;-208.46;161.00;1.10;95.15;22.63;-47.40 
10.390;0.34;-0.90;-0.52;-0.35;0.21;-0.14;-306.44;-211.33;157.00;1.09;95.30;22.66;-47.40 
10.420;0.34;-0.88;-0.52;-0.28;0.35;-0.21;-307.44;-211.33;161.00;1.08;95.44;22.68;-47.41 
10.450;0.34;-0.90;-0.57;0.00;0.35;-0.35;-303.46;-212.28;161.00;1.12;95.58;22.69;-47.41 
10.480;0.34;-0.90;-0.53;-0.35;0.42;-0.28;-303.46;-208.46;160.00;1.10;95.74;22.72;-47.41 
10.510;0.30;-0.86;-0.54;-0.42;0.35;-0.56;-304.45;-210.37;158.00;1.06;95.90;22.72;-47.42 
10.540;0.34;-0.90;-0.52;-0.42;0.14;-0.56;-303.46;-210.37;161.00;1.09;96.05;22.74;-47.41 
10.571;0.31;-0.90;-0.53;-0.56;0.28;-0.35;-306.44;-211.33;162.00;1.09;96.21;22.75;-47.41 
10.601;0.33;-0.90;-0.53;-0.56;0.00;-0.70;-307.44;-211.33;164.00;1.10;96.38;22.76;-47.40 
10.631;0.34;-0.89;-0.52;-0.42;0.14;0.28;-306.44;-210.37;159.00;1.09;96.55;22.76;-47.39 
10.661;0.34;-0.90;-0.56;0.00;0.21;0.00;-304.45;-210.37;160.00;1.11;96.69;22.77;-47.41 
10.691;0.34;-0.89;-0.55;0.14;0.21;0.07;-304.45;-211.33;162.00;1.10;96.84;22.79;-47.42 
10.721;0.34;-0.88;-0.54;0.42;0.56;0.07;-305.45;-209.41;159.00;1.09;96.98;22.79;-47.43 
10.751;0.34;-0.87;-0.51;0.00;0.14;0.28;-302.46;-213.24;162.00;1.06;97.11;22.80;-47.44 
10.780;0.33;-0.88;-0.55;0.42;-0.07;0.70;-305.45;-210.37;160.00;1.09;97.26;22.78;-47.46 
10.809;0.34;-0.90;-0.53;0.63;-0.07;0.97;-306.44;-209.41;163.00;1.10;97.39;22.77;-47.50 
10.839;0.38;-0.94;-0.54;1.74;2.43;0.63;-304.45;-211.33;162.00;1.15;97.52;22.76;-47.55 
10.870;0.45;-0.77;-0.66;10.71;-0.63;2.50;-307.44;-209.41;158.00;1.11;98.08;22.71;-48.03 
10.900;0.28;-0.88;-0.55;-1.74;-0.28;0.49;-306.44;-209.41;158.00;1.07;98.36;22.67;-48.14 
10.930;0.35;-0.90;-0.51;1.18;-0.28;1.18;-309.43;-207.50;156.00;1.09;98.50;22.68;-48.18 
10.960;0.34;-0.89;-0.54;0.42;-0.21;0.63;-305.45;-209.41;159.00;1.10;98.66;22.64;-48.21 
10.990;0.34;-0.94;-0.51;-0.35;0.35;-0.63;-305.45;-206.55;156.00;1.12;98.83;22.63;-48.22 
11.020;0.32;-0.90;-0.51;-0.70;0.49;-1.25;-305.45;-209.41;161.00;1.08;99.01;22.67;-48.19 
11.050;0.32;-0.89;-0.56;-1.32;0.83;-2.30;-305.45;-209.41;155.00;1.10;99.19;22.71;-48.16 
11.081;0.34;-0.90;-0.51;-1.74;0.90;-2.43;-306.44;-209.41;158.00;1.09;99.38;22.79;-48.09 
11.110;0.34;-0.91;-0.54;-1.53;0.90;-2.78;-306.44;-210.37;159.00;1.11;99.59;22.87;-48.02 
11.139;0.34;-0.90;-0.54;-1.46;0.70;-2.50;-306.44;-212.28;162.00;1.10;99.79;22.95;-47.92 
11.169;0.35;-0.91;-0.51;-1.04;0.77;-1.67;-311.42;-209.41;160.00;1.10;99.99;23.01;-47.85 
11.199;0.33;-0.91;-0.54;-1.18;0.21;-0.97;-309.43;-209.41;157.00;1.11;100.19;23.06;-47.82 
11.229;0.34;-0.90;-0.54;-0.97;0.28;-0.83;-307.44;-211.33;160.00;1.10;100.37;23.08;-47.79 
11.259;0.33;-0.88;-0.53;-1.18;0.14;-0.77;-306.44;-211.33;159.00;1.08;100.56;23.10;-47.76 
11.289;0.35;-0.88;-0.54;-0.56;0.28;-0.35;-307.44;-211.33;158.00;1.09;100.75;23.11;-47.72 
11.319;0.34;-0.90;-0.56;-0.42;-0.14;-0.42;-305.45;-210.37;160.00;1.11;100.93;23.12;-47.71 
11.349;0.34;-0.90;-0.53;-0.35;-0.14;0.07;-305.45;-214.20;160.00;1.10;101.12;23.13;-47.69 
11.380;0.34;-0.91;-0.57;0.21;0.21;0.90;-308.43;-211.33;156.00;1.13;101.28;23.13;-47.70 
11.410;0.33;-0.87;-0.54;0.70;0.07;1.32;-306.44;-212.28;161.00;1.08;101.44;23.10;-47.74 
11.440;0.34;-0.88;-0.53;0.90;0.07;1.32;-306.44;-213.24;159.00;1.08;101.58;23.08;-47.79 
11.471;0.35;-0.90;-0.55;0.83;0.14;1.60;-306.44;-210.37;158.00;1.11;101.74;23.02;-47.84 
11.501;0.34;-0.90;-0.55;0.70;-0.21;1.32;-303.46;-213.24;160.00;1.11;101.87;22.98;-47.91 
11.531;0.33;-0.88;-0.56;0.35;-0.28;0.83;-306.44;-212.28;157.00;1.09;102.02;22.95;-47.96 
11.561;0.34;-0.89;-0.55;0.07;-0.21;0.56;-305.45;-212.28;157.00;1.10;102.19;22.90;-47.99 
11.591;0.34;-0.90;-0.55;-0.07;-0.14;0.35;-304.45;-210.37;159.00;1.11;102.36;22.87;-48.03 
11.620;0.34;-0.91;-0.56;-0.42;0.07;0.07;-305.45;-211.33;159.00;1.12;102.52;22.87;-48.04 
11.650;0.34;-0.89;-0.54;0.00;0.35;-0.35;-306.44;-214.20;160.00;1.10;102.69;22.87;-48.05 
11.681;0.34;-0.90;-0.52;-0.42;0.42;-0.35;-305.45;-211.33;155.00;1.09;102.86;22.88;-48.04 
11.711;0.33;-0.90;-0.53;-0.35;0.56;-0.70;-303.46;-209.41;158.00;1.10;103.04;22.90;-48.02 
11.741;0.35;-0.91;-0.56;-0.35;0.14;-0.42;-302.46;-213.24;159.00;1.12;103.22;22.93;-48.02 
11.771;0.36;-0.90;-0.54;0.14;0.49;-0.14;-306.44;-210.37;157.00;1.11;103.40;22.93;-48.01 
11.801;0.35;-0.88;-0.52;0.14;0.56;0.07;-304.45;-210.37;160.00;1.08;103.57;22.93;-48.02 
11.831;0.35;-0.90;-0.54;0.42;0.35;0.14;-308.43;-214.20;156.00;1.11;103.74;22.94;-48.04 
11.861;0.34;-0.91;-0.53;0.49;0.07;0.49;-308.43;-209.41;160.00;1.11;103.90;22.94;-48.06 
11.892;0.34;-0.88;-0.54;-0.14;-0.28;0.70;-305.45;-208.46;161.00;1.09;104.07;22.92;-48.10 
11.922;0.32;-0.86;-0.54;-0.07;-0.21;0.56;-308.43;-210.37;160.00;1.06;104.24;22.91;-48.10 
11.952;0.34;-0.88;-0.54;-0.28;-0.42;0.35;-307.44;-206.55;161.00;1.09;104.41;22.89;-48.12 
11.983;0.33;-0.90;-0.54;-0.42;-0.14;0.00;-304.45;-210.37;160.00;1.10;104.60;22.86;-48.13 
12.012;0.34;-0.91;-0.53;0.14;0.21;0.07;-304.45;-214.20;159.00;1.11;104.80;22.85;-48.15 
12.042;0.34;-0.91;-0.51;0.00;0.49;0.21;-304.45;-212.28;156.00;1.10;104.98;22.86;-48.15 
12.072;0.35;-0.90;-0.54;0.21;0.49;0.21;-305.45;-209.41;157.00;1.11;105.14;22.86;-48.16 
12.102;0.33;-0.89;-0.53;0.35;0.28;0.00;-304.45;-212.28;159.00;1.09;105.31;22.86;-48.17 
12.132;0.34;-0.88;-0.53;0.07;0.21;-0.14;-304.45;-209.41;159.00;1.08;105.47;22.88;-48.21 
12.162;0.35;-0.90;-0.55;-0.28;0.07;-0.28;-306.44;-211.33;158.00;1.11;105.65;22.89;-48.21 
12.193;0.32;-0.88;-0.52;-0.42;0.28;-0.35;-305.45;-208.46;158.00;1.07;105.84;22.90;-48.21 
12.223;0.38;-0.88;-0.50;-0.70;0.00;-0.42;-305.45;-210.37;156.00;1.08;106.03;22.90;-48.20 
12.253;0.34;-0.87;-0.54;-0.49;0.00;-0.21;-304.45;-211.33;157.00;1.08;106.20;22.90;-48.21 
12.282;0.37;-0.89;-0.54;-0.14;0.21;-0.42;-305.45;-213.24;157.00;1.10;106.38;22.91;-48.19 
12.311;0.31;-0.91;-0.54;-0.42;0.35;-0.42;-306.44;-209.41;159.00;1.10;106.56;22.93;-48.20 
12.341;0.35;-0.90;-0.54;0.35;0.49;0.42;-306.44;-212.28;160.00;1.11;106.72;22.94;-48.22 
12.371;0.34;-0.90;-0.53;0.56;0.35;0.28;-305.45;-210.37;159.00;1.10;106.87;22.95;-48.25 
12.401;0.34;-0.89;-0.54;0.63;0.35;0.56;-306.44;-212.28;159.00;1.10;107.04;22.94;-48.29 
12.431;0.37;-0.90;-0.56;0.42;0.07;0.63;-305.45;-211.33;159.00;1.12;107.20;22.93;-48.32 
12.461;0.34;-0.90;-0.52;0.35;0.00;0.83;-308.43;-212.28;159.00;1.09;107.36;22.91;-48.35 
12.492;0.29;-0.89;-0.54;-0.14;-0.42;0.90;-303.46;-211.33;158.00;1.08;107.54;22.89;-48.39 
12.522;0.34;-0.90;-0.54;0.42;0.56;0.70;-303.46;-208.46;158.00;1.10;107.71;22.86;-48.41 
12.552;0.34;-0.90;-0.54;1.18;1.32;0.42;-306.44;-209.41;156.00;1.10;107.85;22.86;-48.45 
12.582;0.35;-0.90;-0.54;0.49;0.90;-0.14;-306.44;-212.28;159.00;1.11;108.00;22.88;-48.47 
12.612;0.34;-0.90;-0.54;-0.07;0.42;0.28;-308.43;-210.37;159.00;1.10;108.17;22.87;-48.49 
12.642;0.31;-0.90;-0.51;0.42;-0.21;1.18;-306.44;-210.37;156.00;1.08;108.33;22.85;-48.51 
12.671;0.34;-0.91;-0.52;0.00;-0.35;0.97;-310.42;-211.33;157.00;1.10;108.51;22.81;-48.55 
12.702;0.34;-0.89;-0.54;0.21;-0.14;0.83;-304.45;-212.28;160.00;1.10;108.70;22.79;-48.55 
12.732;0.33;-0.90;-0.54;0.14;-0.21;0.70;-309.43;-210.37;154.00;1.10;108.88;22.76;-48.60 
12.762;0.34;-0.88;-0.55;-0.28;0.00;0.28;-305.45;-207.50;158.00;1.09;109.06;22.73;-48.61 
12.793;0.33;-0.87;-0.53;-0.21;0.14;0.21;-306.44;-209.41;156.00;1.07;109.24;22.73;-48.62 
12.823;0.34;-0.88;-0.54;-0.28;0.07;0.28;-305.45;-209.41;155.00;1.09;109.43;22.70;-48.64 
12.853;0.32;-0.90;-0.52;-0.35;0.07;-0.28;-308.43;-208.46;156.00;1.09;109.62;22.70;-48.65 
12.883;0.32;-0.90;-0.51;-0.28;0.28;0.21;-305.45;-209.41;154.00;1.08;109.81;22.68;-48.67 
12.912;0.36;-0.88;-0.54;-0.35;0.42;-0.14;-305.45;-208.46;155.00;1.09;109.99;22.70;-48.68 
12.942;0.34;-0.89;-0.53;-0.28;0.21;-0.07;-306.44;-210.37;157.00;1.09;110.18;22.69;-48.67 
12.972;0.32;-0.91;-0.55;-0.28;0.42;-0.35;-308.43;-208.46;157.00;1.11;110.37;22.68;-48.68 
13.003;0.33;-0.88;-0.54;-0.49;0.07;-0.49;-307.44;-210.37;160.00;1.08;110.56;22.69;-48.67 
13.033;0.34;-0.88;-0.52;-0.42;0.35;-0.42;-305.45;-210.37;159.00;1.08;110.76;22.71;-48.65 
13.063;0.34;-0.90;-0.53;-0.28;0.28;-0.49;-309.43;-210.37;157.00;1.10;110.96;22.70;-48.65 
13.093;0.35;-0.91;-0.54;-0.35;-0.07;-0.28;-305.45;-209.41;159.00;1.11;111.16;22.72;-48.64 
13.123;0.31;-0.88;-0.54;-0.14;-0.07;-0.49;-308.43;-208.46;156.00;1.08;111.36;22.71;-48.64 
13.153;0.34;-0.90;-0.52;-0.21;0.07;-0.14;-306.44;-210.37;161.00;1.09;111.56;22.71;-48.64 
13.183;0.34;-0.90;-0.53;0.00;-0.07;0.56;-307.44;-209.41;156.00;1.10;111.75;22.69;-48.66 
13.214;0.34;-0.89;-0.51;0.14;0.07;0.28;-312.41;-209.41;158.00;1.08;111.95;22.67;-48.68 
13.243;0.34;-0.90;-0.53;-0.21;-0.07;0.42;-307.44;-208.46;157.00;1.10;112.15;22.68;-48.68 
13.273;0.33;-0.90;-0.52;0.00;-0.49;0.77;-307.44;-209.41;158.00;1.09;112.34;22.66;-48.71 
13.304;0.34;-0.90;-0.55;-0.49;0.07;0.21;-304.45;-207.50;155.00;1.11;112.56;22.63;-48.71 
13.334;0.34;-0.87;-0.51;-0.28;-0.14;0.00;-308.43;-207.50;156.00;1.06;112.76;22.62;-48.72 
13.364;0.32;-0.90;-0.54;-0.21;0.21;-0.21;-302.46;-209.41;156.00;1.10;112.95;22.63;-48.71 
13.394;0.34;-0.90;-0.54;-0.14;0.28;-0.28;-307.44;-211.33;155.00;1.10;113.16;22.64;-48.72 
13.424;0.33;-0.87;-0.51;-0.14;0.28;0.00;-307.44;-211.33;160.00;1.06;113.36;22.65;-48.73 
13.453;0.31;-0.90;-0.53;-0.07;0.35;-0.28;-306.44;-212.28;158.00;1.09;113.54;22.66;-48.74 
13.483;0.32;-0.90;-0.54;-0.28;0.00;0.00;-308.43;-211.33;156.00;1.10;113.72;22.67;-48.75 
13.514;0.32;-0.90;-0.51;-0.14;0.14;0.00;-305.45;-210.37;158.00;1.08;113.92;22.65;-48.76 
13.544;0.32;-0.90;-0.52;-0.35;-0.14;0.07;-304.45;-212.28;157.00;1.09;114.13;22.65;-48.77 
13.574;0.36;-0.91;-0.54;-0.28;-0.07;-0.14;-307.44;-210.37;156.00;1.12;114.33;22.64;-48.78 
13.604;0.35;-0.90;-0.54;0.00;0.21;0.00;-304.45;-209.41;156.00;1.11;114.53;22.63;-48.79 
13.634;0.34;-0.90;-0.51;-0.28;0.14;0.21;-303.46;-210.37;157.00;1.09;114.72;22.62;-48.80 
13.664;0.34;-0.90;-0.54;-0.07;0.14;0.21;-303.46;-208.46;158.00;1.10;114.92;22.63;-48.81 
13.694;0.34;-0.89;-0.53;0.21;0.42;0.21;-305.45;-208.46;154.00;1.09;115.10;22.63;-48.83 
13.724;0.33;-0.91;-0.51;0.49;0.28;0.70;-307.44;-210.37;158.00;1.09;115.29;22.61;-48.85 
13.754;0.34;-0.91;-0.54;0.35;-0.28;0.56;-307.44;-207.50;154.00;1.11;115.48;22.59;-48.88 
13.784;0.33;-0.90;-0.52;0.21;-0.42;1.18;-306.44;-209.41;154.00;1.09;115.68;22.54;-48.91 
13.815;0.34;-0.90;-0.54;0.49;0.21;1.32;-308.43;-208.46;158.00;1.10;115.87;22.51;-48.95 
13.845;0.30;-0.93;-0.54;1.81;0.56;1.74;-305.45;-210.37;157.00;1.12;116.11;22.50;-49.03 
13.874;0.35;-0.91;-0.54;0.49;0.00;1.04;-303.46;-204.63;156.00;1.11;116.29;22.48;-49.10 
13.903;0.34;-0.91;-0.51;0.63;0.07;1.25;-307.44;-207.50;156.00;1.10;116.47;22.45;-49.15 
13.932;0.32;-0.89;-0.52;0.90;0.14;1.32;-305.45;-205.59;153.00;1.08;116.65;22.41;-49.20 
13.962;0.34;-0.90;-0.53;0.70;0.00;1.11;-306.44;-206.55;157.00;1.10;116.84;22.38;-49.26 
13.992;0.33;-0.90;-0.54;0.70;0.07;1.04;-309.43;-206.55;157.00;1.10;117.03;22.36;-49.30 
14.022;0.33;-0.91;-0.54;0.42;0.00;1.25;-304.45;-208.46;157.00;1.11;117.22;22.34;-49.33 
14.052;0.33;-0.90;-0.54;0.35;-0.07;1.04;-306.44;-205.59;155.00;1.10;117.41;22.32;-49.38 
14.082;0.32;-0.90;-0.54;-0.07;0.00;0.56;-305.45;-206.55;155.00;1.10;117.60;22.29;-49.41 
14.113;0.34;-0.94;-0.54;0.07;-0.28;0.63;-308.43;-207.50;156.00;1.14;117.80;22.26;-49.43 
14.143;0.32;-0.90;-0.53;-0.35;0.00;0.21;-305.45;-207.50;157.00;1.09;118.01;22.24;-49.45 
14.173;0.32;-0.91;-0.52;-0.28;-0.14;0.21;-304.45;-207.50;156.00;1.10;118.21;22.23;-49.45 
14.203;0.32;-0.90;-0.51;-0.07;-0.14;0.21;-302.46;-204.63;157.00;1.08;118.42;22.20;-49.45 
14.232;0.33;-0.90;-0.54;-0.42;-0.21;0.21;-305.45;-204.63;152.00;1.10;118.64;22.20;-49.46 
14.261;0.32;-0.89;-0.52;-0.21;0.00;-0.07;-306.44;-203.68;154.00;1.08;118.84;22.18;-49.46 
14.291;0.33;-0.90;-0.50;-0.14;0.21;0.00;-303.46;-206.55;158.00;1.08;119.05;22.18;-49.45 
14.321;0.34;-0.91;-0.54;-0.07;0.42;-0.14;-305.45;-209.41;155.00;1.11;119.25;22.18;-49.46 
14.351;0.34;-0.90;-0.54;-0.07;0.21;0.07;-305.45;-206.55;154.00;1.10;119.45;22.18;-49.46 
14.381;0.34;-0.90;-0.53;-0.35;0.07;0.14;-306.44;-206.55;153.00;1.10;119.65;22.16;-49.47 
14.412;0.33;-0.90;-0.53;-0.49;-0.07;-0.07;-304.45;-206.55;153.00;1.10;119.86;22.15;-49.47 
14.442;0.32;-0.89;-0.54;-0.21;0.14;0.00;-304.45;-207.50;156.00;1.09;120.08;22.16;-49.49 
14.471;0.31;-0.90;-0.53;-0.21;0.63;-0.28;-305.45;-206.55;157.00;1.09;120.27;22.16;-49.49 
14.500;0.33;-0.89;-0.51;-0.28;0.07;-0.56;-307.44;-205.59;156.00;1.08;120.47;22.16;-49.50 
14.530;0.31;-0.89;-0.55;-0.28;0.35;-0.28;-303.46;-206.55;155.00;1.09;120.67;22.15;-49.49 
14.560;0.32;-0.90;-0.51;-0.42;0.42;-0.21;-303.46;-206.55;156.00;1.08;120.88;22.15;-49.49 
14.590;0.34;-0.91;-0.54;-0.14;0.21;-0.14;-307.44;-206.55;152.00;1.11;121.07;22.14;-49.48 
14.620;0.32;-0.90;-0.48;-0.42;-0.14;-0.28;-307.44;-208.46;153.00;1.07;121.30;22.15;-49.48 
14.650;0.35;-0.92;-0.54;-0.49;0.14;-0.21;-306.44;-207.50;154.00;1.12;121.51;22.16;-49.47 
14.680;0.33;-0.90;-0.52;-0.28;0.28;0.00;-304.45;-204.63;154.00;1.09;121.71;22.15;-49.47 
14.711;0.32;-0.90;-0.50;-0.21;0.21;0.07;-305.45;-207.50;156.00;1.08;121.92;22.15;-49.47 
14.741;0.34;-0.90;-0.54;-0.21;0.42;0.21;-305.45;-205.59;154.00;1.10;122.13;22.13;-49.47 
14.771;0.33;-0.88;-0.54;-0.07;0.21;0.00;-305.45;-207.50;154.00;1.08;122.33;22.13;-49.50 
14.800;0.32;-0.89;-0.58;-0.07;0.35;0.00;-304.45;-207.50;155.00;1.11;122.53;22.13;-49.51 
14.829;0.33;-0.90;-0.51;-0.21;0.21;0.21;-304.45;-206.55;155.00;1.09;122.72;22.11;-49.50 
