Time(s) acc_x(g) acc_y(g) acc_z(g) gyr_x(°/s) gyr_y(°/s) gyr_z(°/s) mag_x(G) mag_y(G) mag_z(G) SVM(g) yaw(°) pitch(°) roll(°)
0.000;0.26;0.34;0.80;-23.30;-17.88;-138.85;324.35;-213.24;-377.00;0.91;-90.54;11.10;12.34 
0.030;0.26;0.32;0.80;-25.39;-13.36;-147.90;305.45;-205.59;-378.00;0.90;-86.30;10.96;12.59 
0.061;0.26;0.26;0.77;-25.60;-13.36;-149.84;290.53;-194.11;-380.00;0.85;-81.77;10.71;12.77 
0.090;0.26;0.28;0.73;-27.55;-21.15;-148.45;271.62;-185.51;-380.00;0.82;-77.39;10.60;12.92 
0.120;0.26;0.30;0.78;-30.82;-27.34;-149.50;260.68;-180.73;-380.00;0.88;-73.14;10.76;13.01 
0.150;0.27;0.32;0.78;-31.58;-23.79;-150.61;231.82;-175.95;-386.00;0.89;-68.72;10.93;13.05 
0.180;0.29;0.24;0.74;-31.10;-21.70;-150.26;210.93;-171.16;-388.00;0.83;-64.19;11.04;13.08 
0.210;0.27;0.23;0.68;-31.30;-19.48;-146.64;194.02;-166.38;-388.00;0.77;-59.89;11.12;13.13 
0.240;0.21;0.26;0.66;-31.86;-12.45;-151.03;177.10;-171.16;-383.00;0.74;-55.66;11.08;13.12 
0.270;0.14;0.26;0.58;-20.87;10.09;-162.16;146.26;-168.30;-385.00;0.65;-51.20;10.56;13.30 
0.300;0.12;0.22;0.54;-12.52;34.09;-178.37;126.36;-161.60;-379.00;0.60;-46.31;9.18;13.78 
0.330;0.08;0.11;0.35;-2.78;52.87;-177.53;107.45;-155.87;-375.00;0.38;-41.24;7.13;14.33 
0.360;0.01;-0.14;0.18;6.40;59.83;-160.97;91.54;-147.26;-368.00;0.23;-36.45;4.71;14.60 
0.390;0.14;-0.18;0.22;12.59;31.51;-125.22;70.64;-135.78;-357.00;0.32;-32.24;2.75;14.42 
0.420;0.09;-0.03;0.38;22.47;4.66;-95.51;59.70;-135.78;-356.00;0.39;-29.27;2.19;14.40 
0.450;0.12;0.19;0.62;37.98;4.94;-81.88;56.71;-136.74;-352.00;0.66;-26.79;2.23;15.03 
0.481;0.04;0.22;0.65;30.33;21.84;-74.37;58.70;-133.87;-352.00;0.69;-24.58;1.94;16.08 
0.511;-0.06;0.28;0.51;16.97;34.92;-63.17;49.75;-132.92;-350.00;0.58;-22.61;1.14;16.77 
0.541;-0.18;0.30;0.33;8.77;23.72;-68.59;43.78;-126.22;-342.00;0.48;-20.83;0.04;17.20 
0.572;-0.08;0.10;0.34;-10.78;-20.10;-50.02;36.81;-126.22;-342.00;0.36;-19.02;-0.18;17.42 
0.602;-0.05;-0.06;0.62;-63.93;-57.04;-15.44;32.83;-126.22;-343.00;0.62;-18.21;1.28;16.04 
0.632;-0.11;0.20;0.58;-104.56;-29.84;8.28;3.98;-138.65;-340.00;0.62;-18.38;3.05;13.05 
0.662;0.14;0.22;0.29;-133.29;-34.43;-10.92;-15.92;-145.35;-333.00;0.39;-18.42;4.71;9.55 
0.692;-0.15;0.05;-0.02;-156.59;-49.32;-15.72;-44.77;-151.08;-325.00;0.16;-17.98;5.95;5.14 
0.722;0.24;0.04;-0.17;-175.93;-59.76;-30.12;-78.60;-158.73;-313.00;0.30;-16.92;8.14;0.14 
0.752;-0.06;-0.06;-0.31;-194.37;-152.77;-106.99;-137.30;-177.86;-287.00;0.32;-14.47;11.38;-5.52 
0.782;6.14;-3.72;5.82;-221.08;-472.42;-216.97;-198.99;-255.31;-277.00;9.24;-8.16;25.05;-11.15 
0.812;-3.32;-4.98;3.74;56.70;-328.28;88.42;-201.97;-256.27;-280.00;7.06;-4.96;14.71;-6.34 
0.842;0.22;0.16;1.54;-505.60;-24.07;-110.12;-233.81;-274.44;-256.00;1.56;0.40;15.50;-15.16 
0.872;0.16;1.42;-1.26;-426.99;-150.89;-122.99;-318.38;-309.82;-132.00;1.91;8.46;19.38;-27.57 
0.902;1.17;-1.16;-0.43;-147.62;-272.14;-54.26;-342.26;-348.07;-76.00;1.70;16.71;28.23;-34.15 
0.932;0.46;-0.57;0.27;-124.80;-189.15;-79.17;-354.20;-371.97;-46.00;0.78;22.06;35.30;-36.23 
0.962;1.29;-0.85;-0.25;-123.69;-166.05;-81.67;-360.17;-392.05;-18.00;1.56;29.49;41.88;-36.30 
0.993;1.60;-1.10;-0.10;-82.16;-144.63;-56.07;-361.17;-419.78;21.00;1.94;36.47;47.36;-35.75 
1.023;1.24;-0.90;-0.05;-67.06;-137.67;-16.63;-359.18;-429.35;47.00;1.53;42.05;51.03;-35.37 
1.053;0.99;-0.86;-0.10;-57.46;-148.24;-9.04;-360.17;-427.43;64.00;1.32;46.76;53.09;-35.48 
1.084;0.86;-0.66;-0.22;-40.14;-163.41;-5.77;-358.18;-428.39;84.00;1.11;51.65;54.28;-35.52 
1.113;0.70;-0.84;-0.13;-39.72;-172.87;3.69;-354.20;-421.70;104.00;1.10;56.58;54.36;-35.57 
1.143;0.73;-0.67;-0.27;-47.17;-156.73;13.43;-356.19;-419.78;120.00;1.03;61.63;53.39;-35.65 
1.173;0.50;-0.62;-0.36;-41.11;-133.43;12.66;-352.21;-406.40;135.00;0.87;66.28;51.36;-35.98 
1.203;0.47;-0.77;-0.40;-36.31;-107.55;4.17;-350.22;-399.70;147.00;0.99;70.38;49.38;-35.98 
1.233;0.59;-0.70;-0.60;-31.17;-75.55;-8.90;-347.24;-393.01;160.00;1.09;73.85;47.76;-35.65 
1.263;0.76;-0.66;-0.64;-17.25;-37.91;-15.44;-347.24;-390.14;166.00;1.19;76.40;46.79;-35.12 
1.294;0.94;-0.66;-0.69;-8.00;0.14;-17.95;-342.26;-391.10;171.00;1.34;77.77;46.55;-34.59 
1.324;0.78;-0.77;-0.78;6.19;29.22;-9.74;-346.24;-394.92;172.00;1.35;78.13;46.94;-34.14 
1.354;0.82;-0.74;-0.58;20.52;42.64;-4.03;-346.24;-400.66;168.00;1.25;77.33;47.44;-34.25 
1.384;0.86;-0.99;-0.36;27.83;49.95;2.43;-346.24;-402.57;158.00;1.36;75.73;47.94;-34.75 
1.414;0.80;-0.70;-0.54;31.93;61.98;10.64;-350.22;-403.53;150.00;1.19;73.59;48.38;-35.46 
1.444;0.82;-0.71;-0.42;36.94;62.89;13.50;-350.22;-400.66;142.00;1.16;71.26;48.80;-36.15 
1.473;0.86;-0.74;-0.40;37.84;72.90;10.71;-350.22;-404.48;138.00;1.20;68.72;49.09;-36.92 
1.504;0.86;-0.77;-0.44;41.25;91.41;8.42;-355.20;-406.40;120.00;1.24;65.78;49.46;-37.65 
1.534;0.78;-0.77;-0.39;49.18;113.11;8.83;-355.20;-408.31;113.00;1.16;62.01;49.91;-38.37 
1.564;0.78;-0.75;-0.26;58.30;127.17;13.36;-358.18;-410.22;96.00;1.11;57.75;50.16;-39.11 
1.595;0.74;-0.74;-0.15;65.60;134.40;19.90;-358.18;-409.27;72.00;1.06;52.80;49.95;-39.94 
1.625;0.69;-0.71;-0.10;74.71;128.70;25.74;-361.17;-404.48;47.00;1.00;47.76;49.22;-40.73 
1.655;0.70;-0.58;0.00;84.73;107.83;34.16;-361.17;-398.75;24.00;0.91;42.87;47.90;-41.55 
1.685;0.58;-0.58;0.17;73.74;82.99;33.95;-360.17;-390.14;4.00;0.84;38.44;46.33;-42.26 
1.715;0.52;-0.66;0.36;50.23;53.77;26.02;-359.18;-382.49;-15.00;0.91;34.87;44.87;-42.79 
1.745;0.45;-0.60;0.35;16.14;30.19;5.70;-357.19;-376.75;-27.00;0.83;32.90;43.94;-43.11 
1.775;0.55;-0.73;0.25;-5.01;8.07;-1.25;-358.18;-372.93;-24.00;0.95;32.81;43.86;-43.12 
1.806;0.59;-0.70;0.23;-7.86;-9.81;-0.14;-357.19;-373.89;-31.00;0.94;33.34;44.01;-43.20 
1.836;0.62;-0.70;0.18;-16.56;-24.14;-0.97;-359.18;-375.80;-25.00;0.95;34.27;44.29;-43.35 
1.866;0.63;-0.74;0.19;-20.94;-32.77;-1.88;-360.17;-374.84;-18.00;0.99;35.52;44.61;-43.55 
1.896;0.66;-0.74;0.14;-24.00;-36.73;-3.41;-357.19;-376.75;-12.00;1.00;37.07;44.99;-43.68 
1.926;0.70;-0.77;0.08;-22.82;-34.23;-1.53;-363.16;-381.54;-8.00;1.04;38.77;45.35;-43.78 
1.956;0.70;-0.77;0.08;-19.48;-28.17;-1.18;-359.18;-382.49;0.00;1.04;40.06;45.48;-43.95 
1.986;0.72;-0.78;0.07;-16.35;-21.91;-0.77;-361.17;-383.45;3.00;1.06;41.29;45.60;-44.05 
2.017;0.72;-0.78;0.07;-12.38;-15.51;0.14;-360.17;-381.54;10.00;1.06;42.35;45.66;-44.14 
2.047;0.72;-0.78;0.02;-9.11;-10.64;1.95;-361.17;-385.36;11.00;1.06;43.18;45.65;-44.24 
2.077;0.71;-0.77;0.03;-6.61;-7.03;3.34;-366.14;-381.54;11.00;1.05;43.71;45.55;-44.38 
2.107;0.73;-0.77;0.02;-4.17;-3.69;4.38;-363.16;-377.71;16.00;1.06;44.08;45.40;-44.56 
2.136;0.69;-0.77;0.01;-2.71;-1.32;5.36;-359.18;-380.58;18.00;1.03;44.27;45.20;-44.78 
2.166;0.70;-0.78;0.02;-1.81;0.14;5.77;-364.15;-379.62;17.00;1.05;44.36;44.97;-45.02 
2.196;0.72;-0.80;0.08;-0.35;1.88;5.70;-361.17;-376.75;18.00;1.08;44.35;44.73;-45.27 
2.226;0.70;-0.78;0.01;0.42;2.78;6.89;-362.16;-376.75;14.00;1.05;44.28;44.47;-45.53 
2.256;0.70;-0.79;0.06;0.83;3.34;7.03;-364.15;-377.71;17.00;1.06;44.16;44.22;-45.78 
2.286;0.66;-0.77;0.04;0.42;2.30;7.10;-365.15;-372.93;12.00;1.01;44.00;43.95;-46.05 
2.317;0.64;-0.77;0.02;-0.63;1.04;6.19;-362.16;-371.02;14.00;1.00;43.89;43.67;-46.33 
2.347;0.66;-0.78;0.07;-1.04;0.49;5.91;-361.17;-367.19;15.00;1.02;43.84;43.43;-46.57 
2.377;0.64;-0.77;0.06;-1.95;-0.42;6.12;-363.16;-370.06;16.00;1.00;43.81;43.19;-46.81 
2.407;0.70;-0.67;0.05;-2.99;-1.74;7.30;-364.15;-365.28;17.00;0.97;43.72;42.82;-47.17 
2.436;0.66;-0.77;0.02;-2.37;-0.83;5.08;-367.14;-364.32;17.00;1.01;43.80;42.62;-47.37 
2.466;0.64;-0.78;0.03;-2.16;-0.77;6.05;-363.16;-363.37;16.00;1.01;43.84;42.40;-47.57 
2.496;0.65;-0.70;0.04;-2.30;-0.70;7.79;-362.16;-362.41;19.00;0.96;43.88;42.21;-47.76 
2.526;0.63;-0.79;0.02;-1.88;-0.28;3.97;-363.16;-362.41;19.00;1.01;43.93;42.01;-47.95 
2.556;0.66;-0.78;0.04;-1.74;-0.28;4.38;-364.15;-360.50;20.00;1.02;43.98;41.84;-48.11 
2.586;0.65;-0.77;0.04;-1.46;0.07;3.90;-366.14;-359.54;19.00;1.01;44.04;41.67;-48.26 
2.617;0.62;-0.76;0.03;-1.95;-0.14;4.94;-362.16;-360.50;21.00;0.98;44.01;41.40;-48.52 
2.647;0.63;-0.81;0.04;-0.77;0.21;2.37;-366.14;-359.54;19.00;1.03;44.11;41.25;-48.65 
2.677;0.66;-0.79;0.02;-1.32;0.35;2.99;-364.15;-355.72;21.00;1.03;44.18;41.15;-48.75 
2.707;0.64;-0.79;0.04;-0.83;0.28;3.20;-363.16;-354.76;23.00;1.02;44.24;41.01;-48.87 
2.737;0.74;-0.92;0.08;-1.46;1.46;4.66;-362.16;-358.59;17.00;1.18;44.31;40.89;-48.97 
2.767;0.59;-0.79;0.04;-1.32;0.21;3.76;-364.15;-354.76;21.00;0.99;44.34;40.71;-49.14 
2.797;0.62;-0.82;0.07;-0.83;0.14;1.95;-364.15;-357.63;18.00;1.03;44.43;40.60;-49.23 
2.828;0.63;-0.79;0.00;-0.70;0.14;1.46;-364.15;-354.76;22.00;1.01;44.54;40.54;-49.28 
2.857;0.62;-0.82;0.01;-0.83;-0.07;1.04;-367.14;-351.89;20.00;1.03;44.65;40.49;-49.32 
2.887;0.63;-0.80;0.02;-0.83;-0.07;0.28;-366.14;-353.80;19.00;1.02;44.86;40.46;-49.32 
2.918;0.63;-0.80;0.00;-1.46;-0.83;0.49;-363.16;-352.85;21.00;1.02;45.02;40.42;-49.34 
2.948;0.63;-0.80;0.03;-1.25;-0.63;-0.07;-363.16;-352.85;24.00;1.02;45.20;40.38;-49.36 
2.978;0.66;-0.82;0.02;-1.11;-1.18;0.21;-364.15;-352.85;20.00;1.05;45.39;40.35;-49.37 
3.007;0.62;-0.82;0.00;-0.70;-0.63;0.14;-364.15;-355.72;20.00;1.03;45.56;40.33;-49.36 
3.037;0.65;-0.81;0.03;-0.28;-0.14;-0.28;-367.14;-351.89;17.00;1.04;45.73;40.34;-49.34 
3.067;0.65;-0.81;0.03;0.00;0.35;-0.42;-362.16;-354.76;21.00;1.04;45.83;40.32;-49.35 
3.097;0.66;-0.81;0.02;0.28;0.63;-0.49;-367.14;-351.89;25.00;1.05;45.96;40.33;-49.33 
3.128;0.64;-0.82;0.02;0.07;0.49;-0.77;-364.15;-353.80;20.00;1.04;46.07;40.31;-49.34 
3.158;0.63;-0.78;0.00;0.14;0.56;-0.70;-365.15;-351.89;22.00;1.00;46.19;40.31;-49.32 
3.188;0.65;-0.82;0.03;0.14;0.49;-0.90;-366.14;-353.80;20.00;1.05;46.31;40.31;-49.31 
3.218;0.66;-0.80;0.01;-0.14;0.28;-0.90;-361.17;-351.89;23.00;1.04;46.43;40.32;-49.29 
3.247;0.65;-0.82;0.03;-0.07;0.00;-0.63;-363.16;-355.72;23.00;1.05;46.56;40.31;-49.28 
3.277;0.61;-0.78;0.02;0.00;0.07;-0.56;-365.15;-352.85;23.00;0.99;46.68;40.32;-49.26 
3.307;0.64;-0.79;0.04;0.14;0.49;-0.56;-362.16;-356.67;21.00;1.02;46.81;40.35;-49.22 
3.337;0.63;-0.78;0.04;0.28;0.63;-0.35;-361.17;-352.85;23.00;1.00;46.93;40.36;-49.20 
3.367;0.64;-0.78;0.05;0.70;0.83;-0.63;-364.15;-353.80;24.00;1.01;47.05;40.37;-49.18 
3.397;0.65;-0.81;0.01;0.49;0.49;-0.70;-367.14;-354.76;20.00;1.04;47.14;40.38;-49.17 
3.428;0.65;-0.82;0.02;0.21;0.70;-0.56;-363.16;-354.76;20.00;1.05;47.25;40.39;-49.15 
3.458;0.63;-0.79;0.00;0.14;0.28;-0.56;-363.16;-354.76;19.00;1.01;47.36;40.40;-49.13 
3.488;0.66;-0.83;0.03;-0.42;0.07;-0.14;-363.16;-352.85;23.00;1.06;47.51;40.41;-49.10 
3.518;0.66;-0.82;0.02;-0.42;0.00;0.21;-364.15;-357.63;22.00;1.05;47.62;40.41;-49.09 
3.548;0.63;-0.80;0.02;-0.35;0.07;0.77;-360.17;-355.72;20.00;1.02;47.73;40.37;-49.11 
3.578;0.64;-0.82;0.02;-0.83;-0.14;0.70;-367.14;-352.85;20.00;1.04;47.84;40.36;-49.11 
3.608;0.65;-0.82;0.03;-0.77;-0.28;0.90;-364.15;-354.76;22.00;1.05;47.94;40.33;-49.13 
3.638;0.64;-0.78;0.03;-0.63;-0.28;1.32;-365.15;-355.72;17.00;1.01;48.02;40.29;-49.15 
3.667;0.62;-0.80;0.06;-0.42;-0.35;1.11;-363.16;-353.80;23.00;1.01;48.08;40.24;-49.19 
3.697;0.66;-0.82;0.02;-0.63;0.00;1.53;-361.17;-353.80;23.00;1.05;48.15;40.21;-49.21 
3.728;0.66;-0.81;0.05;-0.14;0.35;1.60;-361.17;-353.80;19.00;1.05;48.21;40.17;-49.24 
3.758;0.62;-0.81;0.03;0.21;0.07;1.11;-364.15;-354.76;21.00;1.02;48.28;40.14;-49.26 
3.788;0.64;-0.80;0.04;-0.35;-0.14;1.18;-365.15;-350.94;18.00;1.03;48.35;40.11;-49.28 
3.818;0.65;-0.81;0.02;0.07;0.00;0.97;-363.16;-354.76;22.00;1.04;48.58;40.09;-49.27 
3.848;0.62;-0.83;0.06;0.21;0.35;1.53;-366.14;-348.07;21.00;1.04;48.63;40.05;-49.30 
3.878;0.62;-0.82;0.03;-0.14;0.28;0.83;-364.15;-349.98;21.00;1.03;48.67;40.02;-49.33 
3.908;0.62;-0.81;0.02;-0.14;0.28;0.83;-360.17;-351.89;23.00;1.02;48.71;39.99;-49.35 
3.938;0.62;-0.81;0.02;-0.07;0.56;0.49;-364.15;-351.89;23.00;1.02;48.79;39.97;-49.36 
3.968;0.62;-0.82;0.02;-0.49;0.07;0.83;-366.14;-352.85;22.00;1.03;48.89;39.96;-49.36 
3.998;0.62;-0.79;0.02;-0.07;0.35;0.42;-360.17;-351.89;22.00;1.00;49.00;39.94;-49.37 
4.029;0.64;-0.80;0.00;-0.56;0.14;0.07;-362.16;-349.98;24.00;1.02;49.09;39.93;-49.37 
4.059;0.62;-0.80;0.04;-0.42;0.07;-0.07;-364.15;-351.89;23.00;1.01;49.17;39.93;-49.36 
4.088;0.62;-0.80;0.03;-0.28;0.00;-0.14;-363.16;-350.94;18.00;1.01;49.27;39.94;-49.34 
4.118;0.65;-0.78;0.04;-0.21;0.21;-0.28;-364.15;-351.89;20.00;1.02;49.37;39.95;-49.33 
4.148;0.61;-0.82;0.01;-0.49;0.21;-0.42;-359.18;-352.85;22.00;1.02;49.49;39.96;-49.31 
4.178;0.62;-0.81;0.03;-0.14;0.07;-0.56;-365.15;-352.85;22.00;1.02;49.59;39.96;-49.30 
4.208;0.62;-0.80;0.02;-0.28;0.07;-0.14;-363.16;-353.80;21.00;1.01;49.68;39.97;-49.28 
4.238;0.63;-0.81;0.04;-0.07;0.21;-0.28;-360.17;-350.94;23.00;1.03;49.78;39.98;-49.26 
4.267;0.65;-0.82;0.03;-0.14;0.28;-0.35;-365.15;-351.89;21.00;1.05;49.89;39.99;-49.24 
4.297;0.63;-0.81;0.00;-0.07;0.56;-0.07;-364.15;-353.80;22.00;1.03;49.98;40.00;-49.23 
4.327;0.62;-0.81;0.02;0.00;0.56;-0.35;-365.15;-351.89;23.00;1.02;50.22;40.02;-49.18 
4.357;0.65;-0.80;0.03;0.07;0.56;0.21;-364.15;-353.80;23.00;1.03;50.45;40.04;-49.13 
4.387;0.64;-0.82;0.03;-0.07;0.70;0.49;-365.15;-353.80;20.00;1.04;50.54;40.04;-49.12 
4.417;0.63;-0.81;0.02;-0.28;0.28;0.49;-361.17;-351.89;23.00;1.03;50.62;40.06;-49.11 
4.448;0.63;-0.79;0.06;-0.07;0.42;0.63;-365.15;-353.80;20.00;1.01;50.85;40.07;-49.06 
4.477;0.63;-0.80;0.01;0.00;0.63;0.56;-361.17;-350.94;20.00;1.02;50.92;40.08;-49.06 
4.507;0.62;-0.80;0.00;0.14;0.77;0.83;-365.15;-350.94;20.00;1.01;50.95;40.08;-49.06 
4.538;0.63;-0.80;0.04;0.07;0.56;1.11;-366.14;-353.80;23.00;1.02;50.94;40.07;-49.08 
4.568;0.62;-0.82;0.03;-0.42;0.49;0.77;-364.15;-350.94;16.00;1.03;50.95;40.05;-49.10 
4.598;0.63;-0.82;0.02;-0.14;0.35;1.18;-365.15;-351.89;20.00;1.03;50.97;40.02;-49.12 
4.628;0.63;-0.79;0.03;-0.63;0.14;1.39;-363.16;-351.89;23.00;1.01;51.00;40.00;-49.15 
4.657;0.63;-0.82;0.06;-0.83;-0.21;1.25;-363.16;-350.94;20.00;1.04;51.04;39.96;-49.18 
4.687;0.61;-0.81;0.00;-0.97;-0.42;1.25;-367.14;-349.98;22.00;1.01;51.06;39.93;-49.21 
4.717;0.62;-0.75;0.02;-1.53;-0.07;4.73;-364.15;-350.94;20.00;0.97;51.06;39.85;-49.28 
4.748;0.61;-0.81;0.03;-0.63;0.49;2.92;-364.15;-349.98;21.00;1.01;51.03;39.70;-49.42 
4.778;0.62;-0.81;0.03;-0.63;0.77;2.64;-365.15;-345.20;23.00;1.02;51.02;39.62;-49.50 
4.807;0.63;-0.78;0.07;-0.35;1.04;1.95;-362.16;-349.98;24.00;1.01;51.00;39.54;-49.57 
4.838;0.62;-0.81;0.00;-0.07;0.83;1.60;-367.14;-344.24;20.00;1.02;51.17;39.52;-49.57 
4.868;0.63;-0.82;0.03;-0.21;0.77;1.95;-362.16;-346.15;21.00;1.03;51.17;39.49;-49.60 
4.898;0.67;-0.86;0.02;-0.70;0.83;4.10;-363.16;-346.15;21.00;1.09;51.18;39.45;-49.64 
4.928;0.62;-0.82;0.03;-0.63;0.77;4.31;-364.15;-344.24;22.00;1.03;51.06;39.33;-49.76 
4.958;0.62;-0.83;0.04;-0.42;0.83;3.83;-364.15;-343.29;24.00;1.04;50.97;39.22;-49.88 
4.988;0.62;-0.80;0.02;-0.77;0.21;2.50;-361.17;-346.15;26.00;1.01;50.95;39.14;-49.96 
5.018;0.61;-0.79;0.02;-0.77;0.56;3.62;-361.17;-343.29;25.00;1.00;50.94;39.07;-50.02 
5.049;0.58;-0.70;-0.02;-0.21;-1.18;7.58;-365.15;-341.37;23.00;0.91;50.25;38.66;-50.47 
5.079;0.60;-0.82;0.02;-0.42;0.56;1.32;-363.16;-340.42;24.00;1.02;50.22;38.54;-50.58 
5.109;0.61;-0.85;0.02;-0.35;0.42;1.46;-362.16;-340.42;23.00;1.05;50.28;38.53;-50.59 
5.139;0.62;-0.84;0.01;-0.35;0.28;0.83;-366.14;-339.46;25.00;1.04;50.30;38.51;-50.61 
5.169;0.62;-0.85;0.04;0.14;0.70;1.04;-363.16;-337.55;24.00;1.05;50.33;38.49;-50.64 
5.199;0.61;-0.81;0.05;-0.14;0.56;1.18;-361.17;-341.37;21.00;1.02;50.33;38.47;-50.66 
5.229;0.60;-0.82;0.05;-0.28;0.28;0.77;-365.15;-339.46;22.00;1.02;50.55;38.48;-50.63 
5.259;0.62;-0.83;0.02;-0.28;0.14;0.97;-363.16;-337.55;24.00;1.04;50.58;38.48;-50.63 
5.289;0.60;-0.85;0.04;-0.35;-0.14;0.97;-365.15;-336.59;21.00;1.04;50.83;38.49;-50.59 
5.319;0.61;-0.83;0.03;-0.63;-0.07;0.83;-363.16;-340.42;21.00;1.03;50.87;38.46;-50.62 
5.350;0.61;-0.82;0.04;-0.56;-0.14;0.83;-363.16;-336.59;21.00;1.02;50.93;38.44;-50.63 
5.380;0.59;-0.82;0.04;-0.21;0.07;0.83;-365.15;-337.55;23.00;1.01;50.99;38.42;-50.65 
5.409;0.59;-0.86;0.00;-0.28;0.14;0.63;-363.16;-336.59;25.00;1.04;51.05;38.42;-50.65 
5.439;0.61;-0.84;0.02;-0.28;0.21;0.14;-362.16;-337.55;23.00;1.04;51.07;38.43;-50.65 
5.469;0.60;-0.82;0.02;-0.14;0.28;0.35;-359.18;-336.59;24.00;1.02;51.13;38.45;-50.64 
5.499;0.56;-0.83;0.02;-0.07;0.56;0.35;-365.15;-337.55;25.00;1.00;51.38;38.48;-50.58 
5.529;0.61;-0.84;0.02;0.07;0.42;0.70;-362.16;-337.55;26.00;1.04;51.44;38.48;-50.58 
5.560;0.62;-0.83;0.01;0.42;0.63;0.49;-365.15;-338.51;22.00;1.04;51.43;38.47;-50.60 
5.590;0.58;-0.80;0.02;0.07;0.28;0.90;-366.14;-338.51;24.00;0.99;51.41;38.48;-50.60 
5.620;0.59;-0.83;0.02;-0.14;-0.28;1.25;-361.17;-337.55;21.00;1.02;51.43;38.47;-50.61 
5.650;0.59;-0.84;0.02;0.14;0.00;1.25;-363.16;-333.72;23.00;1.03;51.43;38.45;-50.64 
5.680;0.61;-0.82;0.03;-0.70;-0.35;1.53;-362.16;-334.68;23.00;1.02;51.48;38.43;-50.66 
5.709;0.59;-0.83;0.01;-0.70;-0.49;1.67;-362.16;-337.55;23.00;1.02;51.50;38.41;-50.69 
5.739;0.65;-0.93;0.04;-0.83;-1.25;5.01;-365.15;-333.72;22.00;1.14;51.54;38.38;-50.71 
5.769;0.60;-0.83;0.04;-0.97;0.35;4.87;-363.16;-334.68;25.00;1.02;51.47;38.24;-50.86 
5.799;0.58;-0.82;0.00;-0.56;0.21;4.52;-361.17;-334.68;23.00;1.00;51.37;38.10;-50.99 
5.828;0.60;-0.85;0.02;-0.42;0.49;2.37;-362.16;-332.77;24.00;1.04;51.37;38.03;-51.06 
5.859;0.58;-0.82;0.02;0.21;0.42;0.83;-363.16;-334.68;24.00;1.00;51.57;38.04;-51.04 
5.889;0.58;-0.82;0.03;-0.28;0.07;0.21;-362.16;-334.68;25.00;1.00;51.81;38.06;-50.99 
5.918;0.60;-0.85;0.02;-0.28;0.21;0.42;-363.16;-332.77;23.00;1.04;51.85;38.07;-50.99 
5.947;0.58;-0.83;0.01;-0.42;0.14;0.56;-365.15;-333.72;23.00;1.01;51.90;38.07;-50.99 
5.977;0.58;-0.83;0.07;-0.63;0.00;0.35;-367.14;-332.77;23.00;1.01;52.16;38.10;-50.94 
6.007;0.60;-0.85;0.04;-0.56;0.07;0.49;-363.16;-333.72;26.00;1.04;52.19;38.11;-50.94 
6.036;0.62;-0.86;0.01;-0.28;0.21;0.35;-361.17;-331.81;24.00;1.06;52.28;38.12;-50.92 
6.066;0.60;-0.85;0.01;-0.21;0.21;0.42;-366.14;-329.90;23.00;1.04;52.30;38.12;-50.93 
6.096;0.59;-0.84;0.01;0.07;0.35;0.00;-362.16;-330.86;23.00;1.03;52.31;38.13;-50.93 
6.126;0.58;-0.85;0.04;-0.14;0.42;0.28;-364.15;-328.94;25.00;1.03;52.39;38.14;-50.92 
6.157;0.54;-0.86;0.01;-0.07;0.00;-0.21;-364.15;-331.81;25.00;1.02;52.40;38.16;-50.92 
6.187;0.59;-0.83;0.00;-0.21;0.28;0.28;-367.14;-332.77;23.00;1.02;52.45;38.17;-50.91 
6.217;0.57;-0.82;0.02;-0.07;0.21;0.35;-364.15;-328.94;27.00;1.00;52.45;38.18;-50.91 
6.247;0.61;-0.85;0.00;-0.97;-0.28;0.63;-365.15;-328.94;18.00;1.05;52.48;38.18;-50.91 
6.277;0.58;-0.83;0.00;-0.35;-0.42;1.46;-364.15;-329.90;22.00;1.01;52.51;38.15;-50.95 
6.306;0.58;-0.86;0.02;-0.14;0.49;1.18;-360.17;-330.86;22.00;1.04;52.55;38.12;-50.98 
6.336;0.58;-0.83;0.04;-0.21;-0.07;0.70;-363.16;-329.90;26.00;1.01;52.53;38.09;-51.02 
6.366;0.60;-0.85;0.03;0.14;0.83;0.70;-364.15;-330.86;25.00;1.04;52.58;38.09;-51.02 
6.396;0.58;-0.85;0.01;-0.21;0.28;0.97;-362.16;-331.81;25.00;1.03;52.58;38.09;-51.03 
6.426;0.58;-0.84;0.03;-0.63;0.00;-0.07;-364.15;-327.99;25.00;1.02;52.84;38.11;-50.99 
6.457;0.58;-0.84;0.03;-0.07;0.42;-0.07;-365.15;-327.99;22.00;1.02;52.89;38.10;-51.00 
6.487;0.59;-0.86;0.04;0.63;1.88;0.28;-361.17;-328.94;23.00;1.04;52.89;38.12;-50.99 
6.517;0.55;-0.87;0.01;0.70;1.81;0.56;-364.15;-329.90;26.00;1.03;52.84;38.14;-50.99 
6.547;0.58;-0.85;0.03;0.56;1.11;0.14;-361.17;-327.03;24.00;1.03;52.74;38.14;-51.01 
6.577;0.58;-0.86;0.02;-0.07;0.77;0.70;-363.16;-330.86;25.00;1.04;52.66;38.14;-51.03 
6.607;0.59;-0.84;0.03;-1.04;-0.35;1.32;-363.16;-331.81;20.00;1.03;52.66;38.13;-51.04 
6.637;0.58;-0.84;0.02;-1.60;-0.63;1.88;-363.16;-329.90;22.00;1.02;52.70;38.08;-51.09 
6.667;0.58;-0.85;0.01;-1.18;-1.32;1.39;-364.15;-326.07;24.00;1.03;52.82;38.03;-51.14 
6.697;0.58;-0.83;0.03;-1.95;-1.81;0.63;-360.17;-329.90;25.00;1.01;53.21;38.02;-51.11 
6.727;0.57;-0.85;0.03;-2.23;-2.23;-0.42;-362.16;-327.99;23.00;1.02;53.46;38.03;-51.08 
6.757;0.59;-0.85;0.00;-1.67;-2.02;-0.56;-362.16;-326.07;26.00;1.03;53.95;38.07;-51.00 
6.787;0.58;-0.85;0.03;-0.90;-1.39;-1.18;-366.14;-327.99;25.00;1.03;54.16;38.09;-50.97 
6.817;0.58;-0.84;0.02;-0.28;0.00;-1.39;-363.16;-327.99;22.00;1.02;54.33;38.14;-50.92 
6.847;0.58;-0.86;0.01;0.49;0.77;-1.11;-361.17;-328.94;25.00;1.04;54.41;38.19;-50.88 
6.877;0.57;-0.83;0.02;0.35;0.70;-1.18;-363.16;-327.03;27.00;1.01;54.42;38.23;-50.85 
6.907;0.59;-0.84;0.03;0.56;0.63;-0.56;-365.15;-327.99;27.00;1.03;54.43;38.26;-50.83 
6.937;0.59;-0.85;0.03;0.28;0.77;-0.28;-365.15;-329.90;26.00;1.04;54.68;38.32;-50.76 
6.968;0.60;-0.84;0.02;0.49;1.04;-0.21;-361.17;-327.99;25.00;1.03;54.66;38.34;-50.76 
6.998;0.58;-0.83;0.03;0.14;0.83;0.21;-362.16;-329.90;22.00;1.01;54.64;38.33;-50.78 
7.027;0.58;-0.85;0.02;-0.28;0.21;0.77;-361.17;-329.90;26.00;1.03;54.87;38.36;-50.74 
7.058;0.58;-0.85;0.06;-0.70;-0.14;0.56;-361.17;-328.94;23.00;1.03;54.88;38.36;-50.75 
7.088;0.58;-0.85;0.01;-0.49;-0.49;0.77;-363.16;-329.90;26.00;1.03;54.95;38.33;-50.77 
7.118;0.59;-0.82;0.02;-0.56;-0.56;0.70;-363.16;-329.90;27.00;1.01;55.02;38.31;-50.79 
7.148;0.58;-0.83;0.02;-0.56;-0.42;0.42;-363.16;-328.94;24.00;1.01;55.05;38.30;-50.81 
7.177;0.59;-0.84;0.02;-0.35;0.07;0.28;-362.16;-327.99;24.00;1.03;55.42;38.33;-50.75 
7.207;0.59;-0.84;0.02;-0.14;0.49;0.42;-361.17;-328.94;28.00;1.03;55.44;38.33;-50.77 
7.237;0.60;-0.86;0.00;-0.07;0.63;0.49;-362.16;-330.86;29.00;1.05;55.41;38.31;-50.80 
7.268;0.57;-0.84;0.04;0.14;0.70;0.63;-363.16;-327.99;27.00;1.02;55.63;38.34;-50.76 
7.298;0.58;-0.85;0.05;0.07;0.56;0.42;-362.16;-329.90;27.00;1.03;55.58;38.32;-50.79 
7.328;0.57;-0.84;0.05;0.00;0.28;0.90;-362.16;-328.94;25.00;1.02;55.88;38.35;-50.74 
7.357;0.58;-0.86;0.00;-0.28;-0.07;0.35;-364.15;-327.03;25.00;1.04;56.14;38.37;-50.71 
7.387;0.59;-0.85;0.02;-0.28;0.14;-0.14;-362.16;-328.94;24.00;1.03;56.22;38.37;-50.72 
7.416;0.58;-0.84;0.03;-0.07;0.42;0.56;-364.15;-327.99;27.00;1.02;56.24;38.37;-50.72 
7.446;0.60;-0.86;0.04;-0.07;0.28;0.90;-366.14;-327.03;24.00;1.05;56.21;38.35;-50.75 
7.476;0.57;-0.84;0.00;0.21;0.63;0.63;-365.15;-328.94;26.00;1.02;56.16;38.34;-50.78 
7.506;0.60;-0.86;0.00;0.07;0.49;1.25;-365.15;-327.99;25.00;1.05;56.10;38.30;-50.83 
7.536;0.60;-0.85;0.02;-0.42;-0.14;2.85;-364.15;-327.03;26.00;1.04;56.07;38.27;-50.88 
7.567;0.54;-0.79;0.04;0.14;0.21;5.43;-364.15;-326.07;28.00;0.96;56.00;38.15;-51.00 
7.596;0.60;-1.10;0.14;0.83;-1.11;9.95;-363.16;-321.29;29.00;1.26;56.32;37.86;-51.24 
7.626;0.59;-0.90;0.01;-1.11;0.00;0.14;-360.17;-322.25;24.00;1.08;56.31;37.70;-51.40 
7.656;0.58;-0.86;0.02;-0.14;-0.07;2.16;-364.15;-323.21;24.00;1.04;56.37;37.69;-51.41 
7.686;0.55;-0.82;0.00;-0.77;-0.07;1.46;-363.16;-323.21;25.00;0.99;56.37;37.64;-51.47 
7.715;0.54;-0.85;0.00;-0.70;0.21;1.88;-362.16;-320.34;24.00;1.01;56.36;37.58;-51.54 
7.745;0.57;-0.86;0.00;-0.49;0.21;0.35;-361.17;-319.38;25.00;1.03;56.44;37.55;-51.57 
7.776;0.55;-0.83;0.02;0.00;0.21;0.63;-362.16;-322.25;28.00;1.00;56.46;37.56;-51.57 
7.805;0.55;-0.85;0.00;-0.07;0.35;0.42;-363.16;-318.42;24.00;1.01;56.45;37.53;-51.60 
7.835;0.59;-0.88;0.03;0.00;0.56;0.28;-359.18;-322.25;25.00;1.06;56.44;37.51;-51.63 
7.866;0.59;-0.86;0.00;0.07;0.49;0.42;-361.17;-320.34;25.00;1.04;56.48;37.51;-51.64 
7.896;0.58;-0.87;0.02;-0.35;0.21;0.90;-364.15;-319.38;24.00;1.05;56.45;37.50;-51.66 
7.926;0.57;-0.83;0.03;-0.14;0.70;0.77;-363.16;-322.25;25.00;1.01;56.69;37.53;-51.63 
7.956;0.58;-0.86;0.03;-0.77;0.49;2.23;-365.15;-321.29;24.00;1.04;56.58;37.48;-51.70 
7.986;0.59;-0.86;0.04;-0.42;0.90;3.48;-363.16;-321.29;23.00;1.04;56.50;37.41;-51.78 
8.016;0.61;-0.90;0.00;-1.11;0.49;6.40;-364.15;-316.51;29.00;1.09;56.37;37.29;-51.91 
8.045;0.52;-0.84;0.04;-0.97;0.90;3.90;-361.17;-319.38;26.00;0.99;56.41;37.11;-52.07 
8.076;0.56;-0.86;0.03;-1.04;0.56;2.50;-363.16;-314.60;28.00;1.03;56.45;37.04;-52.15 
8.106;0.55;-0.85;0.02;-1.25;0.56;2.99;-360.17;-315.56;25.00;1.01;56.51;36.96;-52.22 
8.135;0.56;-0.87;0.04;-0.90;0.42;2.50;-359.18;-319.38;24.00;1.04;56.46;36.87;-52.32 
8.165;0.58;-0.86;0.01;-0.70;0.14;2.23;-360.17;-314.60;24.00;1.04;56.42;36.82;-52.37 
8.195;0.56;-0.87;0.01;-1.11;0.35;2.64;-359.18;-315.56;30.00;1.03;56.69;36.79;-52.39 
8.225;0.54;-0.86;0.01;-0.97;0.49;2.78;-361.17;-314.60;26.00;1.02;56.95;36.74;-52.42 
8.254;0.58;-0.86;0.03;-0.42;0.90;2.85;-362.16;-311.73;27.00;1.04;56.89;36.66;-52.51 
8.283;0.58;-0.90;0.02;-0.97;0.90;2.43;-363.16;-313.64;28.00;1.07;57.10;36.62;-52.54 
8.313;0.56;-0.87;0.03;-1.18;0.14;2.37;-361.17;-311.73;28.00;1.04;57.13;36.56;-52.60 
8.343;0.52;-0.82;0.01;-2.09;-1.04;2.43;-360.17;-312.69;25.00;0.97;57.26;36.47;-52.68 
8.374;0.53;-0.85;0.06;-3.27;-2.30;0.97;-356.19;-309.82;29.00;1.00;57.47;36.39;-52.75 
8.404;0.54;-0.85;0.00;-3.90;-3.13;0.14;-362.16;-312.69;26.00;1.01;58.27;36.42;-52.67 
8.434;0.56;-0.85;0.02;-4.10;-3.55;0.00;-360.17;-311.73;25.00;1.02;59.04;36.44;-52.59 
8.465;0.54;-0.89;0.01;-3.13;-2.71;2.16;-362.16;-310.77;34.00;1.04;59.75;36.44;-52.55 
8.494;0.47;-0.86;0.00;-2.16;-2.57;-0.83;-362.16;-310.77;31.00;0.98;60.04;36.36;-52.61 
8.524;0.51;-0.88;0.00;1.60;0.28;-6.54;-361.17;-311.73;32.00;1.02;60.64;36.51;-52.43 
8.554;0.52;-0.86;0.00;2.85;-1.46;-4.45;-362.16;-311.73;30.00;1.00;60.87;36.67;-52.29 
