Time(s) acc_x(g) acc_y(g) acc_z(g) gyr_x(°/s) gyr_y(°/s) gyr_z(°/s) mag_x(G) mag_y(G) mag_z(G) SVM(g) yaw(°) pitch(°) roll(°)
0.000;0.30;0.25;1.00;6.68;-12.03;35.76;400.66;-372.85;-362.00;1.07;-131.16;16.99;7.95 
0.030;0.25;0.30;0.99;3.34;26.71;29.29;405.63;-376.68;-361.00;1.06;-132.26;16.91;7.98 
0.060;0.32;0.25;0.78;3.55;37.50;28.03;401.65;-378.60;-360.00;0.88;-133.38;16.00;7.99 
0.090;0.22;0.17;0.71;5.70;8.35;21.15;400.66;-371.89;-359.00;0.76;-134.30;15.42;8.11 
0.121;0.22;0.08;0.86;6.82;-4.03;25.81;402.65;-375.72;-361.00;0.89;-135.07;15.47;8.16 
0.151;0.24;0.19;0.82;4.94;3.83;25.32;402.65;-381.47;-359.00;0.88;-135.92;15.58;8.20 
0.181;0.20;0.19;0.77;3.06;-6.05;21.43;403.64;-384.35;-359.00;0.82;-136.65;15.67;8.27 
0.212;0.19;0.23;0.90;2.57;-9.81;17.46;407.62;-385.31;-360.00;0.95;-137.23;15.99;8.35 
0.242;0.18;0.19;1.00;-0.28;0.14;12.45;405.63;-389.14;-359.00;1.03;-137.65;16.17;8.39 
0.272;0.16;0.18;0.87;2.57;12.38;11.83;405.63;-389.14;-357.00;0.90;-138.06;15.90;8.44 
0.302;0.09;0.20;0.82;4.52;4.59;10.57;405.63;-391.06;-354.00;0.85;-138.49;15.55;8.60 
0.332;0.12;0.26;0.83;0.77;0.28;4.52;407.62;-390.10;-361.00;0.88;-138.78;15.34;8.81 
0.362;0.18;0.35;0.87;-2.78;-4.80;-6.47;406.62;-392.01;-357.00;0.95;-138.77;15.33;9.02 
0.392;0.08;0.18;0.93;-3.27;-4.80;-21.84;404.63;-392.97;-357.00;0.95;-138.39;15.28;9.29 
0.423;0.26;0.03;0.89;-6.12;7.86;-14.12;403.64;-388.18;-355.00;0.93;-137.77;14.97;9.26 
0.453;0.13;0.06;0.86;0.35;-1.39;-13.29;404.63;-388.18;-358.00;0.87;-137.34;14.79;9.32 
0.483;0.14;0.07;0.90;-2.37;3.48;-9.74;403.64;-387.22;-359.00;0.91;-137.00;14.64;9.38 
0.512;0.22;0.06;0.89;-2.30;4.73;-5.22;403.64;-382.43;-357.00;0.92;-136.80;14.43;9.35 
0.541;0.20;0.12;0.87;-1.81;2.85;-4.10;405.63;-380.51;-360.00;0.90;-136.68;14.28;9.31 
0.570;0.16;0.18;0.86;-1.39;1.60;-7.58;403.64;-380.51;-359.00;0.89;-136.55;14.14;9.35 
0.599;0.15;0.20;0.89;-3.20;-1.39;-12.10;406.62;-378.60;-360.00;0.92;-136.26;14.07;9.44 
0.628;0.18;0.17;0.90;-3.13;3.13;-15.30;404.63;-380.51;-361.00;0.93;-135.87;13.90;9.56 
0.657;0.20;0.18;0.91;-4.80;3.13;-19.34;401.65;-375.72;-362.00;0.95;-135.41;13.69;9.66 
0.686;0.23;0.15;0.88;-4.17;4.10;-19.97;402.65;-372.85;-359.00;0.92;-134.85;13.47;9.73 
0.716;0.20;0.13;0.84;-3.20;3.83;-17.67;403.64;-370.93;-363.00;0.87;-134.31;13.25;9.77 
0.746;0.23;0.09;0.83;-1.11;2.57;-14.26;403.64;-369.01;-362.00;0.87;-133.86;13.07;9.85 
0.776;0.26;0.02;0.86;0.56;-0.49;-8.77;404.63;-367.09;-363.00;0.90;-133.54;13.03;9.88 
0.806;0.23;0.02;0.93;1.74;5.43;-2.50;402.65;-365.18;-360.00;0.96;-133.39;12.98;9.88 
0.835;0.25;0.03;0.90;2.92;6.96;3.06;404.63;-362.30;-360.00;0.93;-133.46;12.82;9.88 
0.864;0.24;0.05;0.90;3.34;7.65;7.23;405.63;-364.22;-360.00;0.93;-133.70;12.68;9.89 
0.895;0.24;0.10;0.90;1.04;14.61;8.35;404.63;-365.18;-361.00;0.94;-134.06;12.45;9.87 
0.925;0.22;0.12;0.88;1.39;17.74;8.21;403.64;-360.39;-359.00;0.91;-134.45;12.05;9.84 
0.955;0.20;0.14;0.81;1.88;14.54;7.51;406.62;-357.51;-360.00;0.85;-134.80;11.61;9.86 
0.985;0.22;0.14;0.88;3.06;12.73;8.70;405.63;-356.55;-357.00;0.92;-135.16;11.30;9.92 
1.015;0.21;0.11;0.86;5.57;17.11;10.43;404.63;-357.51;-361.00;0.89;-135.56;10.92;10.04 
1.044;0.18;0.11;0.84;5.84;17.81;11.62;405.63;-355.59;-359.00;0.87;-135.99;10.52;10.14 
1.074;0.16;0.12;0.83;5.77;16.83;13.98;407.62;-351.76;-357.00;0.85;-136.48;10.10;10.27 
1.105;0.17;0.10;0.89;5.63;15.03;17.81;408.61;-352.72;-358.00;0.91;-137.10;9.72;10.37 
1.135;0.17;0.13;0.93;4.80;14.68;19.34;406.62;-350.80;-356.00;0.95;-137.78;9.38;10.45 
1.165;0.11;0.20;0.89;6.05;21.70;14.89;412.59;-350.80;-355.00;0.92;-138.44;8.94;10.59 
1.195;0.11;0.26;0.85;5.08;25.81;7.65;411.59;-347.93;-354.00;0.90;-138.93;8.27;10.83 
1.225;0.17;0.26;0.77;1.11;20.80;-1.60;411.59;-342.17;-353.00;0.83;-139.20;7.53;11.11 
1.255;0.28;0.32;0.83;-5.50;17.95;-19.55;413.58;-342.17;-354.00;0.93;-139.03;7.04;11.29 
1.285;0.31;0.61;0.78;-7.37;25.81;-38.68;414.58;-335.47;-356.00;1.04;-138.32;6.40;11.52 
1.316;0.31;0.62;0.63;-0.42;22.96;-56.49;411.59;-322.05;-356.00;0.94;-137.02;5.46;12.08 
1.346;0.16;0.44;0.63;-8.49;-3.90;-68.31;410.60;-312.46;-354.00;0.78;-135.25;4.90;12.65 
1.376;0.10;0.55;0.70;-17.74;-9.67;-86.54;405.63;-302.88;-358.00;0.90;-132.99;4.71;12.82 
1.407;0.26;0.66;0.70;-19.97;-1.74;-118.75;402.65;-294.25;-357.00;1.00;-129.84;4.30;12.95 
1.437;0.30;0.71;0.68;-26.71;-6.12;-146.16;391.71;-275.08;-360.00;1.03;-125.82;3.73;13.03 
1.467;0.38;0.51;0.67;-32.63;-6.47;-175.17;385.74;-265.50;-363.00;0.92;-121.04;3.20;12.88 
1.497;0.51;0.21;0.58;-37.43;-1.32;-177.88;364.87;-238.66;-361.00;0.80;-115.71;2.62;12.38 
1.526;0.51;0.15;0.46;-40.63;-16.63;-179.90;350.95;-224.28;-366.00;0.70;-110.43;2.41;11.50 
1.556;0.37;0.18;0.37;-32.83;-37.63;-169.39;324.10;-202.24;-367.00;0.55;-105.20;2.83;10.73 
1.586;0.51;0.20;0.42;-43.20;-49.67;-156.17;304.22;-200.32;-372.00;0.69;-100.18;3.99;10.07 
1.617;0.52;0.18;0.45;-62.26;-68.38;-168.35;284.34;-196.49;-377.00;0.71;-95.08;5.76;9.07 
1.647;0.43;0.09;0.55;-78.89;-68.03;-190.96;260.48;-196.49;-379.00;0.70;-89.31;7.87;7.71 
1.677;0.40;-0.16;0.51;-78.89;-49.25;-176.00;213.75;-199.36;-386.00;0.67;-83.77;9.64;6.04 
1.707;0.58;0.03;0.31;-59.76;-37.29;-137.32;190.88;-199.36;-388.00;0.66;-79.24;11.22;4.61 
1.737;0.45;0.10;0.20;-50.30;-44.94;-122.85;169.01;-202.24;-387.00;0.50;-75.43;13.05;3.89 
1.767;0.26;0.29;0.16;-50.16;-42.85;-110.75;151.12;-206.07;-389.00;0.42;-72.07;15.12;3.67 
1.796;0.31;0.15;0.26;-71.10;-37.98;-111.17;135.21;-207.03;-390.00;0.43;-68.92;16.77;3.44 
1.827;0.31;0.00;0.40;-85.22;-26.78;-79.93;100.41;-214.70;-388.00;0.51;-66.25;18.38;1.95 
1.857;-0.06;-0.78;0.36;-128.42;-25.60;-85.77;68.60;-218.53;-388.00;0.86;-63.89;19.43;-0.99 
1.887;-0.35;-1.67;0.66;-124.94;-85.43;2.92;39.77;-224.28;-386.00;1.83;-62.63;21.08;-4.46 
1.918;1.35;-1.12;2.34;-87.37;-236.52;-94.12;10.94;-245.37;-389.00;2.92;-63.84;26.77;-8.55 
1.948;1.01;-0.60;2.18;-345.11;73.81;25.39;-44.74;-285.62;-377.00;2.48;-62.03;29.95;-12.31 
1.978;0.02;-1.00;0.90;-211.27;168.28;2.43;-108.37;-257.83;-349.00;1.35;-59.11;25.98;-20.61 
2.008;1.54;-0.91;0.31;-313.04;129.18;-34.23;-150.12;-233.87;-317.00;1.82;-54.24;22.81;-27.30 
2.038;0.73;-3.04;-0.72;-335.86;-153.53;-162.02;-208.78;-255.91;-245.00;3.21;-45.34;25.54;-34.44 
2.068;2.06;-2.98;-0.34;-212.17;-325.36;-174.68;-278.37;-297.13;-212.00;3.64;-39.02;31.92;-39.14 
2.098;4.26;-2.65;0.50;-62.33;-90.30;151.51;-295.27;-329.71;-191.00;5.04;-36.59;38.31;-39.35 
2.129;1.42;-0.94;1.39;-147.06;-218.57;453.57;-301.24;-308.63;-174.00;2.20;-51.49;32.30;-48.87 
2.159;0.26;0.27;2.30;-190.40;5.08;144.97;-302.23;-232.91;-139.00;2.33;-63.78;25.05;-59.35 
2.188;0.69;-0.51;0.76;-185.74;196.45;160.21;-303.23;-202.24;-97.00;1.15;-47.72;20.29;-65.31 
2.218;0.66;-0.31;0.31;-252.24;161.11;94.19;-301.24;-173.48;-46.00;0.79;-19.33;16.25;-71.25 
2.248;-0.51;-0.47;-0.62;-117.22;259.83;81.32;-297.26;-153.36;3.00;0.93;-1.91;12.84;-75.92 
2.278;-0.34;0.26;-1.47;-8.56;178.30;64.77;-289.31;-148.56;26.00;1.53;0.96;9.18;-79.84 
2.308;0.51;0.14;-1.09;-16.00;-10.85;-2.99;-275.39;-134.19;47.00;1.21;3.15;8.88;-80.53 
2.339;-0.06;0.18;-0.87;-13.43;-44.17;-35.48;-275.39;-132.27;47.00;0.89;6.63;9.50;-80.37 
2.369;-0.15;-0.95;-0.62;-24.49;-0.14;-63.86;-284.34;-140.90;42.00;1.14;11.06;11.25;-78.75 
2.399;-0.02;-1.17;-0.90;-81.60;-37.36;-59.13;-287.32;-144.73;42.00;1.48;18.65;13.27;-76.45 
2.430;0.26;-1.12;-0.88;8.42;-67.20;-36.66;-301.24;-164.86;57.00;1.45;25.41;14.80;-74.30 
2.460;0.24;-1.21;-0.54;12.87;-58.92;-1.32;-301.24;-171.57;46.00;1.35;29.54;15.47;-73.28 
2.490;0.01;-1.14;-0.46;8.14;-17.46;-8.70;-299.25;-168.69;40.00;1.23;31.43;15.33;-73.23 
2.520;0.36;-1.30;-0.47;-4.80;36.94;-18.37;-301.24;-174.44;38.00;1.43;32.44;15.93;-72.59 
2.550;0.41;-1.20;-0.78;9.18;33.32;-12.59;-306.21;-177.32;46.00;1.49;32.59;16.68;-71.85 
2.580;0.28;-1.17;-0.87;25.25;-14.40;13.77;-306.21;-175.40;41.00;1.48;32.77;17.06;-71.51 
2.609;0.24;-0.82;-0.60;38.26;-56.49;32.97;-305.22;-174.44;32.00;1.04;33.18;16.38;-72.13 
2.639;0.15;-0.57;-0.26;40.70;-48.97;26.23;-300.24;-164.86;19.00;0.64;33.64;15.44;-73.06 
2.669;0.07;-0.75;-0.19;36.31;-12.45;11.97;-294.28;-159.11;6.00;0.78;33.08;14.89;-73.78 
2.699;0.14;-1.00;-0.24;32.90;-4.45;14.61;-295.27;-161.98;1.00;1.04;31.44;14.55;-74.36 
2.729;0.22;-1.10;-0.21;28.24;-5.29;12.31;-293.28;-158.15;-8.00;1.14;29.75;14.27;-74.86 
2.758;0.20;-1.03;-0.18;28.59;-5.84;13.63;-294.28;-153.36;-9.00;1.06;28.42;14.05;-75.24 
2.787;0.14;-1.04;-0.13;31.93;-10.16;16.14;-287.32;-153.36;-14.00;1.06;26.92;13.73;-75.70 
2.817;0.16;-1.04;-0.04;32.90;5.63;13.63;-287.32;-142.81;-26.00;1.05;24.37;13.41;-76.22 
2.846;0.10;-0.98;-0.04;27.13;12.73;5.84;-287.32;-145.69;-30.00;0.99;21.42;13.31;-76.49 
2.875;0.12;-1.02;0.00;24.28;20.80;4.31;-282.35;-143.77;-33.00;1.03;18.97;13.26;-76.64 
2.905;0.19;-1.08;0.00;19.97;34.30;-1.04;-284.34;-141.85;-32.00;1.10;16.53;13.39;-76.58 
2.935;0.18;-1.06;-0.18;13.98;34.43;2.57;-284.34;-143.77;-34.00;1.09;14.84;13.61;-76.38 
2.965;0.06;-1.00;-0.18;14.19;14.61;2.37;-281.35;-139.94;-36.00;1.02;14.02;13.64;-76.36 
2.995;0.14;-1.05;-0.09;14.96;12.10;3.27;-282.35;-141.85;-40.00;1.06;13.29;13.66;-76.34 
3.026;0.16;-1.06;-0.02;10.64;13.29;3.20;-280.36;-139.94;-36.00;1.07;12.39;13.69;-76.30 
3.056;0.18;-1.08;-0.06;1.67;12.45;4.24;-281.35;-137.06;-41.00;1.10;12.06;13.79;-76.20 
3.086;0.14;-1.06;-0.12;-3.83;4.59;4.87;-277.38;-136.10;-36.00;1.08;12.62;13.78;-76.21 
3.116;0.16;-1.06;-0.13;-5.22;-3.20;7.23;-280.36;-137.06;-38.00;1.08;13.67;13.74;-76.26 
3.146;0.12;-1.05;-0.10;-4.31;-6.26;7.93;-277.38;-133.23;-37.00;1.06;14.92;13.63;-76.37 
3.176;0.10;-1.02;-0.09;-4.10;-6.82;8.00;-278.37;-131.31;-33.00;1.03;16.02;13.50;-76.48 
3.206;0.07;-1.00;-0.05;-3.83;-4.03;6.82;-275.39;-130.35;-37.00;1.00;17.04;13.37;-76.59 
3.237;0.03;-0.97;-0.07;-3.41;1.04;4.10;-273.40;-130.35;-34.00;0.97;17.95;13.27;-76.65 
3.266;0.09;-1.02;-0.10;-4.17;3.83;-1.39;-275.39;-129.39;-36.00;1.03;18.95;13.29;-76.60 
3.296;0.09;-1.04;-0.15;-4.87;1.74;-1.81;-275.39;-131.31;-35.00;1.05;20.07;13.43;-76.42 
3.327;0.07;-1.04;-0.13;-4.38;-2.09;-1.74;-275.39;-131.31;-36.00;1.05;21.28;13.55;-76.25 
3.357;0.08;-1.04;-0.11;-4.17;-2.02;-3.34;-279.37;-126.52;-33.00;1.05;22.81;13.73;-76.00 
3.387;0.10;-1.03;-0.14;-3.62;-1.88;-4.87;-275.39;-132.27;-30.00;1.04;24.14;13.90;-75.76 
3.417;0.12;-1.03;-0.14;-2.02;-1.11;-5.08;-280.36;-132.27;-31.00;1.05;25.44;14.13;-75.47 
3.447;0.13;-1.05;-0.14;-0.28;-0.35;-4.10;-278.37;-134.19;-31.00;1.07;26.65;14.38;-75.17 
3.477;0.14;-1.02;-0.14;0.42;-1.81;-2.16;-277.38;-134.19;-33.00;1.04;27.64;14.55;-74.95 
3.507;0.11;-1.02;-0.10;0.63;0.35;-1.81;-278.37;-132.27;-32.00;1.03;28.51;14.67;-74.79 
3.538;0.13;-1.02;-0.11;0.07;1.95;-2.16;-278.37;-136.10;-29.00;1.03;29.21;14.82;-74.61 
3.567;0.13;-1.05;-0.12;-0.56;0.28;-0.63;-280.36;-133.23;-34.00;1.06;29.94;14.96;-74.44 
3.596;0.14;-1.05;-0.11;-0.63;0.83;0.28;-281.35;-137.06;-32.00;1.06;30.75;15.05;-74.30 
3.626;0.12;-1.03;-0.13;-0.49;0.00;0.35;-278.37;-137.06;-32.00;1.05;31.44;15.12;-74.19 
3.656;0.12;-1.03;-0.10;-0.77;-0.28;1.11;-281.35;-134.19;-32.00;1.04;32.26;15.14;-74.11 
3.686;0.14;-1.04;-0.12;-0.63;1.53;1.32;-279.37;-136.10;-32.00;1.06;32.95;15.17;-74.04 
3.716;0.13;-1.02;-0.10;-1.39;1.67;1.04;-279.37;-138.02;-33.00;1.03;33.53;15.19;-73.98 
3.747;0.10;-1.02;-0.13;-0.70;1.04;1.11;-278.37;-133.23;-34.00;1.03;34.26;15.19;-73.91 
3.777;0.10;-1.02;-0.16;0.07;0.21;1.46;-276.38;-136.10;-33.00;1.04;35.00;15.21;-73.84 
3.807;0.11;-1.03;-0.15;-0.28;1.18;0.63;-278.37;-134.19;-30.00;1.05;35.65;15.22;-73.78 
3.838;0.11;-1.04;-0.12;-0.35;1.74;0.97;-278.37;-134.19;-33.00;1.05;36.24;15.25;-73.72 
3.868;0.14;-1.04;-0.11;0.00;0.07;1.53;-275.39;-133.23;-30.00;1.06;36.89;15.27;-73.64 
3.897;0.11;-1.02;-0.14;0.28;-0.28;1.46;-276.38;-133.23;-34.00;1.04;37.57;15.28;-73.59 
3.926;0.10;-1.02;-0.10;0.35;0.49;0.83;-278.37;-132.27;-31.00;1.03;38.23;15.30;-73.52 
3.956;0.09;-1.04;-0.12;-0.35;0.70;-0.35;-280.36;-132.27;-32.00;1.05;38.96;15.33;-73.44 
3.986;0.11;-1.05;-0.14;-0.42;0.42;-0.77;-274.40;-134.19;-34.00;1.06;39.60;15.38;-73.36 
4.016;0.12;-1.02;-0.10;-0.70;0.14;-0.35;-277.38;-132.27;-32.00;1.03;40.40;15.45;-73.24 
4.047;0.10;-1.02;-0.14;-0.70;0.07;-0.83;-276.38;-133.23;-32.00;1.03;41.24;15.50;-73.13 
4.077;0.10;-1.02;-0.13;-0.63;0.00;-1.25;-277.38;-135.14;-33.00;1.03;42.10;15.54;-73.03 
4.107;0.14;-1.02;-0.11;-0.70;1.25;-0.83;-278.37;-134.19;-30.00;1.04;42.88;15.61;-72.90 
4.138;0.11;-1.03;-0.18;-0.28;0.56;0.00;-280.36;-131.31;-31.00;1.05;43.58;15.68;-72.79 
4.168;0.10;-1.03;-0.16;0.21;-0.77;0.42;-277.38;-134.19;-32.00;1.05;44.28;15.71;-72.72 
4.197;0.10;-1.02;-0.14;0.07;-0.21;-0.35;-277.38;-133.23;-31.00;1.03;45.04;15.75;-72.63 
4.227;0.12;-1.02;-0.18;0.00;0.83;-0.35;-278.37;-134.19;-28.00;1.04;45.72;15.81;-72.54 
4.257;0.11;-1.05;-0.15;0.14;0.90;-0.42;-282.35;-132.27;-33.00;1.07;46.37;15.85;-72.46 
4.287;0.11;-1.02;-0.12;0.42;-0.14;-0.56;-278.37;-135.14;-30.00;1.03;47.03;15.88;-72.39 
4.317;0.12;-1.03;-0.14;0.56;-0.49;0.42;-278.37;-131.31;-33.00;1.05;47.78;15.91;-72.31 
4.348;0.13;-1.02;-0.13;0.21;-0.14;0.90;-279.37;-133.23;-34.00;1.04;48.56;15.91;-72.26 
4.378;0.13;-1.05;-0.10;-0.14;0.28;0.56;-279.37;-136.10;-33.00;1.06;49.24;15.92;-72.22 
4.408;0.12;-1.04;-0.11;-0.07;0.42;0.28;-274.40;-132.27;-29.00;1.05;49.91;15.91;-72.18 
4.438;0.10;-1.06;-0.14;-0.21;0.14;-0.07;-276.38;-133.23;-31.00;1.07;50.59;15.93;-72.12 
4.467;0.11;-1.02;-0.14;-0.21;-0.07;-0.49;-279.37;-132.27;-31.00;1.04;51.31;15.94;-72.07 
4.496;0.08;-1.02;-0.13;-0.56;0.63;-0.70;-278.37;-135.14;-32.00;1.03;52.01;15.98;-71.99 
4.526;0.13;-1.05;-0.11;-0.63;0.97;-0.21;-277.38;-134.19;-35.00;1.06;52.67;16.02;-71.92 
4.556;0.12;-1.04;-0.12;-0.70;0.97;-0.14;-277.38;-135.14;-33.00;1.05;53.41;16.06;-71.83 
4.586;0.12;-1.02;-0.11;-0.21;0.14;0.77;-278.37;-132.27;-34.00;1.03;54.11;16.08;-71.77 
4.616;0.10;-1.03;-0.13;-0.28;1.04;0.63;-281.35;-131.31;-35.00;1.04;54.79;16.08;-71.72 
4.647;0.11;-1.04;-0.14;-0.21;1.04;0.56;-273.40;-133.23;-31.00;1.06;55.35;16.07;-71.70 
4.677;0.13;-1.02;-0.12;-0.07;-0.14;0.90;-279.37;-134.19;-33.00;1.04;56.07;16.06;-71.67 
4.707;0.10;-1.02;-0.10;-0.07;0.56;0.21;-279.37;-133.23;-31.00;1.03;56.85;16.04;-71.63 
4.737;0.10;-1.02;-0.14;0.00;0.90;-0.07;-277.38;-132.27;-35.00;1.03;57.48;16.05;-71.59 
4.766;0.09;-1.02;-0.17;-0.07;0.49;-0.56;-280.36;-132.27;-33.00;1.04;58.27;16.08;-71.51 
4.796;0.14;-1.02;-0.12;-0.07;0.49;-0.35;-277.38;-134.19;-33.00;1.04;59.02;16.11;-71.44 
4.826;0.13;-1.04;-0.11;0.00;0.63;-0.56;-276.38;-133.23;-33.00;1.05;59.75;16.14;-71.38 
4.857;0.15;-0.98;-0.09;-0.35;0.77;-0.90;-278.37;-135.14;-35.00;1.00;60.52;16.15;-71.32 
4.887;0.14;-1.04;-0.13;-0.49;0.00;-0.42;-277.38;-133.23;-30.00;1.06;61.28;16.19;-71.26 
4.917;0.12;-1.04;-0.11;0.00;-0.21;-0.28;-278.37;-137.06;-33.00;1.05;62.08;16.20;-71.21 
4.948;0.10;-1.04;-0.09;-0.07;0.77;-0.83;-277.38;-134.19;-32.00;1.05;62.87;16.22;-71.15 
4.978;0.11;-1.02;-0.14;0.00;0.83;-0.70;-276.38;-133.23;-31.00;1.04;63.64;16.24;-71.08 
5.008;0.13;-1.03;-0.14;0.00;-0.21;-0.56;-277.38;-130.35;-32.00;1.05;64.46;16.26;-71.02 
5.038;0.10;-1.02;-0.14;-0.28;1.04;-0.56;-277.38;-131.31;-31.00;1.03;65.18;16.27;-70.98 
5.068;0.13;-1.04;-0.14;-0.42;1.46;-0.35;-276.38;-135.14;-31.00;1.06;65.89;16.30;-70.91 
5.098;0.11;-1.02;-0.16;-0.07;0.49;0.28;-279.37;-136.10;-34.00;1.04;66.56;16.30;-70.88 
5.128;0.11;-1.02;-0.14;0.21;-0.14;0.77;-280.36;-134.19;-32.00;1.04;67.36;16.29;-70.85 
5.159;0.08;-1.02;-0.16;0.14;0.97;0.28;-277.38;-137.06;-35.00;1.04;68.09;16.26;-70.85 
5.189;0.11;-1.02;-0.13;0.42;0.21;0.14;-280.36;-132.27;-34.00;1.03;68.80;16.25;-70.83 
5.219;0.06;-1.02;-0.15;-0.07;0.77;0.35;-279.37;-135.14;-33.00;1.03;69.53;16.24;-70.81 
5.249;0.08;-1.02;-0.14;-0.07;0.63;-0.28;-278.37;-135.14;-34.00;1.03;70.31;16.24;-70.78 
5.278;0.13;-1.02;-0.10;-0.21;0.00;0.07;-282.35;-132.27;-33.00;1.03;71.08;16.21;-70.77 
5.308;0.13;-1.03;-0.10;-0.14;0.56;-0.49;-277.38;-134.19;-34.00;1.04;71.79;16.21;-70.76 
5.338;0.11;-1.02;-0.12;-0.63;1.04;-0.21;-279.37;-132.27;-34.00;1.03;72.50;16.22;-70.72 
5.369;0.12;-1.04;-0.11;-0.49;0.49;0.56;-277.38;-133.23;-32.00;1.05;73.23;16.21;-70.69 
5.399;0.11;-1.02;-0.13;-0.07;-0.14;0.49;-276.38;-135.14;-30.00;1.03;74.04;16.19;-70.67 
5.429;0.11;-1.02;-0.10;-0.14;0.56;0.14;-279.37;-133.23;-34.00;1.03;74.80;16.18;-70.65 
5.460;0.11;-1.05;-0.16;-0.14;0.77;0.35;-280.36;-132.27;-31.00;1.07;75.56;16.18;-70.62 
5.490;0.10;-1.02;-0.13;-0.14;0.00;-0.21;-278.37;-138.02;-32.00;1.03;76.36;16.17;-70.61 
5.520;0.11;-1.02;-0.13;-0.49;0.70;-0.14;-278.37;-132.27;-34.00;1.03;77.18;16.17;-70.58 
5.549;0.10;-1.02;-0.13;-0.28;0.56;-0.14;-281.35;-133.23;-32.00;1.03;78.00;16.17;-70.54 
5.578;0.13;-1.03;-0.10;-0.42;0.42;-0.56;-275.39;-134.19;-33.00;1.04;78.86;16.16;-70.51 
5.608;0.11;-1.02;-0.13;-0.14;0.63;-0.07;-278.37;-134.19;-34.00;1.03;79.71;16.17;-70.47 
5.638;0.12;-1.02;-0.12;-0.14;0.28;0.35;-274.40;-132.27;-33.00;1.03;80.48;16.15;-70.46 
5.669;0.10;-1.02;-0.11;-0.28;0.77;0.07;-275.39;-135.14;-34.00;1.03;81.26;16.12;-70.45 
5.699;0.12;-1.04;-0.12;-0.21;0.14;-0.07;-276.38;-132.27;-34.00;1.05;82.06;16.12;-70.43 
5.729;0.14;-1.03;-0.10;-0.35;0.35;0.35;-276.38;-133.23;-34.00;1.04;82.89;16.09;-70.43 
5.760;0.11;-1.02;-0.13;-0.63;1.32;0.07;-277.38;-132.27;-34.00;1.03;83.69;16.08;-70.41 
5.790;0.11;-1.06;-0.13;-0.42;0.77;0.56;-279.37;-134.19;-35.00;1.07;84.43;16.08;-70.38 
5.820;0.13;-1.03;-0.14;0.28;-0.14;0.70;-278.37;-133.23;-35.00;1.05;85.28;16.04;-70.38 
5.850;0.10;-1.03;-0.10;0.07;0.97;0.28;-279.37;-135.14;-33.00;1.04;86.06;16.01;-70.40 
5.879;0.10;-1.03;-0.12;-0.21;0.90;0.56;-280.36;-134.19;-32.00;1.04;86.82;15.99;-70.39 
5.908;0.10;-1.02;-0.14;0.28;0.14;0.42;-278.37;-133.23;-32.00;1.03;87.60;15.94;-70.40 
5.938;0.10;-1.03;-0.12;-0.42;0.42;0.28;-278.37;-131.31;-34.00;1.04;88.47;15.89;-70.42 
5.969;0.11;-1.03;-0.11;-0.63;0.49;0.63;-280.36;-133.23;-32.00;1.04;89.35;15.87;-70.39 
5.999;0.11;-1.02;-0.11;-0.42;0.56;0.07;-278.37;-133.23;-33.00;1.03;90.18;15.84;-70.39 
6.029;0.10;-1.02;-0.14;-0.77;0.63;-0.21;-277.38;-132.27;-33.00;1.03;90.99;15.83;-70.37 
6.059;0.10;-1.02;-0.16;-0.77;0.00;0.07;-280.36;-133.23;-35.00;1.04;91.86;15.80;-70.35 
6.089;0.10;-1.02;-0.13;-0.77;0.35;0.00;-276.38;-136.10;-33.00;1.03;92.69;15.78;-70.34 
6.119;0.13;-1.02;-0.10;-0.56;1.18;-0.35;-278.37;-131.31;-32.00;1.03;93.48;15.76;-70.33 
6.149;0.10;-1.03;-0.10;-0.07;0.77;-0.28;-276.38;-132.27;-34.00;1.04;94.27;15.75;-70.32 
6.180;0.10;-1.03;-0.16;0.07;0.28;0.00;-276.38;-133.23;-33.00;1.05;95.12;15.74;-70.30 
6.209;0.11;-1.03;-0.12;0.00;0.56;0.35;-276.38;-134.19;-30.00;1.04;96.01;15.71;-70.30 
6.239;0.11;-1.04;-0.14;0.00;0.70;-0.21;-279.37;-133.23;-30.00;1.06;96.82;15.68;-70.30 
6.270;0.13;-1.02;-0.13;0.28;0.63;-0.35;-275.39;-133.23;-34.00;1.04;97.68;15.67;-70.31 
6.300;0.11;-1.02;-0.13;0.14;0.63;0.00;-279.37;-133.23;-32.00;1.03;98.54;15.65;-70.31 
6.330;0.10;-1.03;-0.11;-0.07;1.04;-0.14;-278.37;-133.23;-30.00;1.04;99.36;15.63;-70.30 
6.360;0.10;-1.02;-0.14;0.00;0.56;-0.28;-276.38;-132.27;-30.00;1.03;100.17;15.62;-70.30 
6.390;0.10;-1.03;-0.14;-0.21;0.49;0.14;-279.37;-130.35;-31.00;1.04;100.99;15.59;-70.32 
6.420;0.12;-1.03;-0.12;-0.42;0.35;0.14;-275.39;-134.19;-34.00;1.04;101.85;15.56;-70.32 
6.450;0.10;-1.03;-0.14;-0.28;0.63;-0.35;-278.37;-134.19;-30.00;1.04;102.72;15.54;-70.32 
6.481;0.11;-1.02;-0.14;-0.28;0.77;-0.35;-277.38;-132.27;-31.00;1.04;103.50;15.54;-70.30 
6.511;0.11;-1.02;-0.14;-0.42;0.07;0.00;-276.38;-131.31;-34.00;1.04;104.40;15.53;-70.29 
6.540;0.10;-1.02;-0.14;-0.35;1.04;-0.28;-279.37;-129.39;-34.00;1.03;105.21;15.51;-70.28 
6.569;0.10;-1.04;-0.12;-0.70;0.90;0.21;-274.40;-131.31;-30.00;1.05;105.92;15.49;-70.28 
6.598;0.13;-0.98;-0.12;0.07;-0.21;0.35;-274.40;-134.19;-33.00;1.00;106.74;15.45;-70.28 
6.627;0.10;-1.02;-0.15;0.07;0.77;0.28;-277.38;-130.35;-32.00;1.04;107.55;15.41;-70.31 
6.656;0.09;-1.02;-0.12;0.28;0.42;-0.14;-277.38;-131.31;-30.00;1.03;108.35;15.38;-70.33 
6.686;0.14;-1.02;-0.14;0.14;0.70;-0.49;-281.35;-131.31;-29.00;1.04;109.19;15.36;-70.32 
6.716;0.11;-1.02;-0.14;0.28;0.70;-0.70;-276.38;-135.14;-31.00;1.04;110.03;15.35;-70.32 
6.746;0.11;-1.03;-0.14;-0.07;1.11;-0.56;-280.36;-134.19;-35.00;1.05;110.80;15.34;-70.33 
6.777;0.10;-1.05;-0.14;0.21;0.07;-0.56;-275.39;-130.35;-35.00;1.06;111.66;15.33;-70.31 
6.807;0.10;-1.02;-0.12;-0.14;0.07;-0.49;-276.38;-137.06;-32.00;1.03;112.57;15.32;-70.30 
6.837;0.11;-1.02;-0.13;-0.28;0.49;-0.35;-277.38;-134.19;-31.00;1.03;113.39;15.31;-70.29 
6.868;0.12;-1.04;-0.14;-0.42;0.00;0.35;-275.39;-130.35;-35.00;1.06;114.19;15.28;-70.29 
6.898;0.10;-1.02;-0.15;-0.63;0.70;0.21;-279.37;-133.23;-32.00;1.04;114.96;15.24;-70.29 
6.928;0.10;-1.01;-0.13;-0.63;0.83;0.14;-277.38;-134.19;-33.00;1.02;115.64;15.22;-70.29 
6.958;0.12;-1.03;-0.11;-0.42;0.07;0.42;-275.39;-131.31;-36.00;1.04;116.42;15.20;-70.29 
6.988;0.11;-1.03;-0.11;-0.56;0.42;0.35;-276.38;-133.23;-31.00;1.04;117.20;15.16;-70.31 
7.018;0.11;-1.03;-0.13;-0.56;0.83;0.14;-278.37;-133.23;-34.00;1.04;117.90;15.11;-70.34 
7.048;0.10;-1.02;-0.14;-0.14;0.28;0.28;-277.38;-133.23;-32.00;1.03;118.63;15.07;-70.35 
7.079;0.11;-1.02;-0.12;0.07;0.42;0.21;-277.38;-133.23;-33.00;1.03;119.42;15.02;-70.39 
7.109;0.12;-1.02;-0.13;0.07;0.83;0.28;-275.39;-133.23;-31.00;1.04;120.18;14.99;-70.40 
7.138;0.12;-1.04;-0.11;-0.07;0.42;0.07;-279.37;-132.27;-32.00;1.05;120.90;14.94;-70.43 
7.167;0.11;-1.03;-0.12;-0.21;0.42;0.21;-276.38;-131.31;-33.00;1.04;121.64;14.90;-70.46 
7.197;0.11;-1.03;-0.13;-0.49;0.49;-0.28;-277.38;-131.31;-36.00;1.04;122.36;14.86;-70.47 
7.227;0.10;-1.02;-0.12;-0.21;0.07;-0.07;-277.38;-132.27;-32.00;1.03;123.10;14.85;-70.48 
7.257;0.12;-1.02;-0.11;-0.28;0.49;0.14;-277.38;-133.23;-32.00;1.03;123.83;14.82;-70.48 
7.287;0.12;-1.04;-0.13;-0.56;0.42;0.07;-279.37;-131.31;-31.00;1.05;124.52;14.79;-70.48 
7.317;0.13;-1.04;-0.11;-0.70;0.35;0.14;-274.40;-131.31;-34.00;1.05;125.17;14.77;-70.48 
7.347;0.14;-1.06;-0.15;-0.42;0.42;0.63;-277.38;-131.31;-32.00;1.08;125.84;14.73;-70.50 
7.378;0.08;-1.02;-0.14;0.07;0.28;0.35;-276.38;-133.23;-31.00;1.03;126.52;14.68;-70.53 
7.408;0.10;-1.02;-0.14;-0.14;0.42;0.56;-275.39;-134.19;-32.00;1.03;127.21;14.64;-70.55 
7.438;0.12;-1.04;-0.10;-0.21;0.90;0.42;-276.38;-130.35;-35.00;1.05;127.88;14.59;-70.59 
7.468;0.13;-1.03;-0.14;-0.28;0.35;0.21;-278.37;-132.27;-33.00;1.05;128.55;14.55;-70.61 
7.498;0.10;-1.02;-0.13;-0.21;0.35;0.49;-277.38;-132.27;-29.00;1.03;129.21;14.50;-70.63 
7.528;0.10;-1.02;-0.15;-0.42;0.77;0.35;-275.39;-133.23;-33.00;1.04;129.85;14.46;-70.67 
7.558;0.08;-1.03;-0.12;-0.21;0.00;0.00;-279.37;-131.31;-35.00;1.04;130.46;14.40;-70.70 
7.589;0.12;-1.05;-0.13;-0.56;0.56;-0.14;-276.38;-132.27;-33.00;1.06;131.11;14.37;-70.71 
7.618;0.10;-1.04;-0.09;-0.70;0.49;-0.49;-276.38;-130.35;-34.00;1.05;131.68;14.34;-70.70 
7.647;0.12;-1.03;-0.14;-0.49;0.63;-0.35;-276.38;-133.23;-33.00;1.05;132.22;14.32;-70.70 
7.677;0.10;-1.04;-0.14;-0.21;0.14;-0.42;-279.37;-135.14;-34.00;1.05;132.84;14.32;-70.68 
7.707;0.10;-1.02;-0.14;-0.07;-0.42;-0.14;-278.37;-128.44;-35.00;1.03;133.51;14.29;-70.68 
7.737;0.10;-1.02;-0.14;-0.21;0.42;-0.90;-277.38;-132.27;-33.00;1.03;134.14;14.26;-70.70 
7.767;0.10;-1.02;-0.12;-0.35;0.49;-0.83;-280.36;-134.19;-30.00;1.03;134.73;14.26;-70.69 
7.797;0.13;-1.04;-0.16;0.07;0.42;-0.21;-279.37;-133.23;-32.00;1.06;135.39;14.25;-70.69 
7.827;0.11;-1.03;-0.11;-0.14;0.63;-0.28;-278.37;-131.31;-33.00;1.04;136.00;14.22;-70.71 
7.857;0.11;-1.04;-0.14;-0.21;0.77;-0.28;-279.37;-131.31;-32.00;1.06;136.54;14.20;-70.72 
7.888;0.13;-1.02;-0.11;0.07;0.42;0.21;-277.38;-133.23;-34.00;1.03;137.10;14.17;-70.73 
7.918;0.10;-1.04;-0.13;0.00;0.42;0.00;-277.38;-132.27;-33.00;1.05;137.70;14.13;-70.77 
7.947;0.11;-1.04;-0.10;-0.35;0.49;0.42;-278.37;-131.31;-30.00;1.05;138.28;14.09;-70.80 
7.976;0.12;-1.04;-0.12;-0.42;0.83;-0.21;-274.40;-133.23;-33.00;1.05;138.78;14.05;-70.83 
8.006;0.10;-1.04;-0.07;-0.07;0.49;-0.56;-276.38;-134.19;-32.00;1.05;139.28;14.01;-70.85 
8.036;0.10;-1.02;-0.12;0.00;0.28;-0.35;-277.38;-133.23;-29.00;1.03;139.81;13.99;-70.85 
8.066;0.13;-1.03;-0.12;-0.49;0.90;-0.70;-275.39;-135.14;-32.00;1.05;140.34;13.98;-70.85 
8.096;0.08;-1.02;-0.13;-0.35;1.46;-0.77;-277.38;-131.31;-32.00;1.03;140.84;13.96;-70.86 
8.126;0.10;-1.02;-0.16;-0.14;0.21;-0.42;-278.37;-132.27;-34.00;1.04;141.32;13.94;-70.87 
8.156;0.04;-1.02;-0.16;0.00;0.28;-0.07;-278.37;-134.19;-33.00;1.03;141.87;13.91;-70.90 
8.187;0.10;-1.03;-0.10;0.14;0.83;-0.07;-277.38;-132.27;-36.00;1.04;142.45;13.88;-70.94 
8.216;0.10;-1.02;-0.13;0.00;0.63;-0.14;-275.39;-132.27;-33.00;1.03;142.95;13.84;-70.97 
8.245;0.12;-1.02;-0.13;0.14;0.70;-0.42;-275.39;-132.27;-35.00;1.04;143.46;13.83;-70.99 
8.275;0.13;-1.02;-0.11;0.14;0.28;0.00;-278.37;-133.23;-33.00;1.03;143.97;13.79;-71.02 
8.305;0.10;-1.02;-0.18;-0.07;0.42;-0.56;-280.36;-132.27;-33.00;1.04;144.48;13.77;-71.03 
8.335;0.11;-1.02;-0.10;-0.35;0.70;-0.90;-277.38;-132.27;-32.00;1.03;144.99;13.73;-71.06 
8.365;0.10;-1.02;-0.13;-0.28;0.90;-0.83;-277.38;-132.27;-32.00;1.03;145.47;13.71;-71.08 
8.395;0.09;-1.02;-0.14;-0.28;0.56;-0.90;-279.37;-134.19;-33.00;1.03;146.00;13.72;-71.08 
8.425;0.12;-1.04;-0.14;0.00;0.77;-0.97;-274.40;-133.23;-30.00;1.06;146.49;13.72;-71.09 
8.455;0.10;-1.02;-0.14;0.07;0.63;-0.63;-275.39;-132.27;-34.00;1.03;146.98;13.70;-71.11 
8.486;0.12;-1.04;-0.10;0.14;0.56;-0.35;-280.36;-135.14;-32.00;1.05;147.49;13.69;-71.13 
8.515;0.15;-1.05;-0.10;0.07;0.49;-0.14;-276.38;-135.14;-32.00;1.07;147.99;13.69;-71.15 
8.545;0.10;-1.03;-0.14;0.07;0.77;-0.14;-278.37;-135.14;-33.00;1.04;148.45;13.64;-71.20 
8.576;0.11;-1.02;-0.12;0.14;1.04;-0.14;-279.37;-136.10;-33.00;1.03;148.91;13.61;-71.23 
8.606;0.10;-1.02;-0.10;0.00;1.04;-0.14;-273.40;-131.31;-37.00;1.03;149.37;13.59;-71.27 
8.636;0.14;-1.06;-0.10;-0.21;0.42;0.00;-276.38;-131.31;-35.00;1.07;149.82;13.55;-71.30 
8.666;0.13;-1.03;-0.10;-0.49;0.49;0.49;-277.38;-135.14;-34.00;1.04;150.22;13.52;-71.33 
8.697;0.10;-1.04;-0.13;-0.49;0.56;0.56;-279.37;-132.27;-30.00;1.05;150.59;13.46;-71.36 
8.727;0.13;-1.04;-0.14;-0.77;0.77;0.07;-277.38;-133.23;-31.00;1.06;150.97;13.41;-71.41 
8.756;0.10;-1.02;-0.11;-0.77;-0.21;0.35;-278.37;-132.27;-33.00;1.03;151.25;13.35;-71.43 
8.786;0.10;-1.03;-0.11;-0.49;0.28;0.28;-278.37;-133.23;-35.00;1.04;151.63;13.30;-71.45 
8.816;0.09;-1.04;-0.12;-0.63;0.70;-0.35;-280.36;-136.10;-33.00;1.05;151.97;13.25;-71.47 
8.846;0.10;-1.05;-0.10;-0.14;0.49;-0.49;-279.37;-135.14;-34.00;1.06;152.33;13.23;-71.50 
8.876;0.14;-1.04;-0.13;-0.14;-0.63;0.21;-278.37;-133.23;-33.00;1.06;152.74;13.18;-71.54 
8.906;0.13;-1.03;-0.10;-0.35;0.97;-0.21;-279.37;-132.27;-33.00;1.04;153.16;13.15;-71.57 
8.936;0.14;-1.05;-0.13;-0.63;1.32;0.49;-278.37;-136.10;-32.00;1.07;153.45;13.13;-71.58 
8.966;0.11;-1.02;-0.14;0.14;-0.28;1.32;-278.37;-132.27;-35.00;1.04;153.75;13.06;-71.63 
8.997;0.10;-1.02;-0.10;0.00;0.35;0.83;-274.40;-131.31;-35.00;1.03;154.11;12.98;-71.70 
9.027;0.09;-1.02;-0.11;0.07;1.39;0.35;-279.37;-132.27;-30.00;1.03;154.42;12.91;-71.75 
9.057;0.11;-1.03;-0.12;0.28;0.07;0.14;-276.38;-130.35;-32.00;1.04;154.74;12.84;-71.81 
9.088;0.10;-1.02;-0.10;0.42;0.14;-0.56;-277.38;-133.23;-34.00;1.03;155.17;12.80;-71.86 
9.117;0.09;-1.02;-0.10;0.00;0.90;-0.90;-277.38;-134.19;-34.00;1.03;155.54;12.78;-71.90 
9.147;0.07;-1.02;-0.14;0.28;0.35;-1.81;-274.40;-134.19;-34.00;1.03;155.89;12.78;-71.90 
9.177;0.11;-1.03;-0.11;0.14;0.35;-1.60;-279.37;-132.27;-31.00;1.04;156.26;12.80;-71.88 
9.207;0.12;-1.03;-0.12;0.28;0.07;-0.90;-276.38;-133.23;-34.00;1.04;156.65;12.80;-71.89 
9.237;0.11;-1.04;-0.11;-0.14;0.35;-1.11;-280.36;-133.23;-32.00;1.05;157.00;12.78;-71.91 
9.267;0.15;-1.06;-0.13;-0.63;1.32;-0.77;-277.38;-132.27;-34.00;1.08;157.33;12.76;-71.93 
9.298;0.11;-1.06;-0.16;-0.42;1.11;0.35;-277.38;-134.19;-33.00;1.08;157.62;12.74;-71.96 
9.328;0.11;-1.03;-0.16;-0.56;0.56;1.11;-279.37;-134.19;-33.00;1.05;157.92;12.71;-71.99 
9.358;0.11;-1.03;-0.12;-0.35;1.60;1.04;-277.38;-133.23;-33.00;1.04;158.14;12.63;-72.05 
9.388;0.12;-1.02;-0.12;0.28;1.81;0.90;-277.38;-134.19;-34.00;1.03;158.37;12.57;-72.11 
9.418;0.13;-1.06;-0.14;1.04;0.90;1.25;-280.36;-133.23;-32.00;1.08;158.64;12.50;-72.17 
9.448;0.11;-1.02;-0.11;1.39;1.60;1.25;-279.37;-134.19;-33.00;1.03;158.99;12.43;-72.27 
9.478;0.12;-1.05;-0.13;1.11;1.25;1.53;-281.35;-132.27;-33.00;1.06;159.34;12.38;-72.36 
9.508;0.11;-1.02;-0.16;0.49;0.70;1.95;-274.40;-132.27;-33.00;1.04;159.71;12.29;-72.48 
9.537;0.11;-1.03;-0.08;0.49;0.77;1.04;-276.38;-134.19;-33.00;1.04;160.04;12.19;-72.60 
9.567;0.12;-1.06;-0.11;-0.35;0.49;1.74;-275.39;-132.27;-36.00;1.07;160.31;12.12;-72.67 
9.598;0.08;-1.02;-0.14;-0.70;0.21;0.83;-276.38;-133.23;-31.00;1.03;160.58;12.04;-72.74 
9.628;0.10;-1.02;-0.13;-1.04;0.56;0.21;-274.40;-130.35;-31.00;1.03;160.81;12.00;-72.77 
9.658;0.08;-1.02;-0.14;-0.90;-0.07;-0.70;-276.38;-132.27;-34.00;1.03;160.98;11.94;-72.80 
9.688;0.12;-1.02;-0.14;-0.90;0.70;-1.04;-277.38;-134.19;-32.00;1.04;161.26;11.93;-72.81 
9.718;0.09;-1.02;-0.13;-0.90;0.28;-0.97;-274.40;-132.27;-35.00;1.03;161.47;11.92;-72.80 
9.748;0.11;-1.04;-0.13;-0.28;0.83;-0.77;-276.38;-129.39;-31.00;1.05;161.72;11.90;-72.81 
9.778;0.13;-1.09;-0.15;0.49;0.21;-0.21;-279.37;-132.27;-31.00;1.11;162.01;11.90;-72.83 
9.809;0.10;-1.02;-0.07;0.70;0.70;-0.35;-273.40;-133.23;-33.00;1.03;162.33;11.86;-72.88 
9.839;0.11;-1.02;-0.11;0.90;0.77;-0.14;-279.37;-131.31;-31.00;1.03;162.64;11.85;-72.92 
9.869;0.11;-1.02;-0.10;0.90;0.28;-0.14;-274.40;-133.23;-36.00;1.03;162.90;11.81;-72.96 
9.898;0.11;-1.02;-0.12;0.83;0.90;0.00;-271.41;-132.27;-34.00;1.03;163.17;11.77;-73.01 
9.928;0.10;-1.06;-0.10;0.42;0.70;-0.07;-278.37;-132.27;-32.00;1.07;163.52;11.72;-73.09 
9.958;0.10;-1.03;-0.10;0.35;0.42;-0.63;-278.37;-132.27;-36.00;1.04;163.75;11.68;-73.14 
9.988;0.11;-1.04;-0.10;0.28;0.49;-1.04;-280.36;-130.35;-35.00;1.05;164.05;11.67;-73.17 
