Time(s) acc_x(g) acc_y(g) acc_z(g) gyr_x(°/s) gyr_y(°/s) gyr_z(°/s) mag_x(G) mag_y(G) mag_z(G) SVM(g) yaw(°) pitch(°) roll(°)
0.000;-0.34;0.10;0.83;0.14;-1.11;-1.81;62.00;139.98;-329.72;0.90;-80.67;-22.35;8.03 
0.030;-0.34;0.11;0.86;0.49;-0.83;-1.32;64.00;138.06;-334.72;0.93;-80.68;-22.32;8.03 
0.061;-0.34;0.10;0.81;0.07;0.90;-1.81;59.00;138.06;-332.72;0.88;-80.71;-22.27;8.05 
0.091;-0.31;0.09;0.83;0.28;1.39;-2.09;60.00;139.98;-332.72;0.89;-80.71;-22.29;8.02 
0.121;-0.35;0.08;0.78;0.56;-0.14;-1.60;59.00;140.94;-335.72;0.86;-80.72;-22.28;8.00 
0.152;-0.34;0.11;0.84;0.35;0.42;-1.25;59.00;137.10;-327.72;0.91;-80.73;-22.28;8.01 
0.181;-0.35;0.10;0.82;0.21;0.42;-0.77;61.00;138.06;-330.72;0.90;-80.77;-22.28;8.03 
0.211;-0.33;0.09;0.85;0.42;-0.42;0.00;60.00;135.18;-330.72;0.92;-80.82;-22.25;8.02 
0.241;-0.33;0.10;0.82;0.21;0.07;-0.07;58.00;136.14;-331.72;0.89;-80.87;-22.23;8.03 
0.271;-0.36;0.09;0.82;0.14;0.21;0.14;61.00;139.98;-333.72;0.90;-80.93;-22.22;8.01 
0.301;-0.35;0.09;0.82;0.28;0.35;0.49;62.00;139.02;-332.72;0.90;-81.00;-22.21;8.01 
0.330;-0.34;0.06;0.81;0.07;0.14;0.42;60.00;139.02;-331.72;0.88;-81.06;-22.17;8.00 
0.361;-0.34;0.10;0.80;0.21;0.21;0.28;62.00;138.06;-330.72;0.87;-81.13;-22.16;7.99 
0.391;-0.34;0.13;0.82;0.00;0.83;0.14;61.00;135.18;-331.72;0.90;-81.20;-22.17;8.00 
0.421;-0.34;0.10;0.84;0.21;0.97;0.21;62.00;140.94;-330.72;0.91;-81.28;-22.18;8.01 
0.451;-0.36;0.10;0.82;0.35;0.49;0.07;62.00;139.02;-332.72;0.90;-81.35;-22.18;8.02 
0.480;-0.35;0.12;0.83;0.14;0.28;0.42;62.00;134.23;-330.72;0.91;-81.43;-22.18;8.06 
0.510;-0.34;0.11;0.82;0.00;-0.28;0.63;61.00;136.14;-332.72;0.89;-81.52;-22.13;8.10 
0.540;-0.32;0.11;0.82;-0.07;0.14;0.42;62.00;139.98;-330.72;0.89;-81.60;-22.12;8.11 
0.571;-0.34;0.09;0.85;0.07;0.49;1.04;60.00;136.14;-333.72;0.92;-81.69;-22.10;8.14 
0.601;-0.34;0.11;0.83;0.07;1.04;1.11;61.00;140.94;-330.72;0.90;-81.80;-22.10;8.16 
0.631;-0.36;0.10;0.84;-0.14;0.77;0.83;61.00;139.02;-330.72;0.92;-81.89;-22.11;8.17 
0.661;-0.36;0.10;0.78;-0.07;0.14;0.07;61.00;139.02;-331.72;0.86;-81.99;-22.10;8.22 
0.691;-0.33;0.14;0.82;0.07;0.63;-0.28;62.00;138.06;-331.72;0.89;-82.04;-22.12;8.21 
0.721;-0.34;0.10;0.83;0.21;-0.14;0.14;62.00;139.98;-334.72;0.90;-82.10;-22.10;8.20 
0.751;-0.33;0.11;0.83;0.49;0.63;0.00;64.00;137.10;-328.72;0.90;-82.16;-22.10;8.21 
0.781;-0.34;0.13;0.83;-0.21;1.04;-0.21;66.00;139.98;-333.72;0.91;-82.23;-22.13;8.20 
0.811;-0.34;0.10;0.83;0.00;0.00;0.35;62.00;138.06;-330.72;0.90;-82.28;-22.12;8.19 
0.840;-0.34;0.14;0.86;0.28;-0.35;0.70;65.00;134.23;-331.72;0.94;-82.35;-22.09;8.19 
0.871;-0.31;0.14;0.87;0.07;-0.07;0.70;62.00;139.02;-331.72;0.93;-82.43;-22.06;8.20 
0.901;-0.34;0.10;0.82;-0.35;1.04;0.63;66.00;139.02;-333.72;0.89;-82.50;-22.06;8.19 
0.931;-0.30;0.15;0.86;0.00;0.07;0.70;63.00;134.23;-333.72;0.92;-82.59;-22.07;8.21 
0.962;-0.38;0.06;0.77;0.14;-0.28;0.77;63.00;136.14;-330.72;0.86;-82.68;-22.04;8.23 
0.991;-0.33;0.11;0.81;-0.21;1.18;0.28;62.00;139.98;-335.72;0.88;-82.76;-22.05;8.23 
1.020;-0.35;0.11;0.85;-0.21;0.90;0.14;63.00;138.06;-330.72;0.93;-82.84;-22.08;8.24 
1.050;-0.35;0.11;0.84;-0.21;-0.14;-0.14;63.00;136.14;-332.72;0.92;-82.90;-22.09;8.23 
1.080;-0.34;0.12;0.83;-0.21;-0.77;0.42;64.00;137.10;-331.72;0.90;-82.95;-22.05;8.21 
1.110;-0.34;0.11;0.82;0.07;0.14;0.49;62.00;138.06;-332.72;0.89;-83.03;-22.03;8.23 
1.140;-0.37;0.12;0.84;-0.14;0.63;0.35;62.00;139.98;-332.72;0.93;-83.10;-22.06;8.21 
1.170;-0.33;0.11;0.79;-0.07;0.35;0.42;63.00;136.14;-332.72;0.86;-83.18;-22.05;8.23 
1.200;-0.34;0.08;0.80;0.00;0.70;0.49;66.00;136.14;-335.72;0.87;-83.25;-22.05;8.23 
1.230;-0.34;0.12;0.82;-0.42;0.77;0.83;61.00;139.02;-334.72;0.90;-83.34;-22.06;8.23 
1.261;-0.33;0.10;0.83;-0.49;0.14;0.35;65.00;137.10;-332.72;0.90;-83.43;-22.08;8.23 
1.291;-0.34;0.11;0.83;-0.70;0.35;-0.21;61.00;135.18;-335.72;0.90;-83.50;-22.06;8.22 
1.321;-0.35;0.10;0.79;-0.49;1.32;0.21;65.00;136.14;-332.72;0.87;-83.57;-22.08;8.21 
1.350;-0.34;0.10;0.82;-0.35;1.18;-0.63;63.00;137.10;-330.72;0.89;-83.63;-22.10;8.19 
1.380;-0.34;0.11;0.83;0.21;0.56;-0.63;65.00;138.06;-330.72;0.90;-83.67;-22.11;8.16 
1.410;-0.34;0.14;0.84;0.49;-0.77;-0.77;65.00;138.06;-333.72;0.92;-83.70;-22.10;8.14 
1.440;-0.32;0.11;0.85;-0.07;-0.42;-0.63;63.00;134.23;-331.72;0.91;-83.74;-22.06;8.14 
1.471;-0.34;0.11;0.82;-0.14;0.42;-0.28;64.00;139.98;-332.72;0.89;-83.78;-22.05;8.13 
1.501;-0.34;0.08;0.84;-0.28;-0.14;-0.56;65.00;135.18;-332.72;0.91;-83.82;-22.05;8.10 
1.531;-0.31;0.10;0.84;-0.14;-0.42;-0.35;64.00;135.18;-333.72;0.90;-83.87;-22.02;8.08 
1.561;-0.33;0.08;0.81;-0.14;0.35;-0.28;61.00;137.10;-333.72;0.88;-83.93;-21.99;8.07 
1.591;-0.32;0.10;0.81;-0.21;0.49;-0.56;62.00;136.14;-333.72;0.88;-83.98;-21.98;8.06 
1.621;-0.34;0.10;0.85;-0.07;0.28;-0.77;62.00;137.10;-333.72;0.92;-84.02;-21.98;8.05 
1.651;-0.34;0.13;0.84;-0.21;0.14;-1.18;63.00;137.10;-333.72;0.92;-84.05;-21.97;8.02 
1.682;-0.34;0.15;0.83;0.00;0.35;-1.04;63.00;138.06;-333.72;0.91;-84.07;-21.96;8.00 
1.712;-0.34;0.11;0.81;0.07;0.28;-0.63;63.00;137.10;-333.72;0.89;-84.12;-21.95;8.01 
1.742;-0.32;0.10;0.82;-0.28;0.42;-0.63;60.00;136.14;-334.72;0.89;-84.17;-21.94;8.01 
1.772;-0.34;0.10;0.84;-0.28;0.28;-0.77;61.00;134.23;-330.72;0.91;-84.21;-21.93;7.99 
1.802;-0.33;0.06;0.84;-0.14;0.14;-0.83;60.00;137.10;-335.72;0.90;-84.24;-21.95;7.98 
1.832;-0.33;0.10;0.85;-0.28;-0.14;-0.63;63.00;132.31;-332.72;0.92;-84.28;-21.94;7.98 
1.862;-0.34;0.10;0.86;-0.14;0.42;0.14;63.00;135.18;-329.72;0.93;-84.34;-21.92;7.98 
1.892;-0.33;0.11;0.80;-0.28;0.70;-0.14;63.00;138.06;-332.72;0.87;-84.42;-21.92;7.99 
1.922;-0.37;0.11;0.83;-0.49;1.04;-0.56;63.00;134.23;-332.72;0.92;-84.47;-21.93;7.99 
1.951;-0.34;0.10;0.82;0.00;1.18;-0.56;63.00;136.14;-332.72;0.89;-84.51;-21.93;7.96 
1.982;-0.34;0.11;0.84;0.14;-0.56;-0.56;60.00;137.10;-333.72;0.91;-84.55;-21.93;7.93 
2.012;-0.35;0.14;0.83;-0.21;0.35;-0.63;60.00;132.31;-333.72;0.91;-84.60;-21.90;7.93 
2.042;-0.36;0.13;0.83;-0.21;1.39;-0.07;61.00;135.18;-335.72;0.91;-84.66;-21.90;7.93 
2.072;-0.33;0.10;0.83;0.07;0.63;0.35;61.00;135.18;-337.72;0.90;-84.73;-21.91;7.91 
2.101;-0.34;0.11;0.83;-0.35;-0.14;0.35;62.00;136.14;-331.72;0.90;-84.80;-21.89;7.92 
2.131;-0.33;0.10;0.82;-0.63;0.28;0.77;61.00;134.23;-335.72;0.89;-84.88;-21.86;7.92 
2.161;-0.32;0.09;0.82;-0.35;0.35;0.63;62.00;132.31;-333.72;0.88;-84.96;-21.84;7.92 
2.191;-0.34;0.12;0.85;0.00;0.35;0.63;60.00;134.23;-332.72;0.92;-85.04;-21.82;7.90 
2.221;-0.33;0.10;0.80;-0.14;0.49;0.28;65.00;134.23;-335.72;0.87;-85.11;-21.81;7.88 
2.251;-0.32;0.10;0.84;-0.35;0.49;0.21;62.00;135.18;-332.72;0.90;-85.18;-21.81;7.87 
2.281;-0.30;0.14;0.90;0.07;0.70;0.07;61.00;136.14;-327.72;0.96;-85.25;-21.79;7.86 
2.311;-0.34;0.11;0.83;-0.28;0.83;0.83;62.00;136.14;-335.72;0.90;-85.32;-21.79;7.87 
2.341;-0.34;0.09;0.84;-0.35;0.14;0.70;60.00;136.14;-333.72;0.91;-85.40;-21.83;7.86 
2.371;-0.37;0.11;0.82;-0.28;0.07;1.25;60.00;136.14;-335.72;0.91;-85.48;-21.81;7.87 
2.401;-0.33;0.10;0.83;-0.21;-0.35;0.35;64.00;135.18;-331.72;0.90;-85.56;-21.77;7.85 
2.431;-0.34;0.09;0.81;-0.35;0.49;0.49;63.00;137.10;-335.72;0.88;-85.62;-21.75;7.83 
2.460;-0.34;0.09;0.81;-0.42;1.25;0.63;66.00;138.06;-333.72;0.88;-85.70;-21.74;7.82 
2.489;-0.34;0.12;0.84;-0.14;0.21;0.63;63.00;137.10;-336.72;0.91;-85.79;-21.74;7.82 
2.519;-0.33;0.10;0.84;-0.42;0.21;0.63;66.00;137.10;-332.72;0.91;-85.87;-21.74;7.82 
2.549;-0.30;0.10;0.83;-0.49;0.70;0.49;62.00;134.23;-333.72;0.89;-85.95;-21.72;7.80 
2.580;-0.35;0.14;0.84;-0.56;1.11;0.63;63.00;134.23;-334.72;0.92;-86.03;-21.73;7.79 
2.610;-0.34;0.10;0.83;-0.63;0.07;0.70;63.00;136.14;-333.72;0.90;-86.12;-21.74;7.79 
2.640;-0.38;0.05;0.77;-0.42;0.21;-0.35;63.00;137.10;-335.72;0.86;-86.19;-21.74;7.76 
2.670;-0.33;0.12;0.78;-0.63;1.60;0.00;68.00;137.10;-335.72;0.86;-86.26;-21.75;7.76 
2.699;-0.33;0.10;0.80;-0.42;0.83;0.14;63.00;135.18;-332.72;0.87;-86.32;-21.76;7.74 
2.729;-0.33;0.13;0.82;-0.56;1.11;-0.07;63.00;139.02;-332.72;0.89;-86.39;-21.76;7.72 
2.759;-0.34;0.10;0.80;-0.63;1.46;-0.21;63.00;138.06;-336.72;0.87;-86.45;-21.79;7.71 
2.790;-0.36;0.12;0.83;0.00;1.60;0.42;66.00;137.10;-335.72;0.91;-86.53;-21.82;7.71 
2.820;-0.34;0.10;0.82;-0.42;0.56;0.21;64.00;136.14;-334.72;0.89;-86.60;-21.84;7.72 
2.850;-0.38;0.06;0.78;-0.49;-0.14;0.21;63.00;139.98;-335.72;0.87;-86.67;-21.84;7.70 
2.880;-0.33;0.10;0.82;-0.21;-0.28;0.07;62.00;138.06;-335.72;0.89;-86.73;-21.81;7.69 
2.910;-0.32;0.12;0.84;-0.63;0.35;0.49;64.00;137.10;-332.72;0.91;-86.78;-21.78;7.67 
2.940;-0.35;0.11;0.82;-0.63;1.04;0.35;64.00;137.10;-334.72;0.90;-86.85;-21.80;7.65 
2.970;-0.34;0.10;0.79;-0.56;0.49;-0.14;66.00;134.23;-334.72;0.87;-86.90;-21.89;7.60 
3.000;-0.34;0.08;0.81;-0.35;0.49;-0.28;65.00;134.23;-335.72;0.88;-86.97;-21.90;7.58 
3.030;-0.35;0.10;0.80;-0.56;0.83;-0.77;63.00;135.18;-332.72;0.88;-87.01;-21.88;7.55 
3.059;-0.34;0.12;0.82;-0.63;1.25;-0.56;63.00;137.10;-335.72;0.90;-87.05;-21.91;7.51 
3.089;-0.30;0.10;0.84;-0.70;1.18;-0.21;65.00;137.10;-335.72;0.90;-87.10;-21.94;7.49 
3.119;-0.34;0.11;0.82;-0.42;0.21;-0.28;62.00;135.18;-330.72;0.89;-87.15;-21.95;7.46 
3.149;-0.34;0.10;0.78;-0.35;-0.56;0.28;63.00;133.27;-334.72;0.86;-87.21;-21.92;7.46 
3.180;-0.33;0.12;0.81;-0.63;0.77;0.07;64.00;137.10;-337.72;0.88;-87.29;-21.92;7.46 
3.210;-0.34;0.11;0.82;-0.49;0.77;0.07;63.00;138.06;-335.72;0.89;-87.35;-21.92;7.43 
3.240;-0.35;0.09;0.84;-0.49;-0.14;0.49;62.00;136.14;-336.72;0.91;-87.41;-21.89;7.41 
3.269;-0.33;0.07;0.85;-0.56;0.21;-0.07;65.00;135.18;-338.71;0.91;-87.48;-21.85;7.39 
3.299;-0.31;0.10;0.80;-0.49;1.04;-0.35;66.00;138.06;-335.72;0.86;-87.53;-21.85;7.36 
3.329;-0.32;0.11;0.85;-0.28;1.04;-0.14;64.00;137.10;-332.72;0.91;-87.59;-21.89;7.36 
3.359;-0.34;0.13;0.83;-0.14;0.70;-0.28;64.00;135.18;-334.72;0.91;-87.65;-21.92;7.35 
3.390;-0.33;0.11;0.80;-0.21;-0.21;-0.21;63.00;132.31;-334.72;0.87;-87.70;-21.94;7.34 
3.420;-0.33;0.10;0.85;-0.56;1.18;-0.56;63.00;134.23;-332.72;0.92;-87.75;-21.91;7.32 
3.450;-0.33;0.12;0.81;-0.63;1.25;-0.35;63.00;139.02;-335.72;0.88;-87.79;-21.92;7.32 
3.480;-0.32;0.09;0.82;-0.14;0.42;-0.63;62.00;137.10;-337.72;0.88;-87.83;-21.92;7.29 
3.509;-0.32;0.12;0.82;0.00;0.14;-0.77;64.00;138.06;-334.72;0.89;-87.86;-21.92;7.25 
3.539;-0.34;0.11;0.82;0.21;0.07;-0.49;62.00;137.10;-334.72;0.89;-87.90;-21.92;7.23 
3.569;-0.32;0.10;0.83;0.07;0.21;-0.56;60.00;139.02;-328.72;0.90;-87.94;-21.92;7.23 
3.599;-0.32;0.10;0.81;0.07;0.49;-0.35;61.00;137.10;-337.72;0.88;-88.00;-21.92;7.23 
3.629;-0.34;0.10;0.82;-0.35;0.28;-0.35;64.00;135.18;-334.72;0.89;-88.04;-21.92;7.22 
3.659;-0.33;0.10;0.82;-0.14;0.42;-0.42;63.00;138.06;-335.72;0.89;-88.09;-21.90;7.21 
3.689;-0.31;0.13;0.86;-0.28;0.56;-0.49;63.00;136.14;-333.72;0.92;-88.13;-21.89;7.18 
3.718;-0.33;0.09;0.83;-0.28;0.97;0.07;64.00;136.14;-334.72;0.90;-88.19;-21.90;7.16 
3.748;-0.34;0.11;0.82;-0.35;0.97;-0.42;62.00;135.18;-334.72;0.89;-88.24;-21.91;7.14 
3.778;-0.34;0.13;0.80;0.07;0.42;-0.56;59.00;136.14;-335.72;0.88;-88.28;-21.92;7.11 
3.808;-0.32;0.11;0.80;0.07;0.28;-0.14;63.00;135.18;-333.72;0.87;-88.34;-21.94;7.10 
3.838;-0.35;0.10;0.83;-0.28;1.11;-0.56;63.00;135.18;-337.72;0.91;-88.40;-21.92;7.12 
3.868;-0.34;0.09;0.80;0.00;0.83;-0.28;61.00;135.18;-330.72;0.87;-88.45;-21.95;7.10 
3.899;-0.34;0.10;0.83;-0.35;0.83;0.14;61.00;134.23;-335.72;0.90;-88.51;-21.97;7.10 
3.928;-0.31;0.09;0.82;-0.63;0.63;0.28;61.00;136.14;-332.72;0.88;-88.58;-21.99;7.09 
3.958;-0.33;0.14;0.80;-0.28;1.11;0.28;59.00;138.06;-333.72;0.88;-88.65;-21.99;7.09 
3.989;-0.32;0.10;0.83;-0.07;1.32;0.28;61.00;135.18;-331.72;0.90;-88.74;-22.00;7.11 
4.019;-0.34;0.10;0.83;-0.28;1.32;0.07;60.00;139.02;-333.72;0.90;-88.82;-22.03;7.11 
4.049;-0.32;0.09;0.86;-0.14;1.46;-0.35;61.00;138.06;-333.72;0.92;-88.89;-22.04;7.10 
4.079;-0.32;0.11;0.81;-0.14;1.11;-0.77;63.00;137.10;-337.72;0.88;-88.95;-22.03;7.12 
4.109;-0.32;0.11;0.82;0.14;0.35;-0.35;61.00;134.23;-336.72;0.89;-89.01;-22.03;7.12 
4.138;-0.33;0.06;0.85;-0.14;1.39;-0.14;60.00;136.14;-334.72;0.91;-89.07;-22.02;7.11 
4.168;-0.34;0.12;0.84;-0.14;1.46;-0.56;61.00;138.06;-331.72;0.91;-89.11;-22.05;7.09 
4.199;-0.33;0.10;0.83;-0.21;0.90;0.21;60.00;137.10;-331.72;0.90;-89.17;-22.06;7.09 
4.229;-0.32;0.07;0.80;-0.21;0.14;0.00;59.00;139.02;-334.72;0.86;-89.23;-22.05;7.07 
4.259;-0.34;0.09;0.81;0.07;1.11;-0.83;63.00;137.10;-333.72;0.88;-89.26;-22.11;7.01 
4.290;-0.34;0.10;0.80;-0.42;1.67;-0.35;63.00;139.02;-334.72;0.87;-89.32;-22.13;7.01 
4.320;-0.34;0.14;0.82;0.14;2.09;-0.56;59.00;139.02;-332.72;0.90;-89.37;-22.19;7.02 
4.349;-0.34;0.11;0.80;0.14;1.11;-0.49;59.00;137.10;-331.72;0.88;-89.42;-22.25;7.00 
4.378;-0.35;0.11;0.85;0.14;-0.35;0.21;58.00;139.02;-333.72;0.93;-89.47;-22.25;7.01 
4.408;-0.33;0.10;0.82;0.28;0.07;0.14;58.00;139.02;-333.72;0.89;-89.53;-22.23;7.03 
4.438;-0.33;0.11;0.82;-0.14;1.53;0.35;61.00;137.10;-334.72;0.89;-89.61;-22.21;7.03 
4.468;-0.34;0.14;0.83;-0.14;1.74;0.63;60.00;140.94;-331.72;0.91;-89.69;-22.24;7.03 
4.499;-0.34;0.10;0.84;-0.28;0.21;0.42;61.00;138.06;-333.72;0.91;-89.77;-22.25;7.03 
4.529;-0.35;0.10;0.85;-0.07;-0.35;0.97;61.00;138.06;-333.72;0.92;-89.86;-22.24;7.03 
4.559;-0.35;0.10;0.82;-0.14;0.49;0.77;61.00;136.14;-330.72;0.90;-89.95;-22.23;7.04 
4.589;-0.34;0.12;0.82;-0.42;1.18;0.70;65.00;134.23;-335.72;0.90;-90.04;-22.22;7.03 
4.618;-0.35;0.10;0.84;-0.49;0.90;0.77;62.00;137.10;-333.72;0.92;-90.13;-22.23;7.02 
4.648;-0.34;0.10;0.82;-0.21;0.63;0.56;63.00;137.10;-332.72;0.89;-90.21;-22.24;7.01 
4.678;-0.32;0.11;0.80;-0.35;0.97;0.63;62.00;139.98;-332.72;0.87;-90.29;-22.25;7.02 
4.708;-0.34;0.10;0.84;-0.42;1.04;0.70;60.00;140.94;-332.72;0.91;-90.38;-22.28;7.02 
4.738;-0.34;0.10;0.83;-0.42;0.90;0.56;61.00;139.02;-336.72;0.90;-90.46;-22.29;7.00 
4.768;-0.34;0.10;0.83;-0.42;0.07;0.28;63.00;139.02;-332.72;0.90;-90.54;-22.29;7.00 
4.798;-0.32;0.11;0.82;-0.83;1.32;0.28;64.00;138.06;-333.72;0.89;-90.61;-22.29;6.99 
4.827;-0.35;0.12;0.83;-0.35;1.74;-0.35;61.00;137.10;-329.72;0.91;-90.67;-22.33;6.97 
4.857;-0.35;0.10;0.84;-0.42;0.35;-0.07;63.00;139.02;-331.72;0.92;-90.72;-22.36;6.95 
4.888;-0.34;0.11;0.82;-0.21;0.49;-0.49;61.00;139.02;-331.72;0.89;-90.77;-22.35;6.93 
4.918;-0.36;0.07;0.78;-0.14;1.32;-0.35;59.00;138.06;-331.72;0.86;-90.82;-22.37;6.92 
4.948;-0.32;0.10;0.82;-0.28;0.63;-0.28;64.00;139.02;-332.72;0.89;-90.88;-22.38;6.91 
4.978;-0.34;0.10;0.78;-0.21;0.56;-0.63;61.00;139.98;-330.72;0.86;-90.93;-22.39;6.89 
5.009;-0.30;0.14;0.86;-0.28;0.28;-0.49;58.00;139.98;-332.72;0.92;-90.97;-22.39;6.85 
5.038;-0.36;0.13;0.83;-0.35;0.28;-0.28;60.00;139.98;-334.72;0.91;-91.03;-22.38;6.86 
5.068;-0.34;0.10;0.82;-0.21;0.90;0.28;61.00;139.98;-330.72;0.89;-91.08;-22.38;6.84 
5.099;-0.34;0.09;0.85;-0.49;-0.35;-0.28;62.00;139.98;-330.72;0.92;-91.14;-22.37;6.81 
5.129;-0.36;0.09;0.78;-0.70;-0.63;-1.18;64.00;139.02;-333.72;0.86;-91.17;-22.34;6.78 
5.159;-0.33;0.10;0.84;0.07;0.56;-1.46;60.00;137.10;-328.72;0.91;-91.18;-22.32;6.75 
5.188;-0.32;0.08;0.82;0.28;0.56;-1.95;60.00;138.06;-334.72;0.88;-91.20;-22.33;6.73 
5.218;-0.36;0.11;0.81;0.35;0.35;-2.71;64.00;139.98;-333.72;0.89;-91.21;-22.34;6.76 
5.248;-0.33;0.09;0.84;0.56;0.07;-2.92;59.00;139.98;-331.72;0.91;-91.19;-22.36;6.73 
5.278;-0.35;0.10;0.82;0.42;-0.28;-3.06;61.00;135.18;-335.72;0.90;-91.17;-22.35;6.71 
5.309;-0.35;0.12;0.83;0.14;0.83;-2.02;60.00;139.02;-331.72;0.91;-91.16;-22.35;6.70 
5.339;-0.34;0.10;0.80;-0.21;0.21;-1.32;58.00;135.18;-331.72;0.87;-91.17;-22.37;6.67 
5.369;-0.39;0.12;0.84;-0.42;-0.90;-0.83;56.00;135.18;-330.72;0.93;-91.19;-22.36;6.65 
5.399;-0.34;0.10;0.84;-0.49;-1.25;0.21;57.00;135.18;-336.72;0.91;-91.25;-22.31;6.65 
5.429;-0.35;0.10;0.82;-0.97;0.42;-0.28;58.00;139.02;-332.72;0.90;-91.31;-22.31;6.64 
5.459;-0.35;0.13;0.81;-0.49;0.90;0.00;56.00;135.18;-333.72;0.89;-91.39;-22.33;6.65 
5.489;-0.31;0.16;0.88;-0.49;-0.56;0.42;55.00;136.14;-332.72;0.95;-91.45;-22.33;6.63 
5.519;-0.34;0.10;0.83;-0.42;-1.88;1.18;56.00;136.14;-330.72;0.90;-91.53;-22.27;6.63 
5.549;-0.35;0.11;0.82;-0.07;-2.16;0.83;56.00;135.18;-335.72;0.90;-91.62;-22.20;6.64 
5.579;-0.36;0.11;0.80;0.00;-2.57;1.39;53.00;135.18;-332.72;0.88;-91.71;-22.12;6.66 
5.609;-0.33;0.11;0.84;-0.14;-1.32;1.25;59.00;134.23;-336.72;0.91;-91.81;-22.03;6.69 
5.639;-0.33;0.10;0.82;-0.63;-0.77;1.11;57.00;136.14;-337.72;0.89;-91.91;-21.94;6.70 
5.669;-0.33;0.10;0.83;-1.11;0.90;1.32;58.00;136.14;-332.72;0.90;-92.02;-21.93;6.72 
5.699;-0.34;0.09;0.84;-1.74;2.78;1.53;57.00;132.31;-336.72;0.91;-92.13;-21.93;6.72 
5.729;-0.34;0.11;0.83;-1.88;-0.21;2.50;55.00;135.18;-337.72;0.90;-92.25;-21.95;6.71 
5.759;-0.33;0.10;0.81;-1.25;-0.49;2.92;59.00;134.23;-332.72;0.88;-92.40;-21.90;6.73 
5.789;-0.37;0.12;0.83;-1.67;1.32;3.13;55.00;135.18;-333.72;0.92;-92.55;-21.91;6.72 
5.820;-0.34;0.12;0.84;-1.67;1.46;3.55;62.00;133.27;-336.72;0.91;-92.73;-21.94;6.72 
5.849;-0.36;0.10;0.85;-1.11;0.42;2.64;59.00;134.23;-334.72;0.93;-92.88;-21.97;6.69 
5.879;-0.33;0.10;0.86;-0.70;-3.55;1.11;56.00;134.23;-334.72;0.93;-93.00;-21.89;6.68 
5.910;-0.32;0.10;0.80;-0.63;-4.94;-1.04;60.00;134.23;-334.72;0.87;-93.05;-21.74;6.65 
5.940;-0.31;0.09;0.82;-0.21;-0.42;-2.16;59.00;132.31;-335.72;0.88;-93.05;-21.63;6.60 
5.970;-0.30;0.10;0.83;0.90;2.92;-4.59;60.00;134.23;-338.71;0.89;-93.00;-21.63;6.55 
6.000;-0.30;0.14;0.86;0.90;3.34;-3.69;58.00;135.18;-337.72;0.92;-92.95;-21.72;6.55 
6.030;-0.34;0.14;0.84;0.07;-0.14;-2.37;58.00;132.31;-335.72;0.92;-92.93;-21.75;6.55 
6.060;-0.34;0.10;0.82;-0.56;-0.14;-2.02;54.00;134.23;-338.71;0.89;-92.94;-21.72;6.56 
6.090;-0.34;0.09;0.84;-1.25;1.32;-3.34;56.00;135.18;-335.72;0.91;-92.91;-21.71;6.49 
6.121;-0.30;0.10;0.85;-0.56;-0.14;-4.38;54.00;132.31;-334.72;0.91;-92.84;-21.71;6.39 
6.151;-0.34;0.10;0.85;0.14;-3.20;-3.83;54.00;133.27;-334.72;0.92;-92.77;-21.64;6.34 
6.181;-0.31;0.10;0.86;0.63;-3.34;-3.55;55.00;133.27;-336.72;0.92;-92.72;-21.54;6.34 
6.211;-0.31;0.12;0.88;0.49;-6.47;-3.69;52.00;131.35;-333.72;0.94;-92.66;-21.40;6.33 
6.241;-0.31;0.11;0.85;0.28;-9.04;-2.23;52.00;129.43;-341.71;0.91;-92.61;-21.17;6.31 
6.271;-0.32;0.13;0.82;-0.56;-8.28;-0.35;50.00;129.43;-338.71;0.89;-92.61;-20.88;6.32 
6.300;-0.33;0.09;0.78;-1.60;-1.46;1.39;53.00;126.56;-339.71;0.85;-92.68;-20.69;6.30 
6.329;-0.34;0.06;0.81;-2.43;3.41;1.53;50.00;127.51;-341.71;0.88;-92.77;-20.70;6.24 
6.359;-0.34;0.05;0.82;-2.64;3.76;1.39;52.00;127.51;-339.71;0.89;-92.87;-20.81;6.14 
6.389;-0.34;0.06;0.82;-3.62;4.73;1.60;51.00;129.43;-337.72;0.89;-92.97;-20.94;6.03 
6.420;-0.36;0.06;0.77;-4.59;6.12;2.16;48.00;130.39;-342.71;0.85;-93.09;-21.11;5.91 
6.450;-0.36;0.06;0.79;-4.45;8.28;2.57;52.00;129.43;-334.72;0.87;-93.24;-21.35;5.78 
6.480;-0.37;0.04;0.78;-3.90;10.92;1.32;50.00;131.35;-333.72;0.86;-93.37;-21.67;5.64 
6.510;-0.38;0.04;0.79;-2.85;11.27;0.97;44.00;136.14;-334.72;0.88;-93.48;-22.03;5.53 
6.539;-0.38;0.04;0.82;-3.62;12.45;-0.97;48.00;135.18;-330.72;0.90;-93.55;-22.42;5.41 
6.569;-0.36;0.06;0.82;-2.30;9.25;-1.39;49.00;138.06;-332.72;0.90;-93.58;-22.75;5.29 
6.599;-0.35;0.09;0.86;-1.39;7.51;-2.30;48.00;139.02;-327.72;0.93;-93.59;-23.01;5.20 
6.630;-0.37;0.07;0.77;-2.30;9.74;-2.85;43.00;140.94;-323.73;0.86;-93.59;-23.30;5.12 
6.660;-0.36;0.10;0.79;-3.06;15.03;-3.13;44.00;139.98;-322.73;0.87;-93.59;-23.68;5.01 
6.690;-0.37;0.11;0.82;-2.16;16.49;-2.23;40.00;144.77;-317.73;0.91;-93.61;-24.16;4.93 
6.721;-0.42;0.10;0.77;-2.85;17.74;-1.53;44.00;149.57;-317.73;0.88;-93.67;-24.70;4.90 
6.751;-0.42;0.08;0.78;-4.10;18.71;-3.62;42.00;148.61;-315.73;0.89;-93.70;-25.29;4.82 
6.780;-0.45;0.10;0.78;-2.85;17.67;-5.15;41.00;152.44;-314.73;0.91;-93.66;-25.91;4.65 
6.809;-0.43;0.08;0.80;-2.78;13.70;-4.31;37.00;152.44;-306.74;0.91;-93.62;-26.40;4.54 
6.839;-0.45;0.10;0.78;-2.64;13.91;-4.59;39.00;157.24;-306.74;0.91;-93.57;-26.86;4.45 
6.869;-0.38;0.19;0.85;-4.17;16.14;-3.90;32.00;159.15;-301.75;0.95;-93.55;-27.36;4.36 
6.899;-0.37;0.21;0.82;-5.43;23.17;0.35;35.00;160.11;-298.75;0.92;-93.60;-27.92;4.32 
6.930;-0.30;0.26;0.89;-6.12;29.01;10.16;35.00;164.91;-298.75;0.97;-93.92;-28.59;4.39 
6.960;-0.23;0.20;1.04;-3.13;20.03;23.30;35.00;168.74;-289.76;1.08;-94.60;-29.18;4.67 
6.990;-0.27;0.08;1.07;0.14;-6.82;25.95;42.00;172.58;-288.76;1.11;-95.42;-29.15;5.02 
7.021;-0.39;-0.05;0.91;-0.97;-27.97;23.17;43.00;171.62;-285.76;0.99;-96.21;-28.40;5.35 
7.051;-0.42;-0.06;0.78;-2.09;-33.04;10.23;48.00;162.03;-297.75;0.89;-96.70;-27.35;5.42 
7.081;-0.38;-0.07;0.73;-0.70;-29.08;0.97;51.00;162.03;-305.74;0.83;-96.83;-26.46;5.32 
7.111;-0.30;-0.07;0.75;2.23;-23.58;-7.44;52.00;158.19;-308.74;0.81;-96.70;-25.73;5.15 
7.142;-0.38;-0.15;0.70;5.15;-16.63;-14.26;50.00;155.32;-310.74;0.81;-96.30;-25.19;4.92 
7.172;-0.45;0.00;0.82;11.41;-2.02;-15.23;47.00;150.52;-313.74;0.94;-95.82;-24.94;4.78 
7.202;-0.42;0.10;0.99;12.17;5.63;-11.06;45.00;148.61;-313.74;1.08;-95.47;-25.04;4.92 
7.233;-0.45;0.10;0.98;2.30;-8.77;-5.15;47.00;150.52;-316.73;1.08;-95.31;-25.06;5.08 
7.263;-0.38;-0.05;0.86;-7.10;-29.01;-5.29;46.00;144.77;-319.73;0.94;-95.18;-24.46;4.95 
7.293;-0.26;-0.05;0.74;-11.97;-23.58;-10.57;43.00;141.90;-320.73;0.79;-94.91;-23.63;4.46 
7.323;-0.24;0.05;0.72;-13.43;-8.77;-7.10;37.00;138.06;-325.73;0.76;-94.63;-23.05;3.92 
7.353;-0.28;0.08;0.74;-7.23;4.80;-3.20;36.00;135.18;-327.72;0.80;-94.51;-22.91;3.58 
7.383;-0.29;0.10;0.81;3.20;9.32;5.22;33.00;139.98;-323.73;0.87;-94.63;-23.10;3.55 
7.413;-0.31;0.11;0.76;10.23;0.97;13.91;36.00;140.94;-322.73;0.83;-94.99;-23.22;3.90 
7.444;-0.34;0.13;0.77;13.98;0.28;18.99;42.00;139.98;-324.73;0.85;-95.57;-23.12;4.48 
7.474;-0.42;0.04;0.78;12.17;12.24;20.24;48.00;139.98;-324.73;0.89;-96.25;-23.25;5.15 
7.504;-0.45;-0.06;0.84;10.78;15.10;14.82;55.00;147.65;-321.73;0.95;-96.88;-23.69;5.64 
7.534;-0.43;0.00;0.83;13.08;2.78;6.68;61.00;147.65;-323.73;0.93;-97.24;-24.02;5.99 
7.564;-0.40;0.12;0.78;13.43;0.63;4.52;61.00;147.65;-320.73;0.88;-97.44;-24.06;6.39 
7.594;-0.45;0.17;0.78;9.81;12.03;1.60;69.00;150.52;-323.73;0.92;-97.64;-24.24;6.81 
7.624;-0.42;0.14;0.86;3.27;19.27;-4.87;67.00;151.48;-321.73;0.97;-97.72;-24.79;7.01 
7.655;-0.33;0.05;0.91;4.03;1.32;-9.88;67.00;152.44;-317.73;0.97;-97.57;-25.19;6.97 
7.685;-0.32;0.14;0.85;7.37;-11.41;-11.69;70.00;151.48;-317.73;0.92;-97.28;-24.94;6.97 
7.715;-0.30;0.21;0.81;10.43;-4.94;-10.85;67.00;148.61;-318.73;0.89;-97.00;-24.62;7.14 
7.746;-0.33;0.22;0.80;7.30;2.37;-9.11;64.00;149.57;-322.73;0.89;-96.81;-24.55;7.41 
7.775;-0.38;0.18;0.82;5.43;1.11;-6.82;67.00;148.61;-327.72;0.92;-96.67;-24.62;7.57 
7.805;-0.42;0.16;0.79;3.97;-2.85;-2.92;63.00;149.57;-324.73;0.91;-96.60;-24.60;7.70 
7.835;-0.38;0.11;0.78;2.57;-3.20;-1.39;65.00;146.69;-322.73;0.87;-96.60;-24.53;7.79 
7.865;-0.37;0.10;0.74;-2.50;0.77;-1.60;66.00;144.77;-322.73;0.83;-96.61;-24.51;7.79 
7.895;-0.35;0.12;0.76;-6.40;5.98;-3.83;65.00;145.73;-322.73;0.85;-96.60;-24.62;7.65 
7.925;-0.34;0.18;0.74;-10.64;5.36;-5.50;61.00;148.61;-320.73;0.83;-96.55;-24.80;7.43 
7.956;-0.28;0.25;0.76;-17.04;3.27;-6.12;54.00;148.61;-319.73;0.85;-96.47;-24.94;7.06 
7.986;-0.31;0.18;0.65;-22.54;6.54;-4.10;50.00;148.61;-318.73;0.74;-96.43;-25.07;6.55 
8.015;-0.36;0.16;0.66;-15.72;8.83;-7.58;50.00;150.52;-315.73;0.77;-96.37;-25.32;6.04 
8.044;-0.38;0.17;0.60;-10.02;2.23;-3.48;45.00;148.61;-316.73;0.73;-96.31;-25.62;5.74 
8.074;-0.14;0.14;0.45;-1.32;-6.19;-1.95;45.00;151.48;-314.73;0.49;-96.31;-25.58;5.65 
8.104;-0.12;0.17;0.37;-6.96;-5.36;15.10;44.00;150.52;-315.73;0.42;-96.56;-25.39;5.84 
8.134;-0.10;0.00;0.30;-7.37;-27.34;19.55;46.00;149.57;-317.73;0.32;-97.26;-24.82;6.06 
8.164;-0.04;-0.19;0.27;-16.77;-28.73;18.37;47.00;147.65;-323.73;0.33;-97.65;-23.64;5.58 
8.194;-0.15;-0.34;0.32;-13.01;-24.28;13.01;48.00;135.18;-327.72;0.49;-97.95;-22.74;4.76 
8.224;-0.35;-0.26;0.44;-0.28;-26.92;-7.65;45.00;139.02;-332.72;0.62;-97.92;-22.21;4.09 
8.255;-0.42;0.08;0.26;23.17;-69.15;-17.81;41.00;131.35;-337.72;0.50;-97.54;-21.33;3.91 
8.285;-0.42;0.49;0.50;6.54;-5.43;-2.71;47.00;119.84;-351.70;0.82;-97.11;-20.35;4.65 
8.315;-0.08;0.51;1.06;-18.78;3.20;-13.84;43.00;120.80;-349.71;1.18;-97.25;-20.29;4.75 
8.345;-0.33;0.05;1.01;-37.08;-10.16;5.77;35.00;121.76;-348.71;1.06;-97.26;-20.27;3.67 
8.375;-0.38;0.26;0.99;-15.65;-85.22;17.18;30.00;114.09;-347.71;1.09;-97.67;-19.03;3.06 
8.405;-0.22;0.46;0.77;-53.01;-114.57;1.32;23.00;94.92;-358.70;0.92;-98.09;-15.81;2.38 
8.435;-0.13;0.34;0.78;-86.54;-127.58;5.22;11.00;78.62;-369.69;0.86;-98.22;-12.42;0.64 
8.466;-0.06;-0.11;0.77;-66.78;-161.81;-4.73;-15.00;44.10;-384.68;0.78;-98.58;-8.19;-1.62 
8.496;0.19;-0.30;0.85;-54.12;-157.22;-25.74;-28.00;17.26;-394.67;0.92;-98.53;-3.13;-3.69 
8.526;0.18;-0.35;0.88;-67.48;-142.19;-56.49;-52.00;-13.42;-405.66;0.96;-97.94;1.61;-5.58 
8.557;0.34;0.02;0.90;-45.01;-128.77;-33.95;-84.00;-60.40;-405.66;0.96;-96.88;6.49;-7.45 
8.587;0.31;0.11;0.74;-27.20;-88.14;-32.42;-94.00;-79.58;-406.66;0.81;-96.52;10.17;-8.18 
8.617;0.00;0.08;0.49;-57.25;-67.76;-41.39;-107.00;-99.71;-408.66;0.50;-95.53;12.84;-9.11 
8.647;0.72;-1.67;3.03;-175.10;-248.49;32.63;-120.00;-102.59;-404.66;3.53;-94.82;13.88;-11.73 
8.676;1.12;-4.29;3.96;150.33;74.57;40.14;-141.00;-130.39;-406.66;5.94;-98.09;16.49;-14.23 
8.706;-0.48;2.18;-0.82;423.17;-390.12;38.68;-70.00;-116.01;-447.62;2.38;-98.64;15.73;-5.39 
8.736;1.54;1.18;0.00;-64.35;-97.88;58.23;-37.00;-170.66;-462.61;1.94;-97.88;20.06;-2.30 
8.767;0.42;0.58;-0.05;-47.79;65.04;95.72;-40.00;-175.45;-461.61;0.72;-100.13;21.03;-3.94 
8.797;0.26;0.26;0.19;-14.68;155.62;123.20;-49.00;-139.98;-456.62;0.41;-103.30;17.80;-5.61 
8.827;0.01;0.01;0.57;11.41;168.90;143.79;-42.00;-98.75;-448.62;0.57;-107.08;12.15;-6.51 
8.857;-0.14;-0.11;0.82;10.71;72.83;90.37;-34.00;-82.45;-445.62;0.84;-110.69;8.08;-6.90 
8.887;-0.21;-0.41;1.19;56.56;70.12;48.90;-17.00;-55.61;-442.63;1.28;-112.54;5.23;-6.40 
8.917;-1.31;-0.13;1.02;157.98;9.95;67.48;7.00;-41.23;-447.62;1.67;-114.34;3.00;-3.87 
8.947;-0.93;0.38;1.68;128.49;26.92;10.57;67.00;-35.47;-461.61;1.96;-115.80;2.43;1.26 
8.978;0.52;-0.84;2.30;-23.93;-77.50;-63.58;69.00;-32.60;-461.61;2.50;-114.18;2.08;2.13 
9.008;0.14;-0.40;0.96;-35.97;-247.17;-72.56;59.00;-58.48;-466.61;1.05;-112.59;7.41;1.13 
9.038;0.20;0.25;0.13;-24.56;-179.69;-103.58;36.00;-115.05;-468.61;0.35;-109.32;14.30;0.51 
9.069;0.52;0.58;0.00;16.90;-99.76;-60.03;32.00;-165.86;-472.60;0.78;-106.27;18.97;1.11 
9.099;1.06;0.76;0.07;26.71;10.85;-12.52;38.00;-177.37;-477.60;1.31;-104.86;21.12;2.71 
9.129;0.67;0.42;0.66;10.78;132.24;15.03;44.00;-167.78;-476.60;1.03;-105.43;19.33;3.48 
9.159;0.21;0.22;0.98;-12.66;134.75;1.39;46.00;-138.06;-474.60;1.03;-106.09;15.29;3.53 
9.190;0.09;0.03;1.26;6.40;43.62;9.11;44.00;-104.50;-465.61;1.26;-106.81;12.03;3.35 
9.220;0.17;0.05;1.01;12.03;-46.82;-0.97;45.00;-103.55;-465.61;1.03;-106.95;12.10;3.52 
9.250;0.34;0.16;0.82;10.99;-25.88;2.78;52.00;-116.01;-471.60;0.90;-106.88;13.32;3.91 
9.281;0.38;0.06;0.78;1.32;-6.47;3.20;56.00;-117.93;-472.60;0.87;-106.99;13.96;4.07 
9.311;0.34;-0.02;0.79;-3.13;3.48;-0.70;51.00;-118.89;-470.60;0.86;-107.08;14.11;4.01 
9.340;0.31;0.00;0.86;-3.55;8.49;-0.35;51.00;-120.80;-469.60;0.91;-107.13;13.96;3.88 
9.370;0.34;0.01;0.90;-2.85;-5.01;0.28;49.00;-119.84;-467.61;0.96;-107.20;13.95;3.69 
9.400;0.41;0.04;0.89;-3.55;-13.08;-1.53;48.00;-119.84;-469.60;0.98;-107.20;14.40;3.54 
9.430;0.39;0.02;0.79;-4.17;-8.97;-4.73;47.00;-124.64;-471.60;0.88;-107.12;14.92;3.39 
9.460;0.37;0.09;0.74;-2.92;0.28;-5.50;46.00;-123.68;-467.61;0.83;-106.97;15.23;3.31 
9.491;0.37;0.10;0.83;0.21;4.45;-2.23;47.00;-126.56;-470.60;0.91;-106.90;15.30;3.31 
9.521;0.36;0.09;0.87;2.16;0.42;-1.11;48.00;-122.72;-470.60;0.95;-106.90;15.35;3.37 
9.550;0.36;0.06;0.86;2.16;-1.95;-2.23;45.00;-124.64;-469.60;0.93;-106.90;15.48;3.45 
9.581;0.34;0.09;0.84;0.42;-0.14;-2.64;49.00;-125.60;-467.61;0.91;-106.87;15.64;3.51 
9.611;0.33;0.04;0.84;-0.83;1.67;-2.09;50.00;-125.60;-469.60;0.90;-106.85;15.72;3.51 
9.641;0.34;0.07;0.86;-0.83;0.56;-1.39;48.00;-125.60;-471.60;0.93;-106.84;15.76;3.47 
9.671;0.34;0.06;0.81;-0.97;-1.39;-0.14;47.00;-126.56;-471.60;0.88;-106.86;15.86;3.45 
9.702;0.35;0.10;0.82;-0.77;-1.95;1.11;49.00;-124.64;-469.60;0.90;-106.91;16.04;3.41 
9.732;0.33;0.02;0.81;-0.35;-1.60;0.83;49.00;-126.56;-472.60;0.87;-106.98;16.20;3.37 
9.762;0.39;0.03;0.80;0.28;-1.11;-0.14;46.00;-127.51;-473.60;0.89;-107.04;16.36;3.33 
9.792;0.34;0.08;0.82;0.35;1.74;-1.32;47.00;-126.56;-469.60;0.89;-107.07;16.48;3.31 
9.822;0.34;0.08;0.86;-0.21;2.16;-1.25;47.00;-126.56;-470.60;0.93;-107.09;16.50;3.28 
9.852;0.34;0.08;0.83;-0.28;0.42;-0.35;47.00;-125.60;-469.60;0.90;-107.12;16.53;3.25 
9.882;0.34;0.08;0.83;-0.35;-2.30;-0.70;49.00;-125.60;-472.60;0.90;-107.15;16.67;3.21 
9.912;0.37;0.06;0.83;-0.70;-2.43;-0.83;46.00;-126.56;-474.60;0.91;-107.17;16.84;3.18 
9.942;0.38;0.09;0.82;-0.28;0.63;-0.35;43.00;-127.51;-468.61;0.91;-107.18;16.97;3.17 
9.972;0.30;0.03;0.77;-0.35;1.18;-0.97;49.00;-126.56;-473.60;0.83;-107.21;17.03;3.16 
10.003;0.35;0.08;0.84;-0.21;0.83;-0.83;48.00;-128.47;-470.60;0.91;-107.22;17.09;3.16 
10.032;0.35;0.06;0.86;-0.07;-0.49;-0.42;46.00;-126.56;-470.60;0.93;-107.26;17.15;3.15 
10.061;0.34;0.06;0.80;-0.21;-0.21;-0.28;44.00;-127.51;-469.60;0.87;-107.28;17.24;3.13 
10.092;0.35;0.08;0.85;-0.56;0.77;-0.42;49.00;-128.47;-469.60;0.92;-107.32;17.31;3.09 
10.122;0.38;0.05;0.82;-0.56;0.49;-0.42;46.00;-129.43;-469.60;0.91;-107.36;17.36;3.04 
10.152;0.37;0.09;0.86;-0.56;0.07;-0.63;48.00;-127.51;-471.60;0.94;-107.41;17.46;2.97 
10.182;0.38;0.06;0.80;0.07;0.83;-0.49;48.00;-128.47;-471.60;0.89;-107.44;17.52;2.95 
10.212;0.35;0.10;0.82;0.00;0.49;-0.77;47.00;-129.43;-473.60;0.90;-107.48;17.61;2.94 
10.242;0.36;0.06;0.82;-0.21;0.28;-0.83;47.00;-127.51;-468.61;0.90;-107.50;17.66;2.92 
10.271;0.35;0.06;0.81;-0.49;-0.07;-0.63;47.00;-128.47;-472.60;0.88;-107.52;17.74;2.92 
10.302;0.38;0.05;0.86;-0.70;0.07;-0.90;49.00;-127.51;-473.60;0.94;-107.54;17.82;2.90 
10.332;0.37;0.07;0.86;-0.07;0.42;-0.21;48.00;-128.47;-469.60;0.94;-107.57;17.88;2.87 
10.362;0.35;0.09;0.82;0.07;0.14;0.14;47.00;-129.43;-470.60;0.90;-107.62;17.91;2.86 
10.392;0.35;0.08;0.82;-0.49;0.42;-0.21;50.00;-129.43;-473.60;0.90;-107.67;17.97;2.83 
10.422;0.38;0.06;0.82;-0.28;1.04;0.28;44.00;-129.43;-470.60;0.91;-107.71;18.00;2.83 
10.452;0.39;0.05;0.83;0.07;0.35;0.35;46.00;-129.43;-473.60;0.92;-107.77;18.04;2.81 
10.482;0.35;0.06;0.85;0.00;-0.35;0.63;48.00;-129.43;-468.61;0.92;-107.83;18.10;2.79 
10.513;0.36;0.10;0.82;0.07;0.35;0.14;47.00;-128.47;-472.60;0.90;-107.88;18.17;2.76 
10.542;0.36;0.06;0.86;-0.42;0.56;-0.07;47.00;-129.43;-473.60;0.93;-107.93;18.20;2.73 
10.571;0.35;0.08;0.81;-0.56;0.70;0.00;50.00;-130.39;-467.61;0.89;-107.98;18.22;2.70 
10.602;0.34;0.08;0.81;-0.21;0.28;0.07;49.00;-129.43;-472.60;0.88;-108.03;18.28;2.66 
10.632;0.37;0.06;0.83;-0.14;0.28;0.21;44.00;-128.47;-473.60;0.91;-108.08;18.31;2.63 
10.662;0.37;0.07;0.83;-0.21;0.28;0.07;47.00;-129.43;-469.60;0.91;-108.13;18.35;2.60 
10.692;0.37;0.07;0.82;-0.28;0.77;0.07;46.00;-130.39;-470.60;0.90;-108.18;18.42;2.57 
10.722;0.36;0.08;0.81;-0.21;0.90;0.42;46.00;-130.39;-475.60;0.89;-108.24;18.44;2.54 
10.751;0.37;0.05;0.82;-0.35;0.56;0.21;48.00;-130.39;-471.60;0.90;-108.30;18.47;2.48 
10.781;0.38;0.11;0.89;-0.28;0.70;0.28;46.00;-128.47;-472.60;0.97;-108.36;18.52;2.46 
10.812;0.35;0.07;0.84;-0.07;0.42;-0.07;47.00;-129.43;-473.60;0.91;-108.41;18.54;2.46 
10.842;0.37;0.08;0.84;-0.14;0.42;0.28;48.00;-127.51;-473.60;0.92;-108.46;18.57;2.42 
10.872;0.37;0.07;0.83;-0.14;0.56;0.07;47.00;-127.51;-470.60;0.91;-108.52;18.59;2.40 
10.903;0.34;0.09;0.82;-0.56;0.21;0.00;48.00;-130.39;-469.60;0.89;-108.56;18.61;2.39 
10.932;0.35;0.07;0.82;-0.28;0.00;-0.21;45.00;-129.43;-475.60;0.89;-108.59;18.66;2.37 
10.962;0.36;0.07;0.81;0.14;0.77;-0.28;45.00;-127.51;-470.60;0.89;-108.64;18.71;2.35 
10.992;0.34;0.08;0.81;0.14;0.97;0.77;49.00;-128.47;-474.60;0.88;-108.69;18.71;2.34 
11.022;0.38;0.10;0.84;-0.35;-0.07;0.70;48.00;-127.51;-473.60;0.93;-108.77;18.72;2.31 
11.052;0.37;0.06;0.82;0.14;0.77;0.28;47.00;-131.35;-472.60;0.90;-108.82;18.76;2.28 
11.082;0.37;0.06;0.84;-0.14;1.04;0.28;51.00;-128.47;-469.60;0.92;-108.88;18.78;2.25 
11.112;0.38;0.07;0.86;-0.35;0.77;0.42;47.00;-128.47;-471.60;0.94;-108.93;18.79;2.23 
11.141;0.38;0.08;0.83;-0.07;0.07;0.07;45.00;-130.39;-474.60;0.92;-108.98;18.81;2.21 
11.171;0.35;0.09;0.81;-0.42;0.49;0.21;50.00;-130.39;-470.60;0.89;-109.04;18.84;2.17 
11.202;0.37;0.06;0.82;-0.35;0.77;-0.56;49.00;-130.39;-469.60;0.90;-109.08;18.87;2.15 
11.232;0.35;0.06;0.83;-0.07;0.63;-0.07;47.00;-130.39;-471.60;0.90;-109.12;18.87;2.13 
11.262;0.35;0.09;0.84;-0.07;0.63;-0.07;50.00;-130.39;-467.61;0.91;-109.16;18.88;2.13 
11.292;0.32;0.05;0.80;-0.42;0.63;0.00;44.00;-129.43;-469.60;0.86;-109.21;18.88;2.10 
11.321;0.35;0.10;0.84;-0.28;0.56;0.35;48.00;-129.43;-467.61;0.92;-109.26;18.92;2.08 
11.350;0.37;0.06;0.81;-0.28;0.77;0.14;46.00;-129.43;-470.60;0.89;-109.31;18.93;2.04 
11.380;0.34;0.10;0.83;-0.35;0.90;0.28;48.00;-128.47;-466.61;0.90;-109.37;18.94;2.02 
11.411;0.38;0.09;0.86;-0.14;0.77;0.28;46.00;-129.43;-469.60;0.94;-109.42;18.93;2.01 
11.441;0.34;0.09;0.82;-0.35;0.49;-0.07;47.00;-128.47;-469.60;0.89;-109.47;18.94;1.98 
11.471;0.38;0.11;0.82;-0.42;0.42;0.00;46.00;-131.35;-469.60;0.91;-109.51;18.96;1.94 
11.501;0.36;0.08;0.82;0.07;0.28;-0.21;45.00;-130.39;-471.60;0.90;-109.55;18.99;1.93 
11.530;0.39;0.12;0.87;-0.35;0.35;-0.28;43.00;-127.51;-469.60;0.96;-109.58;19.00;1.91 
11.559;0.40;0.10;0.89;-0.21;0.56;-0.07;46.00;-128.47;-474.60;0.98;-109.61;19.02;1.89 
11.589;0.38;0.06;0.83;-0.35;0.21;-0.21;48.00;-130.39;-468.61;0.91;-109.65;19.05;1.88 
11.619;0.37;0.06;0.82;-0.35;0.00;-0.77;48.00;-130.39;-469.60;0.90;-109.67;19.09;1.87 
11.649;0.36;0.10;0.84;-0.07;0.35;-0.56;48.00;-131.35;-469.60;0.92;-109.69;19.12;1.88 
11.679;0.34;0.07;0.81;-0.07;0.28;-0.07;48.00;-129.43;-470.60;0.88;-109.73;19.11;1.83 
11.710;0.38;0.07;0.81;-0.49;-0.83;0.00;48.00;-130.39;-472.60;0.90;-109.77;19.15;1.82 
11.740;0.38;0.09;0.82;-0.28;0.70;-0.21;47.00;-129.43;-472.60;0.91;-109.80;19.18;1.82 
11.769;0.38;0.07;0.81;-0.28;1.11;-0.21;45.00;-129.43;-472.60;0.90;-109.84;19.17;1.80 
11.800;0.34;0.07;0.82;-0.42;-0.07;-0.07;47.00;-127.51;-471.60;0.89;-109.87;19.15;1.81 
11.830;0.38;0.07;0.82;-0.35;-0.63;-0.63;47.00;-131.35;-467.61;0.91;-109.90;19.18;1.81 
11.860;0.36;0.08;0.82;-0.77;0.42;-0.63;47.00;-130.39;-473.60;0.90;-109.92;19.21;1.80 
11.890;0.38;0.08;0.82;-0.42;0.90;-0.63;47.00;-132.31;-469.60;0.91;-109.94;19.20;1.79 
11.921;0.36;0.06;0.80;-0.07;0.35;-0.56;45.00;-130.39;-473.60;0.88;-109.97;19.19;1.78 
11.951;0.39;0.07;0.82;-0.49;0.00;-0.42;47.00;-129.43;-471.60;0.91;-110.00;19.21;1.77 
11.980;0.36;0.08;0.82;-0.35;0.21;-0.42;50.00;-128.47;-471.60;0.90;-110.02;19.21;1.77 
12.010;0.38;0.07;0.83;-0.21;0.77;-0.35;47.00;-130.39;-470.60;0.92;-110.05;19.23;1.77 
12.040;0.35;0.06;0.86;-0.14;0.63;-0.35;47.00;-128.47;-468.61;0.93;-110.08;19.21;1.77 
12.070;0.32;0.00;0.73;-0.42;0.42;-0.14;46.00;-132.31;-472.60;0.80;-110.12;19.22;1.75 
12.100;0.38;0.08;0.82;-0.35;0.28;-0.49;48.00;-130.39;-474.60;0.91;-110.14;19.24;1.76 
12.130;0.36;0.10;0.84;-0.49;0.70;-0.28;44.00;-130.39;-470.60;0.92;-110.18;19.24;1.76 
12.160;0.36;0.08;0.86;-0.21;0.90;-0.35;45.00;-130.39;-473.60;0.94;-110.21;19.23;1.77 
12.190;0.47;0.09;0.87;0.07;0.28;-0.14;48.00;-130.39;-475.60;0.99;-110.25;19.24;1.74 
12.220;0.38;0.06;0.85;-0.49;0.49;-0.07;45.00;-132.31;-473.60;0.93;-110.29;19.23;1.75 
12.250;0.38;0.07;0.84;-0.07;0.70;-0.28;46.00;-131.35;-470.60;0.92;-110.33;19.24;1.74 
12.280;0.36;0.08;0.83;-0.28;0.35;0.42;44.00;-128.47;-470.60;0.91;-110.37;19.24;1.72 
12.311;0.37;0.05;0.83;-0.35;0.56;0.49;47.00;-130.39;-467.61;0.91;-110.42;19.25;1.72 
12.341;0.35;0.08;0.82;-0.07;0.35;0.07;47.00;-130.39;-475.60;0.90;-110.47;19.25;1.71 
12.371;0.37;0.09;0.82;-0.49;-0.14;-0.07;47.00;-129.43;-470.60;0.90;-110.51;19.25;1.71 
12.401;0.40;0.10;0.86;-0.14;-0.14;0.28;47.00;-130.39;-470.60;0.95;-110.55;19.27;1.66 
12.430;0.36;0.06;0.84;0.00;0.77;0.21;47.00;-132.31;-469.60;0.92;-110.59;19.28;1.66 
12.460;0.36;0.07;0.80;0.14;0.14;0.90;47.00;-131.35;-473.60;0.88;-110.64;19.28;1.65 
12.490;0.37;0.09;0.81;-0.21;0.35;0.28;48.00;-133.27;-469.60;0.90;-110.70;19.29;1.66 
12.521;0.35;0.06;0.80;0.00;1.46;0.77;46.00;-128.47;-474.60;0.88;-110.75;19.29;1.66 
12.551;0.34;0.02;0.81;-0.28;-0.07;0.07;46.00;-130.39;-470.60;0.88;-110.81;19.28;1.63 
12.581;0.34;0.10;0.86;0.00;0.56;0.77;44.00;-133.27;-472.60;0.93;-110.86;19.29;1.63 
12.611;0.39;0.08;0.80;-0.35;0.83;0.42;47.00;-130.39;-472.60;0.89;-110.91;19.27;1.62 
12.641;0.36;0.09;0.83;-0.21;-0.07;-0.07;46.00;-131.35;-469.60;0.91;-110.95;19.25;1.63 
12.671;0.37;0.05;0.80;-0.14;0.21;0.00;47.00;-129.43;-468.61;0.88;-110.98;19.27;1.63 
12.701;0.35;0.07;0.82;0.07;0.97;0.00;45.00;-130.39;-471.60;0.89;-111.02;19.28;1.62 
12.732;0.38;0.07;0.85;-0.07;0.83;0.63;47.00;-131.35;-471.60;0.93;-111.07;19.25;1.61 
12.761;0.38;0.06;0.86;-0.28;0.42;0.14;47.00;-132.31;-471.60;0.94;-111.12;19.25;1.60 
12.791;0.34;0.06;0.78;-0.42;0.70;0.14;45.00;-129.43;-470.60;0.85;-111.16;19.22;1.59 
12.822;0.36;0.09;0.83;-0.07;0.70;0.49;48.00;-133.27;-470.60;0.91;-111.21;19.21;1.59 
12.852;0.37;0.07;0.82;-0.14;0.90;0.21;44.00;-129.43;-473.60;0.90;-111.26;19.22;1.61 
12.882;0.39;0.05;0.82;-0.21;0.49;0.21;43.00;-132.31;-472.60;0.91;-111.30;19.23;1.60 
12.912;0.32;0.04;0.77;-0.14;0.42;-0.14;42.00;-129.43;-470.60;0.83;-111.35;19.22;1.60 
12.941;0.35;0.06;0.83;-0.07;0.42;0.21;45.00;-131.35;-470.60;0.90;-111.38;19.21;1.60 
12.971;0.38;0.06;0.83;0.28;0.42;0.21;45.00;-132.31;-468.61;0.91;-111.42;19.23;1.62 
13.001;0.35;0.06;0.82;0.00;1.32;0.28;47.00;-131.35;-471.60;0.89;-111.47;19.20;1.64 
13.032;0.37;0.10;0.82;0.00;1.04;0.42;46.00;-130.39;-469.60;0.91;-111.52;19.19;1.63 
13.062;0.30;0.04;0.82;-0.28;0.70;0.28;44.00;-130.39;-471.60;0.87;-111.57;19.18;1.63 
13.092;0.39;0.08;0.83;-0.28;0.63;0.21;47.00;-129.43;-474.60;0.92;-111.62;19.15;1.63 
13.121;0.37;0.07;0.80;-0.49;0.21;0.56;46.00;-131.35;-470.60;0.88;-111.67;19.14;1.64 
13.151;0.36;0.07;0.82;-0.28;0.21;0.63;48.00;-130.39;-472.60;0.90;-111.72;19.15;1.65 
13.181;0.44;0.09;0.90;-0.49;0.83;0.70;45.00;-131.35;-470.60;1.01;-111.77;19.17;1.63 
13.211;0.36;0.09;0.80;-0.56;0.97;0.70;45.00;-130.39;-471.60;0.88;-111.83;19.17;1.61 
13.241;0.38;0.07;0.87;-0.56;0.35;-0.07;46.00;-130.39;-471.60;0.95;-111.89;19.14;1.59 
13.271;0.38;0.06;0.83;0.00;0.21;0.00;45.00;-128.47;-470.60;0.91;-111.93;19.15;1.57 
13.300;0.37;0.07;0.80;0.28;0.42;0.21;44.00;-129.43;-471.60;0.88;-111.96;19.15;1.58 
13.331;0.40;0.11;0.78;0.07;-0.28;0.83;45.00;-132.31;-472.60;0.88;-112.01;19.16;1.58 
13.361;0.37;0.08;0.81;-0.21;0.42;0.21;44.00;-133.27;-469.60;0.89;-112.07;19.18;1.59 
13.391;0.38;0.06;0.80;0.14;1.46;0.21;47.00;-129.43;-472.60;0.89;-112.11;19.19;1.60 
13.421;0.36;0.10;0.85;0.14;0.97;0.21;48.00;-130.39;-470.60;0.93;-112.17;19.19;1.58 
13.450;0.37;0.06;0.85;0.07;0.07;0.07;49.00;-133.27;-469.60;0.93;-112.20;19.20;1.59 
13.480;0.35;0.08;0.82;-0.21;-0.07;0.21;48.00;-131.35;-470.60;0.90;-112.24;19.21;1.61 
13.510;0.35;0.08;0.86;-0.42;0.70;-0.42;45.00;-130.39;-469.60;0.93;-112.27;19.23;1.59 
13.540;0.37;0.08;0.84;-0.35;0.63;-0.21;47.00;-129.43;-470.60;0.92;-112.30;19.23;1.61 
13.570;0.35;0.07;0.82;-0.21;0.63;0.21;44.00;-129.43;-470.60;0.89;-112.33;19.21;1.62 
13.600;0.38;0.08;0.82;-0.28;0.21;-0.56;47.00;-128.47;-471.60;0.91;-112.36;19.22;1.63 
13.630;0.36;0.06;0.82;-0.35;0.63;0.07;46.00;-134.23;-471.60;0.90;-112.38;19.25;1.62 
13.660;0.38;0.08;0.84;-0.42;0.42;-0.56;44.00;-131.35;-468.61;0.93;-112.41;19.25;1.63 
13.690;0.38;0.08;0.83;-0.42;0.42;-0.35;45.00;-130.39;-469.60;0.92;-112.45;19.25;1.62 
13.720;0.38;0.06;0.84;-0.35;0.14;-0.21;47.00;-131.35;-472.60;0.92;-112.48;19.24;1.62 
13.750;0.36;0.06;0.81;-0.14;0.63;-0.49;46.00;-131.35;-473.60;0.89;-112.50;19.26;1.60 
13.780;0.36;0.06;0.81;-0.21;0.49;-0.35;44.00;-130.39;-472.60;0.89;-112.52;19.26;1.60 
13.810;0.39;0.10;0.83;-0.35;0.56;-0.63;44.00;-131.35;-470.60;0.92;-112.55;19.25;1.60 
13.841;0.38;0.04;0.83;-0.21;0.28;-0.49;43.00;-130.39;-472.60;0.91;-112.57;19.27;1.61 
13.870;0.38;0.09;0.83;-0.14;0.00;-0.42;49.00;-132.31;-470.60;0.92;-112.59;19.28;1.62 
13.900;0.37;0.06;0.82;-0.49;0.28;-0.35;44.00;-131.35;-471.60;0.90;-112.60;19.27;1.64 
13.931;0.35;0.06;0.85;-0.49;0.35;-0.49;45.00;-131.35;-472.60;0.92;-112.62;19.28;1.62 
13.961;0.36;0.07;0.84;-0.28;0.70;-0.42;43.00;-132.31;-472.60;0.92;-112.66;19.28;1.61 
13.991;0.34;0.06;0.84;0.00;0.14;-0.63;44.00;-130.39;-470.60;0.91;-112.68;19.28;1.62 
14.021;0.38;0.04;0.82;0.07;0.07;-0.42;48.00;-131.35;-471.60;0.90;-112.70;19.28;1.63 
14.050;0.42;0.09;0.80;-0.14;0.21;-0.63;44.00;-130.39;-473.60;0.91;-112.73;19.31;1.60 
14.080;0.38;0.07;0.80;-0.14;0.63;-0.70;42.00;-131.35;-472.60;0.89;-112.75;19.32;1.61 
14.110;0.38;0.06;0.84;-0.07;0.77;-0.77;48.00;-132.31;-476.60;0.92;-112.78;19.28;1.58 
14.141;0.36;0.08;0.80;-0.49;0.35;-1.04;47.00;-131.35;-472.60;0.88;-112.78;19.28;1.61 
14.171;0.39;0.12;0.89;0.00;0.07;-0.56;46.00;-131.35;-470.60;0.98;-112.79;19.28;1.62 
14.201;0.38;0.06;0.83;0.07;-0.28;-0.28;44.00;-129.43;-473.60;0.91;-112.82;19.25;1.62 
14.231;0.37;0.06;0.84;-0.21;-0.21;0.14;46.00;-131.35;-473.60;0.92;-112.85;19.27;1.64 
14.261;0.39;0.06;0.82;-0.21;0.56;0.00;47.00;-133.27;-471.60;0.91;-112.88;19.30;1.65 
14.291;0.38;0.06;0.83;-0.56;0.70;-0.14;46.00;-131.35;-472.60;0.91;-112.91;19.32;1.64 
14.321;0.35;0.08;0.84;-0.28;0.35;0.00;46.00;-131.35;-472.60;0.91;-112.94;19.28;1.65 
14.350;0.38;0.07;0.83;0.00;0.00;-0.28;46.00;-130.39;-471.60;0.92;-112.97;19.29;1.67 
14.380;0.36;0.07;0.82;-0.35;-0.35;-0.28;48.00;-132.31;-471.60;0.90;-113.00;19.31;1.66 
14.410;0.38;0.06;0.80;-0.56;0.35;-0.28;48.00;-129.43;-471.60;0.89;-113.02;19.35;1.65 
14.441;0.36;0.08;0.81;-0.35;0.49;-0.63;47.00;-134.23;-476.60;0.89;-113.04;19.34;1.66 
14.471;0.32;0.05;0.79;-0.28;0.49;-0.28;47.00;-134.23;-474.60;0.85;-113.06;19.32;1.68 
14.501;0.38;0.10;0.81;-0.49;0.21;-0.35;43.00;-134.23;-472.60;0.90;-113.08;19.33;1.70 
14.531;0.38;0.08;0.84;-0.35;0.56;-0.07;45.00;-135.18;-468.61;0.93;-113.10;19.32;1.73 
14.560;0.37;0.10;0.83;-0.21;0.90;0.42;46.00;-132.31;-471.60;0.91;-113.14;19.31;1.75 
14.589;0.34;0.07;0.81;-0.28;0.70;0.07;43.00;-132.31;-472.60;0.88;-113.18;19.30;1.75 
14.619;0.37;0.08;0.82;-0.35;0.63;0.21;45.00;-130.39;-474.60;0.90;-113.22;19.28;1.77 
14.649;0.37;0.07;0.82;-0.14;0.42;0.28;47.00;-131.35;-471.60;0.90;-113.26;19.29;1.77 
14.679;0.38;0.07;0.84;-0.35;0.42;-0.07;46.00;-135.18;-471.60;0.92;-113.30;19.28;1.77 
14.709;0.36;0.07;0.82;-0.14;0.49;0.63;45.00;-133.27;-472.60;0.90;-113.35;19.26;1.76 
14.740;0.38;0.07;0.82;-0.21;0.63;0.21;47.00;-132.31;-473.60;0.91;-113.40;19.26;1.78 
14.770;0.38;0.05;0.81;0.00;0.63;0.42;45.00;-135.18;-470.60;0.90;-113.45;19.24;1.79 
14.800;0.40;0.06;0.83;-0.14;1.11;0.56;48.00;-133.27;-468.61;0.92;-113.49;19.23;1.81 
14.830;0.35;0.07;0.82;-0.35;0.77;0.49;47.00;-136.14;-470.60;0.89;-113.55;19.22;1.80 
14.860;0.38;0.06;0.81;-0.35;0.63;0.49;46.00;-133.27;-471.60;0.90;-113.60;19.21;1.81 
14.890;0.36;0.10;0.82;-0.42;0.49;0.28;47.00;-131.35;-473.60;0.90;-113.66;19.21;1.79 
14.920;0.37;0.06;0.80;-0.28;0.70;0.00;46.00;-133.27;-470.60;0.88;-113.69;19.21;1.80 
14.951;0.38;0.07;0.80;-0.14;0.63;0.49;47.00;-134.23;-473.60;0.89;-113.74;19.19;1.81 
14.980;0.36;0.07;0.86;0.00;0.56;0.35;47.00;-131.35;-476.60;0.93;-113.79;19.19;1.78 
15.010;0.38;0.03;0.77;0.14;0.77;0.35;44.00;-133.27;-473.60;0.86;-113.85;19.20;1.75 
15.041;0.35;0.08;0.83;-0.35;0.07;0.28;49.00;-132.31;-468.61;0.90;-113.90;19.21;1.75 
15.071;0.38;0.08;0.82;-0.21;0.42;-0.07;46.00;-129.43;-469.60;0.91;-113.94;19.22;1.76 
15.101;0.36;0.08;0.84;0.00;0.49;-0.07;44.00;-135.18;-472.60;0.92;-113.97;19.21;1.77 
15.131;0.35;0.06;0.82;0.21;0.35;0.28;45.00;-134.23;-471.60;0.89;-114.00;19.20;1.80 
15.160;0.36;0.06;0.82;0.00;0.00;1.04;41.00;-132.31;-469.60;0.90;-114.06;19.19;1.82 
15.190;0.38;0.08;0.84;-0.21;0.56;0.56;44.00;-134.23;-471.60;0.93;-114.12;19.23;1.82 
15.220;0.38;0.06;0.86;-0.14;1.32;0.56;44.00;-134.23;-470.60;0.94;-114.18;19.21;1.79 
15.251;0.38;0.07;0.84;-0.28;1.18;0.35;45.00;-132.31;-472.60;0.92;-114.24;19.19;1.79 
15.281;0.37;0.06;0.83;0.00;0.35;0.35;48.00;-132.31;-474.60;0.91;-114.28;19.19;1.81 
15.310;0.38;0.07;0.81;-0.42;0.21;0.14;48.00;-132.31;-472.60;0.90;-114.33;19.19;1.82 
15.339;0.36;0.07;0.82;-0.14;0.83;0.00;46.00;-131.35;-469.60;0.90;-114.36;19.18;1.83 
15.369;0.37;0.07;0.83;-0.21;0.63;-0.28;43.00;-134.23;-471.60;0.91;-114.39;19.18;1.83 
15.399;0.36;0.07;0.80;-0.21;0.70;0.42;46.00;-133.27;-470.60;0.88;-114.44;19.16;1.83 
15.429;0.39;0.06;0.82;-0.28;0.07;0.14;44.00;-132.31;-469.60;0.91;-114.47;19.15;1.84 
15.459;0.38;0.07;0.82;-0.21;0.14;0.42;46.00;-135.18;-468.61;0.91;-114.51;19.17;1.84 
15.489;0.36;0.10;0.78;-0.14;1.11;0.14;44.00;-131.35;-470.60;0.86;-114.55;19.16;1.83 
15.518;0.36;0.06;0.83;-0.35;0.77;0.07;42.00;-132.31;-471.60;0.91;-114.59;19.16;1.82 
15.549;0.35;0.08;0.83;-0.07;0.21;0.49;42.00;-131.35;-472.60;0.90;-114.64;19.15;1.84 
15.579;0.38;0.06;0.82;-0.21;0.07;0.07;45.00;-134.23;-471.60;0.91;-114.68;19.16;1.85 
15.609;0.38;0.06;0.80;-0.21;0.77;0.21;45.00;-134.23;-470.60;0.89;-114.72;19.16;1.84 
15.640;0.38;0.08;0.82;-0.14;0.77;0.21;47.00;-132.31;-470.60;0.91;-114.76;19.16;1.85 
15.670;0.35;0.07;0.84;-0.35;0.70;-0.21;46.00;-133.27;-471.60;0.91;-114.79;19.15;1.87 
15.700;0.38;0.07;0.84;0.00;0.21;0.28;46.00;-131.35;-470.60;0.92;-114.83;19.17;1.88 
15.730;0.37;0.07;0.79;-0.07;0.35;0.07;45.00;-134.23;-472.60;0.88;-114.86;19.19;1.89 
15.761;0.38;0.07;0.82;-0.21;0.70;0.14;47.00;-131.35;-473.60;0.91;-114.90;19.20;1.91 
15.791;0.38;0.05;0.85;0.00;0.77;0.07;45.00;-133.27;-471.60;0.93;-114.94;19.18;1.93 
15.821;0.36;0.08;0.82;-0.35;0.49;-0.28;45.00;-132.31;-474.60;0.90;-114.97;19.16;1.93 
15.852;0.38;0.08;0.81;0.07;0.63;0.07;44.00;-133.27;-472.60;0.90;-115.02;19.18;1.92 
15.882;0.38;0.05;0.85;-0.07;0.83;0.14;44.00;-132.31;-467.61;0.93;-115.05;19.17;1.96 
15.911;0.38;0.06;0.82;-0.28;0.70;0.00;46.00;-131.35;-472.60;0.91;-115.09;19.14;1.94 
15.941;0.38;0.07;0.83;-0.07;0.42;0.14;45.00;-132.31;-467.61;0.92;-115.13;19.16;1.92 
15.971;0.38;0.05;0.82;-0.07;0.14;-0.28;44.00;-133.27;-469.60;0.91;-115.16;19.16;1.94 
16.001;0.37;0.06;0.83;0.07;0.56;0.28;42.00;-131.35;-470.60;0.91;-115.20;19.16;1.97 
16.031;0.37;0.06;0.87;-0.35;0.21;-0.21;39.00;-131.35;-472.60;0.95;-115.23;19.17;1.96 
16.061;0.39;0.06;0.80;-0.21;-0.14;-0.28;46.00;-134.23;-469.60;0.89;-115.26;19.21;1.96 
16.091;0.35;0.10;0.84;-0.07;0.83;-0.14;46.00;-133.27;-470.60;0.92;-115.28;19.21;1.97 
16.121;0.37;0.09;0.83;0.07;0.56;0.28;42.00;-134.23;-472.60;0.91;-115.32;19.20;1.99 
16.152;0.39;0.08;0.80;-0.49;-0.07;0.42;47.00;-134.23;-471.60;0.89;-115.36;19.23;2.00 
16.181;0.36;0.06;0.80;-0.49;0.49;0.35;44.00;-135.18;-471.60;0.88;-115.40;19.25;1.99 
16.211;0.38;0.07;0.82;-0.35;1.25;0.35;45.00;-134.23;-470.60;0.91;-115.45;19.23;1.99 
16.241;0.37;0.08;0.82;-0.14;0.42;-0.21;43.00;-130.39;-469.60;0.90;-115.49;19.22;2.00 
16.271;0.36;0.06;0.83;-0.21;0.14;0.00;43.00;-129.43;-470.60;0.91;-115.52;19.23;2.01 
16.301;0.34;0.08;0.80;-0.42;0.00;-0.56;45.00;-133.27;-471.60;0.87;-115.54;19.24;2.03 
16.331;0.37;0.07;0.82;-0.28;0.70;-0.49;45.00;-133.27;-470.60;0.90;-115.55;19.24;2.04 
16.362;0.36;0.09;0.84;-0.21;0.49;-0.49;46.00;-133.27;-474.60;0.92;-115.57;19.23;2.08 
16.391;0.36;0.10;0.82;-0.49;0.21;-0.28;45.00;-135.18;-470.60;0.90;-115.59;19.24;2.08 
16.420;0.37;0.10;0.82;-0.28;0.21;-0.21;46.00;-135.18;-472.60;0.91;-115.60;19.24;2.11 
16.450;0.38;0.07;0.83;-0.35;0.56;-0.35;46.00;-132.31;-471.60;0.92;-115.62;19.23;2.12 
16.480;0.38;0.08;0.86;-0.49;0.70;-0.35;44.00;-135.18;-469.60;0.94;-115.64;19.24;2.13 
16.510;0.36;0.07;0.82;-0.42;0.42;-0.07;45.00;-134.23;-471.60;0.90;-115.68;19.22;2.15 
16.540;0.37;0.06;0.82;-0.49;0.56;-0.35;44.00;-133.27;-469.60;0.90;-115.70;19.22;2.15 
16.571;0.36;0.08;0.81;-0.42;0.21;-0.70;47.00;-133.27;-473.60;0.89;-115.72;19.24;2.15 
16.601;0.39;0.06;0.82;-0.07;0.49;-0.35;47.00;-133.27;-471.60;0.91;-115.74;19.24;2.16 
16.630;0.38;0.08;0.83;-0.42;0.56;-0.35;45.00;-132.31;-472.60;0.92;-115.76;19.24;2.16 
16.661;0.35;0.06;0.81;-0.42;0.21;-0.70;49.00;-132.31;-472.60;0.88;-115.78;19.21;2.18 
16.691;0.38;0.06;0.81;-0.21;0.35;-0.42;43.00;-133.27;-473.60;0.90;-115.80;19.19;2.21 
16.721;0.36;0.06;0.80;-0.21;0.56;-0.49;45.00;-133.27;-472.60;0.88;-115.82;19.19;2.23 
16.751;0.36;0.08;0.79;-0.21;0.35;-0.49;46.00;-132.31;-469.60;0.87;-115.84;19.19;2.24 
16.781;0.37;0.07;0.86;-0.42;0.42;-0.21;46.00;-130.39;-471.60;0.94;-115.86;19.18;2.23 
16.811;0.38;0.07;0.81;-0.14;0.07;-0.70;45.00;-135.18;-467.61;0.90;-115.89;19.18;2.24 
16.841;0.36;0.07;0.82;-0.42;0.35;-0.63;47.00;-133.27;-471.60;0.90;-115.90;19.18;2.25 
16.872;0.36;0.07;0.79;-0.49;0.77;-0.49;44.00;-131.35;-473.60;0.87;-115.92;19.19;2.26 
16.901;0.38;0.09;0.83;-0.28;0.56;-0.49;46.00;-135.18;-470.60;0.92;-115.93;19.18;2.27 
16.931;0.38;0.08;0.84;-0.35;0.35;-0.49;46.00;-133.27;-466.61;0.93;-115.95;19.17;2.29 
16.962;0.42;0.10;0.87;-0.28;0.28;-0.35;47.00;-133.27;-473.60;0.97;-115.96;19.20;2.32 
16.992;0.38;0.13;0.78;-0.07;0.49;-0.49;47.00;-133.27;-470.60;0.88;-115.98;19.21;2.33 
17.022;0.40;0.06;0.84;-0.28;0.35;-0.77;43.00;-133.27;-477.60;0.93;-115.99;19.21;2.35 
17.052;0.40;0.07;0.82;-0.90;1.32;-1.18;46.00;-133.27;-471.60;0.92;-115.99;19.20;2.36 
17.083;0.41;0.12;0.88;-0.77;1.32;-2.57;43.00;-135.18;-468.61;0.98;-115.98;19.19;2.33 
17.112;0.38;0.07;0.82;-0.97;1.39;-4.80;47.00;-133.27;-470.60;0.91;-115.91;19.15;2.35 
17.141;0.37;0.08;0.78;-0.56;5.50;-8.90;45.00;-132.31;-474.60;0.87;-115.80;19.06;2.39 
17.172;0.30;0.08;0.77;-0.56;12.66;-12.31;44.00;-134.23;-471.60;0.83;-115.53;18.81;2.51 
17.202;0.34;0.05;0.85;0.42;16.28;-14.75;47.00;-127.51;-474.60;0.92;-115.22;18.37;2.59 
17.232;0.25;0.03;0.88;4.03;12.10;-16.35;47.00;-126.56;-472.60;0.92;-114.88;17.85;2.78 
17.262;0.26;0.06;0.95;1.67;6.54;-23.10;45.00;-124.64;-470.60;0.99;-114.43;17.50;3.02 
