Time(s) acc_x(g) acc_y(g) acc_z(g) gyr_x(°/s) gyr_y(°/s) gyr_z(°/s) mag_x(G) mag_y(G) mag_z(G) SVM(g) yaw(°) pitch(°) roll(°)
0.000;-0.23;0.51;0.74;0.07;2.43;-2.92;235.80;-45.05;-356.00;0.93;-156.17;-14.22;34.92 
0.030;-0.21;0.50;0.74;-0.90;1.67;-1.39;233.81;-42.17;-354.00;0.92;-156.33;-14.23;34.83 
0.060;-0.21;0.49;0.72;-0.49;3.97;-0.28;237.80;-42.17;-356.00;0.90;-156.53;-14.25;34.77 
0.091;-0.18;0.50;0.74;-0.56;4.87;-1.25;237.80;-45.05;-356.00;0.91;-156.74;-14.30;34.71 
0.121;-0.21;0.50;0.73;0.28;0.77;0.49;239.80;-44.09;-354.00;0.91;-156.97;-14.30;34.67 
0.150;-0.23;0.52;0.71;0.63;1.25;-1.60;236.80;-41.22;-355.00;0.91;-157.17;-14.26;34.65 
0.180;-0.24;0.53;0.70;-0.42;4.73;-1.32;237.80;-42.17;-354.00;0.91;-157.32;-14.32;34.62 
0.210;-0.25;0.31;0.69;18.85;-0.42;1.53;232.81;-43.13;-354.00;0.80;-157.49;-14.51;34.55 
0.239;-0.23;0.49;0.81;-17.53;9.88;-8.63;237.80;-40.26;-348.00;0.97;-157.57;-15.08;34.26 
0.268;-0.26;0.54;0.83;-0.14;-4.80;3.90;230.81;-37.38;-350.00;1.02;-157.71;-15.24;34.18 
0.297;-0.26;0.57;0.75;0.21;-14.89;5.36;236.80;-37.38;-350.00;0.98;-158.06;-14.84;34.24 
0.326;-0.25;0.61;0.67;0.42;-9.04;3.34;233.81;-43.13;-351.00;0.94;-158.41;-14.46;34.34 
0.355;-0.18;0.47;0.65;-0.70;0.42;-0.77;237.80;-47.93;-353.00;0.82;-158.65;-14.28;34.33 
0.384;-0.19;0.51;0.70;-2.16;10.30;-4.45;235.80;-43.13;-353.00;0.89;-158.80;-14.39;34.27 
0.414;-0.22;0.54;0.78;-2.43;7.30;-3.55;232.81;-41.22;-345.00;0.97;-158.89;-14.64;34.19 
0.444;-0.23;0.52;0.77;-1.88;1.11;-0.28;232.81;-37.38;-352.00;0.96;-159.06;-14.72;34.08 
0.473;-0.22;0.51;0.77;-0.63;-1.04;2.16;232.81;-39.30;-351.00;0.95;-159.31;-14.65;34.01 
0.502;-0.24;0.51;0.74;0.70;-1.46;2.37;233.81;-42.17;-349.00;0.93;-159.58;-14.56;33.99 
0.532;-0.24;0.46;0.70;1.11;-0.07;1.11;232.81;-40.26;-351.00;0.87;-159.83;-14.49;34.00 
0.562;-0.23;0.47;0.75;1.32;1.39;-0.56;234.80;-43.13;-354.00;0.91;-160.04;-14.48;34.02 
0.591;-0.21;0.51;0.70;0.70;1.67;-0.83;232.81;-42.17;-350.00;0.89;-160.23;-14.48;34.00 
0.620;-0.23;0.50;0.74;0.07;-0.63;-1.39;232.81;-41.22;-350.00;0.92;-160.41;-14.47;33.99 
0.650;-0.26;0.50;0.74;-0.21;1.67;-1.53;233.81;-42.17;-352.00;0.93;-160.59;-14.46;33.97 
0.680;-0.26;0.50;0.75;-0.63;2.16;-1.25;233.81;-40.26;-352.00;0.94;-160.74;-14.51;33.93 
0.710;-0.32;0.49;0.77;-0.97;-0.28;1.11;232.81;-41.22;-352.00;0.97;-160.92;-14.55;33.88 
0.740;-0.31;0.50;0.64;-1.95;0.97;5.15;232.81;-41.22;-350.00;0.87;-161.16;-14.55;33.84 
0.770;-0.22;0.52;0.62;-1.32;13.70;6.89;235.80;-41.22;-348.00;0.84;-161.53;-14.63;33.89 
0.800;-0.14;0.58;0.70;-4.66;16.21;5.15;238.80;-37.38;-346.00;0.92;-161.95;-14.84;33.96 
0.830;-0.10;0.54;0.83;-8.49;-1.95;6.40;235.80;-34.51;-347.00;1.00;-162.42;-14.83;33.89 
0.861;-0.13;0.42;0.78;-4.66;-26.30;0.49;230.81;-41.22;-348.00;0.90;-162.86;-14.24;33.68 
0.891;-0.14;0.35;0.73;3.62;-29.84;-10.43;232.81;-46.01;-351.00;0.82;-163.02;-13.43;33.53 
0.920;-0.21;0.44;0.66;7.58;-13.36;-16.77;229.81;-48.88;-356.00;0.82;-162.81;-13.09;33.50 
0.950;-0.26;0.51;0.66;13.22;-11.90;-14.26;229.81;-49.84;-356.00;0.87;-162.54;-13.10;33.63 
0.980;-0.26;0.56;0.66;10.23;-31.37;-5.50;235.80;-48.88;-362.00;0.90;-162.36;-12.84;33.99 
1.010;-0.21;0.48;0.37;-0.83;-46.82;8.77;232.81;-58.47;-363.00;0.64;-162.60;-11.94;34.32 
1.040;-0.18;0.33;0.16;-8.90;-39.72;10.50;232.81;-68.05;-370.00;0.41;-163.08;-10.77;34.49 
1.070;-0.12;0.28;0.07;-2.43;15.37;-0.14;232.81;-68.05;-375.00;0.31;-163.40;-10.42;34.63 
1.100;0.03;0.30;0.30;4.45;53.08;3.06;232.81;-68.05;-372.00;0.43;-163.65;-11.23;34.99 
1.129;0.16;0.19;0.45;-3.62;29.01;20.59;235.80;-57.51;-358.00;0.51;-164.30;-11.90;35.08 
1.160;0.23;0.14;0.40;-9.11;-3.76;15.23;233.81;-56.55;-359.00;0.48;-165.39;-11.24;34.81 
1.190;-0.05;0.20;0.50;-5.01;-8.35;12.24;236.80;-57.51;-361.00;0.54;-166.16;-10.60;34.54 
1.220;-0.30;0.22;0.58;-4.73;-47.44;24.07;234.80;-59.43;-363.00;0.69;-166.91;-9.71;34.36 
1.250;-0.35;0.26;0.51;0.90;-80.00;13.84;240.80;-76.68;-372.00;0.67;-167.57;-8.08;34.20 
1.280;-0.10;0.20;0.41;4.94;-63.72;5.84;240.80;-88.18;-380.00;0.47;-167.91;-6.25;34.25 
1.310;0.02;0.21;0.33;-2.09;-29.70;-13.50;238.80;-98.73;-388.00;0.39;-168.01;-5.17;34.27 
1.340;-0.07;0.41;0.49;2.99;-26.64;-11.62;236.80;-101.60;-385.00;0.64;-167.86;-4.70;34.19 
1.371;-0.29;0.65;0.83;0.97;-23.30;16.49;231.81;-105.44;-385.00;1.09;-167.96;-4.15;34.38 
1.401;-0.47;0.62;1.26;26.71;-46.82;22.82;228.81;-110.23;-383.00;1.48;-168.98;-3.13;34.48 
1.431;0.30;1.06;1.28;-2.99;-92.87;15.51;228.81;-113.10;-381.00;1.69;-169.24;-1.79;34.24 
1.462;0.39;0.77;0.71;-25.88;-108.87;25.67;227.81;-126.52;-387.00;1.12;-170.46;1.53;33.97 
1.492;0.37;0.62;0.71;-64.56;-95.30;28.52;214.82;-155.28;-397.00;1.01;-171.43;4.89;32.58 
1.522;0.33;0.31;1.50;3.69;-108.03;74.43;202.83;-167.74;-401.00;1.57;-172.36;8.30;30.52 
1.552;0.38;0.40;0.87;57.53;-31.93;66.43;210.82;-184.03;-398.00;1.03;-175.32;11.80;31.10 
1.581;0.70;0.33;0.66;32.00;-31.44;52.45;217.82;-189.78;-387.00;1.02;-177.52;13.33;31.63 
1.611;0.34;0.27;0.30;34.57;-60.03;59.62;231.81;-204.16;-384.00;0.53;-179.93;15.83;31.98 
1.641;1.30;0.54;0.81;18.85;119.51;-19.62;238.80;-211.83;-388.00;1.62;178.35;17.20;32.02 
1.672;-0.47;0.70;2.44;54.26;318.54;-40.70;238.80;-172.53;-374.00;2.58;178.88;8.79;32.84 
1.702;1.17;2.26;2.04;-21.43;-71.86;-91.90;250.79;-139.94;-370.00;3.26;-178.89;4.21;35.88 
1.732;-0.32;0.62;0.82;-106.09;-277.63;118.19;221.82;-193.62;-396.00;1.08;-179.13;8.88;33.58 
1.762;-0.58;0.34;0.63;-34.78;-137.81;71.93;200.83;-247.29;-406.00;0.92;178.48;16.16;30.33 
1.792;-0.24;0.10;0.34;-3.97;16.83;33.04;185.85;-260.71;-403.00;0.43;177.37;17.22;29.73 
1.821;0.35;0.16;0.23;-12.80;-21.77;3.06;187.84;-258.80;-405.00;0.45;176.53;17.60;29.02 
1.851;0.19;0.54;0.54;-22.68;-12.52;-10.37;187.84;-266.46;-411.00;0.79;176.43;18.59;28.48 
1.881;0.02;0.67;1.08;7.37;96.21;-11.97;186.84;-263.59;-411.00;1.27;176.73;17.28;28.37 
1.911;0.07;0.61;1.37;22.82;100.94;-18.30;188.84;-243.46;-408.00;1.50;176.99;13.93;28.81 
1.941;0.47;0.58;1.02;11.06;-45.43;6.40;182.85;-234.83;-403.00;1.26;177.00;12.91;29.12 
1.972;0.46;0.19;0.51;17.88;-94.68;30.68;184.85;-251.13;-402.00;0.71;175.82;15.60;29.06 
2.002;0.50;0.00;0.37;17.18;-17.32;-4.87;196.84;-264.55;-403.00;0.62;174.56;18.14;28.97 
2.032;0.46;0.32;0.66;3.20;55.58;-39.23;197.84;-260.71;-402.00;0.87;174.75;17.61;29.22 
2.062;0.42;0.66;0.91;-0.49;41.39;-25.39;197.84;-247.29;-398.00;1.20;175.56;15.75;29.42 
2.092;0.36;0.64;0.79;3.69;-35.97;10.02;196.84;-243.46;-401.00;1.08;175.57;15.58;29.49 
2.122;0.33;0.59;0.61;8.83;-40.28;19.20;194.84;-254.00;-401.00;0.91;174.78;16.97;29.52 
2.152;0.32;0.50;0.58;7.30;-6.68;13.01;195.84;-260.71;-404.00;0.83;173.91;17.90;29.57 
2.183;0.29;0.51;0.68;3.34;0.00;12.03;200.83;-263.59;-406.00;0.90;173.23;18.22;29.49 
2.213;0.30;0.50;0.67;7.03;3.27;14.12;201.83;-266.46;-405.00;0.89;172.55;18.45;29.44 
2.242;0.24;0.46;0.65;9.95;9.11;8.42;204.83;-267.42;-402.00;0.83;171.93;18.50;29.47 
2.272;0.26;0.50;0.77;8.56;14.68;8.07;203.83;-263.59;-403.00;0.95;171.41;18.30;29.57 
2.301;0.26;0.51;0.80;6.82;10.57;5.98;205.83;-262.63;-406.00;0.98;170.96;18.05;29.62 
2.331;0.27;0.51;0.82;4.73;0.56;4.73;207.83;-261.67;-404.00;1.00;170.58;17.92;29.63 
2.361;0.38;0.50;0.78;0.97;-18.78;7.03;209.83;-262.63;-399.00;1.00;170.17;18.23;29.58 
2.391;0.46;0.42;0.55;-2.23;-25.67;9.74;211.82;-265.51;-400.00;0.83;169.56;19.16;29.36 
2.421;0.35;0.42;0.52;-2.71;6.61;-5.22;211.82;-272.22;-400.00;0.75;169.13;19.78;29.18 
2.451;0.36;0.46;0.71;0.56;12.87;-10.99;210.82;-268.38;-401.00;0.92;169.16;19.42;29.14 
2.482;0.37;0.50;0.74;6.82;-0.70;-9.18;208.83;-263.59;-399.00;0.97;169.22;19.13;29.22 
2.512;0.34;0.52;0.76;8.77;-8.14;-4.03;213.82;-263.59;-402.00;0.98;169.13;19.17;29.45 
2.542;0.32;0.53;0.66;7.17;-11.34;4.87;216.82;-267.42;-399.00;0.90;168.82;19.47;29.65 
2.573;0.31;0.54;0.62;5.22;6.19;8.97;219.82;-268.38;-398.00;0.88;168.30;19.71;29.72 
2.603;0.34;0.50;0.70;4.17;8.14;7.86;220.82;-267.42;-399.00;0.92;167.80;19.67;29.75 
2.633;0.34;0.44;0.69;-0.83;5.84;4.03;221.82;-268.38;-397.00;0.89;167.36;19.66;29.68 
2.663;0.37;0.50;0.71;-4.31;4.80;-3.97;220.82;-265.51;-397.00;0.94;167.13;19.62;29.51 
2.694;0.34;0.51;0.72;-5.01;3.20;-6.33;222.81;-264.55;-395.00;0.95;167.09;19.48;29.37 
2.724;0.34;0.52;0.73;-5.29;1.95;-4.94;219.82;-265.51;-400.00;0.96;167.07;19.41;29.22 
2.754;0.33;0.51;0.75;-4.17;-0.42;-1.81;217.82;-261.67;-397.00;0.97;167.00;19.36;29.09 
2.785;0.32;0.48;0.72;-2.16;-1.81;2.43;219.82;-260.71;-401.00;0.92;166.75;19.48;28.93 
2.815;0.34;0.46;0.71;-0.63;0.28;1.53;216.82;-260.71;-397.00;0.91;166.45;19.59;28.79 
2.845;0.30;0.44;0.74;0.28;-0.63;0.14;220.82;-265.51;-397.00;0.91;166.20;19.63;28.68 
2.875;0.34;0.46;0.74;0.00;-4.10;-1.46;222.81;-265.51;-402.00;0.94;165.99;19.74;28.61 
2.905;0.34;0.49;0.71;1.04;-1.88;-1.25;221.82;-264.55;-401.00;0.93;165.77;19.85;28.57 
2.935;0.31;0.54;0.70;2.50;1.74;-1.25;222.81;-266.46;-401.00;0.94;165.57;19.91;28.62 
2.965;0.33;0.56;0.74;3.20;3.34;-0.97;220.82;-262.63;-402.00;0.98;165.39;19.80;28.74 
2.996;0.34;0.53;0.73;3.90;-4.24;2.57;219.82;-261.67;-399.00;0.96;165.12;19.84;28.82 
3.026;0.38;0.53;0.66;2.71;-2.92;1.95;223.81;-261.67;-401.00;0.93;164.75;20.08;28.88 
3.056;0.37;0.52;0.66;0.42;3.62;-1.25;223.81;-265.51;-400.00;0.92;164.47;20.19;28.98 
3.085;0.35;0.54;0.67;-0.70;2.50;-1.25;225.81;-263.59;-398.00;0.93;164.30;20.13;29.01 
3.115;0.32;0.51;0.70;-0.90;0.63;-0.77;226.81;-264.55;-399.00;0.92;164.12;20.12;29.00 
3.145;0.34;0.51;0.69;-1.32;1.46;0.00;224.81;-267.42;-397.00;0.92;163.91;20.13;28.95 
3.174;0.34;0.50;0.76;-1.95;0.77;0.70;224.81;-261.67;-400.00;0.97;163.70;20.15;28.84 
3.203;0.36;0.49;0.72;-1.88;1.11;0.63;222.81;-260.71;-398.00;0.94;163.46;20.22;28.73 
3.232;0.34;0.53;0.71;-0.83;-1.60;3.34;222.81;-265.51;-402.00;0.95;163.21;20.26;28.67 
3.262;0.33;0.50;0.66;-1.25;0.35;2.23;222.81;-264.55;-401.00;0.89;162.91;20.40;28.60 
3.293;0.35;0.48;0.71;-0.77;-1.18;1.39;220.82;-264.55;-400.00;0.93;162.64;20.46;28.53 
3.322;0.36;0.50;0.70;0.07;0.42;0.77;218.82;-265.51;-400.00;0.93;162.38;20.53;28.50 
3.351;0.33;0.50;0.73;0.77;-0.90;1.25;220.82;-264.55;-399.00;0.94;162.14;20.58;28.46 
3.381;0.33;0.51;0.74;1.25;-4.59;2.92;223.81;-266.46;-400.00;0.96;161.87;20.70;28.42 
3.410;0.37;0.50;0.72;0.70;-0.77;3.06;221.82;-266.46;-402.00;0.95;161.55;20.87;28.37 
3.439;0.35;0.51;0.68;0.35;1.81;2.78;223.81;-266.46;-400.00;0.92;161.25;20.96;28.35 
3.468;0.35;0.50;0.69;0.35;1.46;3.62;223.81;-267.42;-400.00;0.92;160.95;20.99;28.31 
3.497;0.36;0.47;0.69;0.35;0.56;2.99;220.82;-267.42;-401.00;0.91;160.62;21.07;28.25 
3.526;0.39;0.50;0.70;-0.21;1.67;0.21;219.82;-265.51;-399.00;0.94;160.36;21.14;28.22 
3.555;0.36;0.50;0.65;0.14;2.30;0.63;221.82;-263.59;-399.00;0.90;160.15;21.14;28.22 
3.584;0.35;0.54;0.72;0.07;1.81;0.35;222.81;-270.30;-401.00;0.97;159.92;21.14;28.22 
3.614;0.37;0.49;0.72;-0.35;-1.39;3.06;218.82;-269.34;-401.00;0.95;159.68;21.17;28.18 
3.644;0.36;0.50;0.68;-1.95;1.11;1.60;221.82;-270.30;-399.00;0.92;159.40;21.29;28.11 
3.675;0.34;0.49;0.71;-2.57;3.97;0.21;221.82;-268.38;-401.00;0.93;159.16;21.27;28.04 
3.704;0.36;0.50;0.74;-2.16;3.41;0.56;220.82;-266.46;-398.00;0.96;158.96;21.22;27.96 
3.734;0.34;0.50;0.74;-1.81;1.60;0.21;220.82;-265.51;-401.00;0.96;158.77;21.19;27.90 
3.764;0.34;0.49;0.74;-0.70;-0.63;-1.04;219.82;-265.51;-402.00;0.95;158.56;21.22;27.84 
3.793;0.36;0.51;0.71;-0.28;0.56;-1.25;219.82;-267.42;-402.00;0.95;158.37;21.27;27.82 
3.823;0.33;0.50;0.72;-0.63;3.13;-2.09;219.82;-263.59;-400.00;0.94;158.22;21.23;27.84 
3.853;0.34;0.51;0.74;-0.28;1.60;-1.46;218.82;-264.55;-402.00;0.96;158.07;21.17;27.86 
3.882;0.34;0.49;0.73;0.56;1.25;-1.18;218.82;-266.46;-397.00;0.94;157.90;21.15;27.87 
3.912;0.35;0.46;0.74;0.56;-0.42;-1.11;219.82;-264.55;-400.00;0.94;157.72;21.18;27.87 
3.942;0.35;0.48;0.70;1.11;1.74;-1.60;219.82;-264.55;-403.00;0.92;157.54;21.20;27.90 
3.971;0.36;0.49;0.75;0.28;-0.63;-1.25;220.82;-263.59;-401.00;0.97;157.37;21.19;27.95 
4.000;0.34;0.54;0.74;0.21;-3.48;0.70;220.82;-261.67;-401.00;0.98;157.18;21.26;27.98 
4.029;0.35;0.51;0.71;-0.35;-2.71;2.23;223.81;-264.55;-402.00;0.94;156.94;21.42;27.98 
4.059;0.36;0.47;0.68;-0.49;-5.01;2.57;218.82;-266.46;-398.00;0.90;156.64;21.60;27.92 
4.088;0.35;0.45;0.70;0.07;-1.25;0.63;218.82;-269.34;-401.00;0.90;156.36;21.79;27.87 
4.117;0.38;0.50;0.71;-0.21;0.70;-0.70;219.82;-267.42;-399.00;0.95;156.16;21.84;27.87 
4.147;0.35;0.51;0.70;-1.04;-2.30;0.28;218.82;-268.38;-403.00;0.93;155.98;21.89;27.88 
4.176;0.38;0.50;0.69;-0.77;-3.13;2.43;219.82;-271.26;-399.00;0.93;155.72;22.03;27.83 
4.205;0.36;0.46;0.70;-0.70;-2.50;2.09;219.82;-271.26;-399.00;0.91;155.45;22.18;27.79 
4.235;0.38;0.46;0.72;-1.18;-0.77;0.70;218.82;-271.26;-399.00;0.94;155.21;22.27;27.74 
4.264;0.36;0.50;0.73;-0.97;-1.53;0.07;222.81;-271.26;-398.00;0.96;155.03;22.30;27.70 
4.294;0.35;0.49;0.71;-1.04;-1.25;-0.07;222.81;-274.13;-398.00;0.93;154.83;22.38;27.69 
4.324;0.38;0.50;0.74;-0.49;-0.97;-0.70;219.82;-271.26;-403.00;0.97;154.65;22.43;27.68 
4.354;0.37;0.51;0.69;-0.07;-3.55;0.28;218.82;-275.09;-401.00;0.93;154.44;22.54;27.69 
4.384;0.37;0.52;0.66;0.49;-0.77;1.46;219.82;-277.01;-401.00;0.92;154.21;22.64;27.71 
4.414;0.38;0.50;0.66;0.97;-0.70;1.67;216.82;-273.17;-398.00;0.91;153.95;22.74;27.73 
4.445;0.37;0.52;0.68;0.21;-0.07;1.81;221.82;-275.09;-400.00;0.93;153.69;22.81;27.74 
4.475;0.35;0.48;0.65;0.00;-1.53;1.04;219.82;-274.13;-401.00;0.88;153.44;22.92;27.73 
4.505;0.37;0.48;0.64;0.07;2.37;0.49;216.82;-276.05;-400.00;0.88;153.21;22.97;27.74 
4.535;0.39;0.48;0.70;0.28;0.83;0.21;216.82;-275.09;-400.00;0.93;153.01;22.96;27.74 
4.565;0.38;0.46;0.70;-0.28;-0.83;0.90;218.82;-277.01;-400.00;0.92;152.76;23.05;27.72 
4.595;0.39;0.46;0.67;-0.21;2.85;-1.04;217.82;-277.01;-401.00;0.90;152.54;23.08;27.72 
4.624;0.38;0.48;0.73;-0.14;5.63;-1.88;221.82;-277.97;-403.00;0.95;152.40;22.99;27.73 
4.653;0.35;0.51;0.73;-0.49;4.45;-2.30;220.82;-273.17;-401.00;0.96;152.28;22.85;27.76 
4.682;0.38;0.51;0.70;-0.21;2.02;-0.77;220.82;-272.22;-400.00;0.95;152.15;22.78;27.79 
4.711;0.36;0.48;0.69;0.00;1.18;-0.21;218.82;-273.17;-400.00;0.91;151.98;22.77;27.81 
4.742;0.36;0.47;0.70;-0.07;1.81;-0.83;220.82;-273.17;-402.00;0.92;151.79;22.76;27.81 
4.772;0.34;0.48;0.68;0.07;1.39;-0.90;221.82;-272.22;-400.00;0.90;151.62;22.74;27.85 
4.802;0.37;0.49;0.70;0.00;3.55;-1.11;220.82;-272.22;-401.00;0.93;151.46;22.70;27.86 
4.833;0.35;0.51;0.74;-0.07;0.90;-0.21;219.82;-269.34;-405.00;0.96;151.28;22.65;27.87 
4.863;0.37;0.48;0.71;0.49;0.21;0.28;220.82;-269.34;-398.00;0.93;151.08;22.68;27.90 
4.893;0.37;0.47;0.68;0.63;0.28;-0.07;219.82;-271.26;-397.00;0.91;150.88;22.73;27.94 
4.923;0.38;0.51;0.70;0.21;3.83;-1.11;223.81;-269.34;-400.00;0.95;150.70;22.71;27.96 
4.953;0.38;0.50;0.73;0.00;2.16;-1.32;219.82;-269.34;-402.00;0.96;150.55;22.62;28.00 
4.982;0.35;0.50;0.71;-0.07;0.28;-0.83;222.81;-267.42;-403.00;0.94;150.40;22.61;28.04 
5.011;0.34;0.49;0.66;-0.28;1.18;-0.07;224.81;-268.38;-401.00;0.89;150.24;22.59;28.08 
5.042;0.34;0.51;0.67;-0.83;1.81;0.00;224.81;-268.38;-402.00;0.91;150.07;22.58;28.11 
5.072;0.31;0.50;0.66;0.00;0.21;-0.83;223.81;-269.34;-402.00;0.88;149.90;22.55;28.15 
5.102;0.35;0.50;0.70;0.00;-0.21;-0.70;220.82;-269.34;-398.00;0.93;149.73;22.58;28.18 
5.133;0.38;0.48;0.70;-1.04;4.73;-1.67;220.82;-267.42;-403.00;0.93;149.56;22.56;28.19 
5.163;0.37;0.50;0.73;0.14;0.90;0.00;222.81;-266.46;-400.00;0.96;149.42;22.48;28.24 
5.193;0.34;0.48;0.70;0.49;-3.20;1.95;219.82;-264.55;-399.00;0.91;149.20;22.56;28.23 
5.222;0.37;0.46;0.71;-0.21;-0.83;1.53;220.82;-268.38;-400.00;0.92;148.92;22.69;28.20 
5.251;0.37;0.48;0.71;-0.21;0.49;0.56;220.82;-266.46;-400.00;0.93;148.68;22.76;28.18 
5.280;0.35;0.52;0.68;-0.63;-0.42;-0.77;221.82;-267.42;-401.00;0.92;148.50;22.82;28.17 
5.309;0.35;0.46;0.66;0.07;0.07;0.56;221.82;-266.46;-398.00;0.88;148.34;22.80;28.22 
5.340;0.32;0.50;0.64;0.00;2.23;0.28;219.82;-271.26;-399.00;0.87;148.13;22.84;28.24 
5.370;0.36;0.46;0.70;0.21;2.16;-0.90;221.82;-266.46;-402.00;0.91;147.96;22.79;28.26 
5.400;0.36;0.46;0.74;0.35;-2.16;0.63;222.81;-266.46;-403.00;0.94;147.78;22.81;28.28 
5.431;0.32;0.47;0.69;0.35;0.21;0.77;222.81;-270.30;-400.00;0.89;147.56;22.90;28.29 
5.461;0.36;0.48;0.69;-0.21;2.85;-0.90;223.81;-267.42;-402.00;0.91;147.37;22.91;28.30 
5.491;0.37;0.48;0.74;-0.21;1.67;-0.49;222.81;-266.46;-400.00;0.96;147.19;22.88;28.29 
5.521;0.38;0.48;0.75;-0.63;0.21;-0.07;218.82;-269.34;-401.00;0.97;147.00;22.92;28.29 
5.550;0.37;0.48;0.72;-0.35;0.77;0.00;219.82;-269.34;-397.00;0.94;146.79;22.97;28.27 
5.580;0.38;0.50;0.75;-0.56;0.14;-0.63;218.82;-268.38;-402.00;0.98;146.60;22.99;28.27 
5.610;0.38;0.49;0.71;-0.70;-1.95;0.63;221.82;-267.42;-402.00;0.94;146.41;23.05;28.28 
5.641;0.30;0.49;0.70;-0.90;0.21;0.21;218.82;-269.34;-401.00;0.91;146.22;23.10;28.30 
5.671;0.37;0.53;0.72;-0.28;1.46;-0.14;219.82;-266.46;-400.00;0.97;146.04;23.11;28.32 
5.701;0.37;0.53;0.69;-0.07;-3.83;1.53;221.82;-268.38;-400.00;0.95;145.84;23.15;28.34 
5.731;0.36;0.50;0.70;0.14;-0.56;1.32;222.81;-268.38;-401.00;0.93;145.63;23.24;28.38 
5.761;0.34;0.50;0.65;0.83;0.07;0.49;218.82;-268.38;-400.00;0.89;145.41;23.32;28.42 
5.791;0.35;0.49;0.67;0.63;3.06;0.28;219.82;-269.34;-401.00;0.90;145.23;23.31;28.48 
5.821;0.36;0.46;0.74;0.49;-0.56;0.63;221.82;-269.34;-399.00;0.94;145.03;23.30;28.48 
5.852;0.37;0.48;0.70;0.42;-2.43;0.56;221.82;-270.30;-400.00;0.93;144.81;23.40;28.47 
5.882;0.35;0.48;0.67;0.00;-0.97;0.21;221.82;-270.30;-402.00;0.90;144.62;23.48;28.49 
5.912;0.37;0.49;0.70;0.00;1.88;0.00;221.82;-273.17;-400.00;0.93;144.43;23.51;28.48 
5.942;0.34;0.47;0.71;-0.28;1.88;0.00;223.81;-271.26;-399.00;0.92;144.24;23.49;28.50 
5.972;0.38;0.45;0.70;0.07;-1.04;1.18;219.82;-270.30;-401.00;0.91;144.03;23.52;28.50 
6.002;0.34;0.47;0.73;-0.14;-0.49;0.56;216.82;-271.26;-399.00;0.93;143.82;23.60;28.49 
6.032;0.41;0.50;0.67;-0.49;0.83;-0.28;220.82;-272.22;-402.00;0.93;143.65;23.61;28.51 
6.062;0.40;0.50;0.74;-0.70;1.25;-0.35;219.82;-269.34;-399.00;0.98;143.48;23.58;28.52 
6.092;0.34;0.52;0.75;-0.70;-0.07;0.56;220.82;-273.17;-398.00;0.97;143.31;23.58;28.53 
6.122;0.35;0.54;0.75;0.07;-3.69;2.02;218.82;-269.34;-400.00;0.99;143.11;23.64;28.54 
6.153;0.38;0.51;0.71;-0.28;-5.22;1.18;221.82;-274.13;-400.00;0.95;142.87;23.83;28.56 
6.183;0.38;0.54;0.76;-1.39;-3.69;-0.35;212.82;-273.17;-396.00;1.01;142.68;23.98;28.57 
6.213;0.34;0.48;0.78;0.21;-13.91;3.76;214.82;-280.84;-394.00;0.98;142.49;24.15;28.55 
6.243;0.32;0.47;0.59;3.55;-11.20;1.39;210.82;-279.88;-394.00;0.82;142.23;24.54;28.59 
6.273;0.40;0.49;0.62;1.95;0.77;0.14;210.82;-284.68;-392.00;0.89;141.97;24.79;28.69 
6.303;0.43;0.46;0.63;0.14;2.30;-3.69;206.83;-287.55;-391.00;0.89;141.84;24.79;28.74 
6.333;0.37;0.51;0.70;0.28;1.53;0.00;204.83;-286.59;-384.00;0.94;141.77;24.69;28.83 
6.363;0.34;0.51;0.69;-0.35;-0.07;2.09;202.83;-289.47;-383.00;0.92;141.54;24.77;28.83 
6.392;0.38;0.48;0.69;-1.25;1.74;0.97;206.83;-289.47;-382.00;0.92;141.32;24.81;28.82 
6.421;0.40;0.51;0.74;-1.25;3.97;-1.88;205.83;-290.43;-382.00;0.98;141.15;24.77;28.81 
6.451;0.35;0.53;0.71;-1.46;2.71;-2.37;199.83;-290.43;-383.00;0.95;141.08;24.63;28.84 
6.480;0.38;0.50;0.66;-1.53;-0.07;0.28;196.84;-292.34;-379.00;0.91;140.89;24.67;28.78 
6.509;0.40;0.47;0.67;-0.49;6.05;-0.90;191.84;-291.39;-375.00;0.91;140.71;24.73;28.75 
6.540;0.35;0.50;0.71;-0.49;4.73;0.07;193.84;-294.26;-381.00;0.94;140.52;24.64;28.75 
6.570;0.37;0.51;0.75;-0.77;-1.81;0.90;195.84;-292.34;-375.00;0.98;140.35;24.61;28.75 
6.600;0.40;0.47;0.70;-0.77;-4.59;1.32;189.84;-297.14;-374.00;0.93;140.14;24.76;28.72 
6.630;0.39;0.49;0.66;-0.83;0.35;1.32;189.84;-293.30;-375.00;0.91;139.89;24.92;28.68 
6.660;0.38;0.46;0.70;-1.18;2.09;-0.28;190.84;-293.30;-374.00;0.92;139.68;24.94;28.64 
6.690;0.34;0.50;0.73;-0.21;-1.18;0.00;187.84;-295.22;-372.00;0.95;139.53;24.91;28.62 
6.720;0.35;0.47;0.66;0.21;-5.50;2.23;190.84;-297.14;-374.00;0.88;139.36;25.01;28.67 
6.751;0.36;0.51;0.62;-0.14;3.83;0.00;188.84;-299.05;-375.00;0.88;139.12;25.14;28.68 
6.781;0.36;0.47;0.68;0.49;8.28;-2.71;188.84;-298.10;-374.00;0.90;138.99;24.99;28.72 
6.811;0.41;0.52;0.74;1.60;9.46;-1.74;190.84;-297.14;-372.00;0.99;138.88;24.79;28.81 
6.841;0.34;0.54;0.77;-1.32;2.50;-3.83;193.84;-295.22;-377.00;1.00;138.79;24.59;28.91 
6.870;0.38;0.54;0.77;1.32;-12.10;4.31;190.84;-295.22;-372.00;1.01;138.63;24.70;28.93 
6.899;0.38;0.44;0.65;2.92;-14.33;6.33;191.84;-299.05;-377.00;0.87;138.29;25.18;28.91 
6.928;0.34;0.47;0.62;1.53;0.21;-0.97;189.84;-303.85;-376.00;0.85;138.01;25.51;28.92 
6.957;0.38;0.50;0.73;-0.83;3.27;-4.87;190.84;-302.89;-374.00;0.96;137.96;25.39;29.02 
6.986;0.36;0.54;0.71;-0.42;-1.67;0.35;193.84;-304.80;-372.00;0.96;137.90;25.35;29.07 
7.016;0.38;0.50;0.67;-0.90;-0.97;2.85;191.84;-301.93;-373.00;0.92;137.67;25.44;29.07 
7.047;0.41;0.45;0.66;-0.35;0.21;-0.83;190.84;-303.85;-372.00;0.90;137.43;25.58;29.04 
7.077;0.42;0.51;0.69;3.41;3.13;1.74;185.85;-302.89;-373.00;0.96;137.25;25.61;29.11 
7.107;0.43;0.44;0.63;2.30;7.10;5.08;194.84;-299.05;-375.00;0.88;136.90;25.66;29.14 
7.138;0.40;0.43;0.65;-0.77;17.95;-12.52;197.84;-296.18;-376.00;0.88;136.82;25.39;29.20 
7.168;0.34;0.49;0.78;0.90;6.82;-5.50;197.84;-289.47;-378.00;0.98;136.96;24.79;29.43 
7.198;0.29;0.51;0.70;-2.71;3.83;-3.62;197.84;-286.59;-379.00;0.91;136.97;24.58;29.49 
7.228;0.33;0.50;0.73;-2.99;9.46;-7.51;192.84;-286.59;-380.00;0.94;136.94;24.32;29.50 
7.259;0.22;0.54;0.84;-1.11;-7.58;-0.35;190.84;-287.55;-370.00;1.02;137.01;24.03;29.57 
7.289;0.38;0.51;0.65;-0.07;-20.31;8.83;190.84;-291.39;-372.00;0.91;136.75;24.44;29.57 
7.319;0.47;0.38;0.51;-3.06;-15.10;5.63;189.84;-294.26;-369.00;0.79;136.28;25.27;29.40 
7.350;0.42;0.46;0.66;1.11;22.89;-4.94;184.85;-298.10;-371.00;0.91;136.09;25.27;29.38 
7.380;0.42;0.50;0.77;-1.81;4.38;-2.71;189.84;-292.34;-370.00;1.01;136.00;24.82;29.45 
7.410;0.32;0.55;0.77;0.90;-2.99;0.21;191.84;-296.18;-371.00;1.00;135.89;24.83;29.46 
7.440;0.35;0.52;0.76;0.14;-11.48;5.15;188.84;-294.26;-372.00;0.99;135.69;24.99;29.49 
7.470;0.37;0.48;0.63;-0.63;-12.94;4.80;190.84;-301.93;-372.00;0.87;135.38;25.47;29.45 
7.500;0.38;0.49;0.66;-0.77;6.19;-1.60;190.84;-302.89;-372.00;0.91;135.17;25.69;29.47 
7.529;0.35;0.51;0.70;-0.42;6.96;-3.48;193.84;-298.10;-370.00;0.93;135.09;25.50;29.52 
7.559;0.34;0.49;0.73;-0.83;4.52;-1.46;189.84;-296.18;-370.00;0.94;135.01;25.32;29.57 
7.589;0.38;0.51;0.73;0.35;1.25;2.02;190.84;-297.14;-368.00;0.97;134.85;25.22;29.59 
7.619;0.44;0.51;0.70;0.63;-3.13;1.32;191.84;-297.14;-371.00;0.97;134.61;25.35;29.60 
7.650;0.41;0.46;0.67;0.83;1.88;-0.90;190.84;-297.14;-374.00;0.91;134.40;25.53;29.62 
7.680;0.37;0.49;0.72;0.83;3.48;-0.97;189.84;-295.22;-374.00;0.95;134.22;25.49;29.64 
7.710;0.33;0.47;0.72;1.39;-3.20;-0.07;194.84;-297.14;-371.00;0.92;134.07;25.50;29.67 
7.740;0.30;0.51;0.69;0.00;-4.59;-0.28;194.84;-300.01;-372.00;0.91;133.94;25.57;29.70 
7.771;0.37;0.49;0.67;-1.11;-2.09;1.88;190.84;-297.14;-371.00;0.91;133.77;25.71;29.73 
7.801;0.37;0.49;0.67;-1.74;2.23;-1.39;193.84;-298.10;-371.00;0.91;133.59;25.75;29.71 
7.831;0.37;0.51;0.70;-0.70;5.98;-2.85;192.84;-299.05;-371.00;0.94;133.49;25.65;29.74 
7.862;0.39;0.54;0.67;1.32;5.57;0.49;191.84;-292.34;-371.00;0.94;133.37;25.51;29.82 
7.891;0.46;0.52;0.71;-0.07;8.63;6.75;194.84;-291.39;-373.00;0.99;133.07;25.48;29.84 
7.920;0.37;0.52;0.72;-0.07;7.72;2.09;199.83;-286.59;-376.00;0.96;132.71;25.44;29.76 
7.950;0.33;0.44;0.72;0.97;-1.60;-3.06;195.84;-286.59;-378.00;0.91;132.56;25.34;29.78 
7.980;0.30;0.45;0.65;-0.97;3.27;-6.54;198.83;-286.59;-379.00;0.85;132.55;25.32;29.87 
8.010;0.29;0.47;0.66;-2.23;14.75;-5.91;197.84;-284.68;-380.00;0.86;132.57;24.96;29.98 
8.040;0.32;0.49;0.73;-3.27;12.94;-4.31;193.84;-279.88;-379.00;0.94;132.55;24.50;30.01 
8.071;0.35;0.51;0.82;-0.42;1.95;-0.83;197.84;-279.88;-381.00;1.03;132.43;24.24;30.00 
8.101;0.44;0.49;0.74;1.53;-7.86;4.73;196.84;-277.97;-378.00;0.99;132.24;24.37;30.02 
8.131;0.40;0.46;0.66;2.37;-4.03;5.70;196.84;-276.05;-379.00;0.90;131.90;24.71;30.00 
8.162;0.37;0.46;0.64;0.77;3.69;3.41;200.83;-283.72;-382.00;0.87;131.57;24.88;29.99 
8.192;0.34;0.49;0.70;0.07;5.29;-0.21;197.84;-283.72;-379.00;0.92;131.33;24.84;30.00 
8.222;0.30;0.51;0.74;-0.83;3.55;-2.37;202.83;-277.01;-385.00;0.95;131.19;24.72;30.01 
8.252;0.28;0.51;0.74;0.07;5.84;-2.99;204.83;-272.22;-386.00;0.94;131.12;24.52;30.08 
8.283;0.33;0.51;0.77;-0.90;1.74;-0.83;202.83;-273.17;-385.00;0.98;131.05;24.38;30.15 
8.313;0.34;0.49;0.74;-0.49;0.21;0.49;205.83;-271.26;-387.00;0.95;130.89;24.34;30.16 
8.343;0.37;0.48;0.69;-0.21;1.95;-0.77;205.83;-272.22;-384.00;0.92;130.73;24.36;30.18 
8.374;0.37;0.50;0.72;-0.42;2.64;-2.30;204.83;-270.30;-386.00;0.95;130.60;24.28;30.21 
8.404;0.35;0.50;0.74;0.14;-1.25;-0.42;204.83;-268.38;-385.00;0.96;130.45;24.27;30.23 
8.434;0.35;0.51;0.73;-0.28;0.28;-0.35;205.83;-271.26;-385.00;0.96;130.31;24.31;30.27 
8.463;0.37;0.52;0.71;-0.56;0.14;-0.21;204.83;-269.34;-388.00;0.95;130.17;24.30;30.30 
8.492;0.32;0.51;0.69;-0.49;1.04;-0.70;206.83;-270.30;-387.00;0.92;130.04;24.27;30.34 
8.521;0.33;0.47;0.72;-0.42;2.78;-1.67;207.83;-270.30;-389.00;0.92;129.91;24.20;30.37 
8.550;0.37;0.48;0.71;-0.63;1.95;-1.60;204.83;-267.42;-388.00;0.93;129.78;24.15;30.38 
8.579;0.34;0.51;0.70;-1.11;1.60;-1.04;207.83;-270.30;-389.00;0.93;129.66;24.10;30.40 
8.608;0.34;0.51;0.68;-1.04;1.74;-0.56;206.83;-269.34;-385.00;0.92;129.54;24.07;30.44 
8.637;0.34;0.50;0.72;0.14;1.04;1.04;205.83;-266.46;-388.00;0.94;129.38;24.02;30.45 
8.667;0.34;0.45;0.74;-0.56;-3.20;1.60;203.83;-266.46;-386.00;0.93;129.18;24.08;30.43 
8.697;0.34;0.46;0.70;0.00;-0.49;1.04;208.83;-269.34;-388.00;0.90;128.96;24.16;30.39 
8.727;0.35;0.45;0.71;0.00;0.28;-0.35;203.83;-268.38;-389.00;0.91;128.76;24.25;30.36 
8.758;0.35;0.42;0.74;2.16;5.01;-2.64;205.83;-265.51;-389.00;0.92;128.59;24.21;30.36 
8.788;0.33;0.40;0.76;3.20;2.71;-3.13;205.83;-267.42;-388.00;0.92;128.48;24.05;30.44 
8.818;0.34;0.45;0.74;2.99;2.71;-4.59;207.83;-267.42;-386.00;0.93;128.41;23.95;30.55 
8.848;0.37;0.54;0.72;1.32;4.17;-3.34;202.83;-265.51;-386.00;0.97;128.38;23.82;30.70 
8.878;0.34;0.53;0.74;0.42;3.62;0.21;204.83;-265.51;-385.00;0.97;128.25;23.72;30.79 
8.908;0.34;0.57;0.69;-0.77;-4.38;1.81;209.83;-265.51;-387.00;0.96;128.10;23.72;30.84 
8.938;0.33;0.54;0.66;-0.97;-3.62;3.90;210.82;-265.51;-388.00;0.91;127.91;23.89;30.88 
8.969;0.33;0.55;0.62;-1.11;0.14;1.81;204.83;-267.42;-386.00;0.89;127.69;24.01;30.89 
8.999;0.34;0.51;0.66;-0.77;2.92;0.35;205.83;-267.42;-387.00;0.90;127.50;24.01;30.92 
9.029;0.34;0.47;0.71;1.53;3.83;0.49;206.83;-265.51;-387.00;0.92;127.32;23.95;30.94 
9.059;0.32;0.46;0.73;2.30;-1.18;0.63;205.83;-264.55;-384.00;0.92;127.11;23.92;30.96 
9.089;0.33;0.51;0.68;2.23;-0.56;0.14;208.83;-266.46;-388.00;0.91;126.95;23.97;31.02 
9.119;0.34;0.46;0.71;1.25;-2.71;0.00;206.83;-269.34;-388.00;0.91;126.78;24.02;31.05 
9.148;0.34;0.47;0.76;0.63;0.35;-1.04;207.83;-265.51;-387.00;0.96;126.61;24.11;31.06 
9.179;0.36;0.48;0.73;0.00;1.46;-2.50;208.83;-268.38;-384.00;0.94;126.49;24.05;31.10 
9.209;0.33;0.51;0.73;0.21;-2.23;-1.67;207.83;-268.38;-387.00;0.95;126.38;24.05;31.14 
9.239;0.34;0.50;0.69;-0.14;-0.28;-1.46;206.83;-268.38;-388.00;0.92;126.28;24.10;31.19 
9.270;0.35;0.51;0.75;-0.97;-0.28;0.21;209.83;-266.46;-386.00;0.97;126.13;24.10;31.20 
9.300;0.34;0.51;0.70;-1.11;-0.56;1.25;206.83;-268.38;-386.00;0.93;125.93;24.17;31.17 
9.330;0.37;0.50;0.71;-1.32;1.25;0.83;206.83;-265.51;-388.00;0.94;125.73;24.20;31.14 
9.360;0.35;0.51;0.72;-1.53;0.42;0.90;210.82;-267.42;-385.00;0.95;125.53;24.23;31.12 
9.390;0.30;0.48;0.69;-0.90;1.11;0.35;210.82;-270.30;-388.00;0.89;125.33;24.25;31.09 
9.420;0.32;0.54;0.70;-0.21;2.02;0.14;212.82;-266.46;-387.00;0.94;125.16;24.25;31.10 
9.450;0.32;0.54;0.68;-0.07;-0.70;1.60;207.83;-266.46;-387.00;0.93;124.99;24.21;31.15 
9.481;0.33;0.50;0.68;0.28;-1.11;0.83;206.83;-270.30;-387.00;0.91;124.81;24.29;31.18 
9.511;0.31;0.52;0.66;0.49;0.00;0.00;209.83;-265.51;-387.00;0.90;124.65;24.33;31.23 
9.540;0.33;0.50;0.66;0.49;1.18;0.28;210.82;-268.38;-385.00;0.89;124.49;24.37;31.29 
9.570;0.36;0.47;0.73;0.83;1.11;-0.21;207.83;-269.34;-384.00;0.94;124.31;24.35;31.32 
9.600;0.34;0.50;0.70;0.63;-1.74;0.70;210.82;-267.42;-386.00;0.92;124.13;24.41;31.36 
9.630;0.34;0.48;0.67;-0.56;0.90;-0.14;207.83;-267.42;-389.00;0.89;123.98;24.44;31.39 
9.660;0.35;0.48;0.67;-0.63;2.64;-0.21;212.82;-267.42;-385.00;0.90;123.81;24.39;31.38 
9.691;0.35;0.50;0.71;-0.28;3.27;-0.49;206.83;-267.42;-387.00;0.94;123.64;24.32;31.40 
9.721;0.34;0.47;0.74;-0.49;2.09;-0.35;211.82;-267.42;-384.00;0.94;123.48;24.24;31.42 
9.751;0.33;0.53;0.77;-0.63;0.14;0.00;210.82;-266.46;-386.00;0.99;123.30;24.23;31.41 
9.782;0.37;0.49;0.74;-0.77;-0.63;0.00;211.82;-265.51;-389.00;0.96;123.12;24.27;31.41 
9.812;0.34;0.51;0.74;-0.77;1.39;-0.63;210.82;-266.46;-385.00;0.96;122.94;24.29;31.38 
9.842;0.38;0.50;0.72;-0.35;0.49;-0.35;207.83;-264.55;-386.00;0.96;122.76;24.29;31.38 
9.872;0.32;0.53;0.70;0.14;0.21;-0.07;213.82;-266.46;-388.00;0.93;122.62;24.32;31.43 
9.901;0.33;0.51;0.67;0.07;0.49;-0.90;208.83;-263.59;-387.00;0.90;122.47;24.32;31.47 
9.931;0.30;0.54;0.65;-0.21;2.16;-0.83;209.83;-265.51;-386.00;0.90;122.34;24.29;31.54 
9.961;0.33;0.53;0.69;0.14;0.49;-0.07;211.82;-266.46;-386.00;0.93;122.21;24.22;31.60 
9.992;0.34;0.50;0.69;0.56;-2.43;0.83;209.83;-268.38;-388.00;0.92;122.04;24.29;31.64 
10.022;0.32;0.52;0.65;-0.28;0.56;0.00;211.82;-265.51;-386.00;0.89;121.88;24.36;31.69 
10.052;0.33;0.50;0.68;-0.21;1.60;0.14;210.82;-266.46;-388.00;0.91;121.72;24.35;31.72 
10.082;0.36;0.46;0.73;0.07;1.67;-0.07;210.82;-268.38;-385.00;0.93;121.53;24.31;31.73 
10.112;0.34;0.47;0.78;0.28;1.25;-0.21;208.83;-265.51;-385.00;0.97;121.33;24.32;31.71 
10.142;0.36;0.49;0.71;-0.21;0.70;0.14;211.82;-264.55;-386.00;0.93;121.14;24.32;31.70 
10.172;0.34;0.50;0.74;-0.63;0.28;0.21;210.82;-265.51;-383.00;0.96;120.95;24.35;31.67 
10.203;0.35;0.49;0.76;-0.63;2.09;-0.49;209.83;-266.46;-390.00;0.97;120.75;24.36;31.63 
10.233;0.44;0.52;0.78;-0.56;-0.77;0.63;209.83;-265.51;-389.00;1.04;120.55;24.35;31.60 
10.263;0.36;0.50;0.72;-0.28;1.11;0.35;212.82;-266.46;-386.00;0.95;120.36;24.38;31.56 
10.293;0.35;0.50;0.74;-0.70;0.77;-0.56;210.82;-267.42;-386.00;0.96;120.17;24.38;31.57 
10.322;0.33;0.51;0.72;-0.83;0.83;-1.11;210.82;-266.46;-387.00;0.94;120.01;24.38;31.57 
10.351;0.31;0.55;0.75;-1.11;-5.15;-0.28;209.83;-265.51;-386.00;0.98;119.91;24.41;31.61 
10.380;0.32;0.46;0.77;-1.11;-10.09;1.53;208.83;-270.30;-385.00;0.95;119.76;24.61;31.55 
10.410;0.33;0.50;0.70;-2.02;-10.02;3.55;207.83;-267.42;-389.00;0.92;119.61;24.92;31.50 
10.440;0.32;0.48;0.68;-1.67;-6.75;4.94;205.83;-273.17;-387.00;0.89;119.39;25.22;31.42 
10.470;0.37;0.47;0.66;-1.39;-0.07;1.60;206.83;-275.09;-388.00;0.89;119.15;25.43;31.35 
10.499;0.37;0.50;0.80;-0.28;3.55;-3.06;204.83;-273.17;-387.00;1.01;118.95;25.42;31.30 
10.528;0.35;0.53;0.74;0.49;-3.97;-2.30;207.83;-274.13;-385.00;0.98;118.87;25.39;31.36 
10.557;0.32;0.48;0.73;0.21;-6.54;0.21;205.83;-276.05;-384.00;0.93;118.79;25.50;31.39 
10.588;0.35;0.52;0.66;0.00;-7.72;2.30;205.83;-277.01;-385.00;0.91;118.65;25.71;31.40 
10.618;0.37;0.50;0.68;0.63;-9.95;4.80;206.83;-280.84;-384.00;0.92;118.46;26.02;31.38 
10.648;0.34;0.50;0.69;1.39;-7.72;2.99;201.83;-284.68;-381.00;0.92;118.24;26.36;31.34 
10.679;0.37;0.46;0.69;1.04;-2.99;1.67;203.83;-284.68;-383.00;0.91;118.04;26.58;31.32 
10.709;0.35;0.46;0.68;1.11;-0.56;0.49;202.83;-288.51;-381.00;0.89;117.86;26.70;31.34 
10.739;0.41;0.47;0.74;0.07;-0.70;-0.97;204.83;-288.51;-379.00;0.97;117.69;26.75;31.34 
10.769;0.38;0.51;0.71;-1.88;-2.37;1.81;199.83;-290.43;-381.00;0.95;117.51;26.84;31.32 
10.800;0.35;0.50;0.67;-2.99;-1.25;3.13;201.83;-293.30;-380.00;0.91;117.28;26.99;31.23 
10.830;0.38;0.46;0.69;-1.95;3.20;3.06;201.83;-292.34;-380.00;0.91;117.00;27.07;31.13 
10.860;0.38;0.48;0.70;-0.97;2.85;1.67;200.83;-292.34;-380.00;0.93;116.71;27.07;31.04 
10.891;0.42;0.51;0.70;-1.11;4.17;-1.53;200.83;-288.51;-378.00;0.96;116.49;27.05;31.02 
10.921;0.37;0.47;0.68;-0.97;7.03;-3.90;199.83;-288.51;-379.00;0.91;116.34;26.90;31.04 
10.951;0.36;0.51;0.70;-0.21;8.77;-4.10;201.83;-288.51;-380.00;0.94;116.22;26.70;31.11 
10.981;0.38;0.54;0.73;-0.07;10.64;-4.87;199.83;-287.55;-380.00;0.98;116.11;26.43;31.20 
11.011;0.38;0.50;0.72;1.32;10.30;-3.83;197.84;-282.76;-380.00;0.96;115.97;26.09;31.31 
11.041;0.35;0.52;0.77;1.81;6.12;-2.71;200.83;-280.84;-381.00;0.99;115.83;25.83;31.42 
11.071;0.36;0.52;0.71;1.46;0.63;1.74;197.84;-279.88;-379.00;0.95;115.66;25.72;31.50 
11.102;0.38;0.50;0.65;0.77;-1.81;2.23;199.83;-277.01;-379.00;0.90;115.45;25.85;31.53 
11.132;0.34;0.52;0.64;-0.07;4.10;-1.74;199.83;-280.84;-378.00;0.89;115.28;25.88;31.57 
11.162;0.35;0.49;0.70;-0.14;3.62;-1.32;198.83;-277.01;-378.00;0.92;115.13;25.76;31.62 
11.192;0.35;0.51;0.72;-0.49;-0.77;1.32;200.83;-277.01;-381.00;0.95;114.95;25.77;31.62 
11.222;0.37;0.47;0.69;0.14;-1.04;1.18;201.83;-278.93;-378.00;0.91;114.73;25.87;31.61 
11.252;0.37;0.46;0.72;0.07;0.70;0.14;201.83;-278.93;-377.00;0.93;114.55;25.93;31.61 
11.281;0.34;0.50;0.72;-0.07;1.81;-0.97;201.83;-277.97;-377.00;0.94;114.38;25.92;31.63 
11.310;0.34;0.52;0.70;-0.49;1.04;-0.56;199.83;-276.05;-375.00;0.94;114.24;25.91;31.67 
11.339;0.35;0.53;0.68;-0.97;1.74;0.07;200.83;-278.93;-378.00;0.93;114.09;25.90;31.70 
11.369;0.34;0.50;0.70;-0.28;1.67;0.21;202.83;-275.09;-381.00;0.92;113.90;25.86;31.71 
11.400;0.38;0.54;0.70;-0.28;-1.32;1.46;203.83;-276.05;-376.00;0.96;113.69;25.92;31.73 
11.430;0.37;0.53;0.71;-0.21;-1.53;-0.70;201.83;-278.93;-376.00;0.96;113.54;26.04;31.73 
11.460;0.36;0.50;0.68;1.53;-3.83;-0.07;199.83;-277.01;-380.00;0.92;113.42;26.10;31.78 
11.490;0.30;0.47;0.64;2.09;1.60;-0.63;199.83;-276.05;-378.00;0.85;113.29;26.19;31.83 
11.520;0.38;0.47;0.70;1.04;8.35;-3.27;202.83;-277.01;-376.00;0.92;113.10;26.08;31.89 
11.550;0.35;0.48;0.74;0.21;4.87;-2.43;201.83;-273.17;-376.00;0.95;112.93;25.92;31.94 
11.580;0.34;0.50;0.72;-0.21;1.25;-1.88;199.83;-275.09;-374.00;0.94;112.79;25.82;31.98 
11.611;0.35;0.48;0.70;-0.97;3.48;-2.09;198.83;-272.22;-378.00;0.92;112.63;25.79;32.00 
11.641;0.34;0.51;0.71;-1.95;3.76;-1.88;202.83;-273.17;-378.00;0.94;112.47;25.69;32.00 
11.671;0.35;0.51;0.74;-1.60;0.90;0.35;201.83;-275.09;-376.00;0.96;112.30;25.62;31.99 
11.702;0.36;0.49;0.74;-0.97;-2.92;1.88;198.83;-273.17;-378.00;0.96;112.09;25.66;31.95 
11.732;0.38;0.50;0.72;-2.16;-2.78;2.16;198.83;-273.17;-376.00;0.96;111.89;25.81;31.89 
11.762;0.33;0.52;0.73;-2.37;-5.50;3.69;198.83;-275.09;-378.00;0.96;111.67;25.97;31.80 
11.792;0.35;0.53;0.73;-2.09;-10.99;7.72;198.83;-280.84;-376.00;0.97;111.44;26.25;31.72 
11.822;0.35;0.50;0.62;-1.53;-9.04;5.57;200.83;-279.88;-377.00;0.87;111.20;26.72;31.58 
11.852;0.37;0.50;0.69;-2.71;7.30;-1.39;198.83;-282.76;-376.00;0.93;110.96;26.82;31.51 
11.882;0.37;0.52;0.77;-1.18;1.25;0.00;199.83;-282.76;-378.00;1.00;110.74;26.69;31.48 
11.913;0.41;0.51;0.72;0.90;-5.70;0.90;196.84;-279.88;-378.00;0.97;110.58;26.82;31.48 
11.943;0.47;0.50;0.64;2.64;-3.55;2.37;198.83;-284.68;-376.00;0.94;110.43;27.05;31.50 
11.973;0.38;0.38;0.63;2.23;1.04;0.83;202.83;-283.72;-378.00;0.83;110.22;27.25;31.52 
12.003;0.34;0.42;0.70;6.82;11.83;8.77;200.83;-283.72;-377.00;0.88;109.82;27.12;31.73 
12.033;0.37;0.54;0.68;-1.95;-0.90;-7.79;202.83;-280.84;-375.00;0.94;109.83;27.00;31.88 
12.063;0.36;0.51;0.69;-1.67;8.00;-6.54;202.83;-280.84;-378.00;0.93;109.80;26.81;31.98 
12.093;0.35;0.54;0.72;1.46;5.91;0.28;202.83;-278.93;-378.00;0.97;109.72;26.52;32.14 
12.124;0.34;0.53;0.72;-0.28;-3.20;2.09;201.83;-279.88;-378.00;0.96;109.47;26.54;32.20 
12.154;0.39;0.49;0.65;7.93;2.78;4.03;203.83;-279.88;-378.00;0.90;109.23;26.63;32.27 
12.184;0.38;0.47;0.69;-3.62;0.70;1.18;207.83;-276.05;-376.00;0.92;108.91;26.55;32.43 
12.215;0.38;0.46;0.70;-2.09;-0.35;2.92;212.82;-278.93;-376.00;0.92;108.76;26.66;32.48 
12.244;0.32;0.42;0.70;-7.30;-0.49;-1.18;216.82;-281.80;-383.00;0.88;108.53;26.71;32.32 
12.274;0.41;0.49;0.70;0.49;6.75;0.70;215.82;-278.93;-382.00;0.95;108.28;26.65;32.17 
12.303;0.35;0.55;0.69;-1.74;1.60;-0.14;212.82;-276.05;-385.00;0.95;108.12;26.56;32.24 
12.332;0.39;0.51;0.69;-0.07;-1.53;0.49;213.82;-274.13;-380.00;0.94;107.95;26.52;32.23 
12.361;0.34;0.50;0.73;-0.35;0.07;-2.85;216.82;-276.05;-382.00;0.95;107.81;26.55;32.22 
12.391;0.35;0.55;0.74;-1.88;-3.20;-0.56;218.82;-274.13;-378.00;0.99;107.67;26.43;32.25 
12.422;0.38;0.49;0.71;0.77;-3.34;0.70;223.81;-274.13;-377.00;0.94;107.53;26.62;32.23 
