Time(s) acc_x(g) acc_y(g) acc_z(g) gyr_x(°/s) gyr_y(°/s) gyr_z(°/s) mag_x(G) mag_y(G) mag_z(G) SVM(g) yaw(°) pitch(°) roll(°)
0.000;-0.44;0.33;0.73;11.90;-6.75;1.67;146.88;35.46;-249.00;0.91;58.01;-17.54;37.17 
0.030;-0.45;0.26;0.75;8.42;-1.67;-7.03;143.88;38.34;-250.00;0.91;57.99;-17.40;37.36 
0.060;-0.45;0.34;0.74;5.08;-6.19;-10.37;146.88;37.38;-254.00;0.93;58.22;-17.41;37.37 
0.091;-0.43;0.52;0.65;0.35;-5.77;-1.32;144.88;36.42;-255.00;0.94;58.38;-17.29;37.45 
0.121;-0.46;0.52;0.62;-5.57;1.04;18.30;146.88;35.46;-254.00;0.93;58.00;-16.96;37.68 
0.150;-0.48;0.38;0.62;-8.97;7.37;21.70;153.87;34.51;-257.00;0.87;57.27;-16.57;37.78 
0.181;-0.52;0.19;0.67;-5.63;14.05;12.94;154.87;37.38;-257.00;0.87;56.63;-16.47;37.68 
0.211;-0.52;0.22;0.77;2.02;11.62;0.42;155.87;40.26;-255.00;0.95;56.31;-16.76;37.53 
0.241;-0.51;0.36;0.85;5.77;-5.15;1.74;158.87;39.30;-253.00;1.05;56.20;-16.83;37.54 
0.271;-0.42;0.39;0.72;4.94;-12.45;3.90;156.87;37.38;-253.00;0.92;56.09;-16.51;37.71 
0.301;-0.36;0.43;0.71;2.99;-8.00;4.45;160.87;34.51;-254.00;0.90;55.97;-16.05;37.88 
0.331;-0.40;0.28;0.73;-0.14;-0.56;5.50;161.87;35.46;-252.00;0.88;55.81;-15.77;37.91 
0.361;-0.43;0.32;0.70;-1.11;-0.14;5.98;160.87;32.59;-257.00;0.88;55.55;-15.57;37.93 
0.392;-0.45;0.31;0.67;-2.50;3.06;3.83;165.86;36.42;-259.00;0.86;55.34;-15.47;37.88 
0.422;-0.46;0.32;0.70;-2.92;9.53;1.32;165.86;35.46;-257.00;0.90;55.17;-15.54;37.74 
0.452;-0.51;0.33;0.80;-3.76;8.35;1.25;163.86;38.34;-253.00;1.00;55.02;-15.73;37.60 
0.482;-0.50;0.34;0.78;-5.08;2.23;2.99;165.86;39.30;-252.00;0.99;54.89;-15.83;37.44 
0.512;-0.50;0.29;0.77;-4.24;0.00;1.74;164.86;40.26;-254.00;0.96;54.80;-15.81;37.24 
0.542;-0.41;0.26;0.75;-3.69;0.14;-0.70;168.86;37.38;-258.00;0.89;54.79;-15.78;37.04 
0.572;-0.43;0.31;0.69;-3.62;2.78;0.00;164.86;39.30;-255.00;0.87;54.77;-15.81;36.87 
0.603;-0.46;0.34;0.68;-3.06;7.03;1.88;164.86;40.26;-255.00;0.89;54.66;-15.87;36.75 
0.632;-0.46;0.34;0.70;-2.23;9.67;3.62;168.86;40.26;-251.00;0.90;54.43;-16.00;36.69 
0.662;-0.48;0.30;0.74;0.28;8.21;1.39;165.86;40.26;-255.00;0.93;54.21;-16.16;36.63 
0.693;-0.49;0.30;0.80;1.11;5.84;-1.81;168.86;45.05;-254.00;0.98;54.10;-16.32;36.56 
0.723;-0.49;0.38;0.81;-1.32;-1.81;-0.83;167.86;42.17;-253.00;1.02;54.07;-16.43;36.48 
0.753;-0.48;0.33;0.69;-2.02;-13.98;2.37;164.86;41.22;-252.00;0.90;54.07;-16.22;36.38 
0.783;-0.36;0.21;0.56;2.37;-13.01;-0.21;167.86;39.30;-255.00;0.70;54.12;-15.86;36.34 
0.813;-0.26;0.17;0.51;7.51;-3.83;-10.92;164.86;39.30;-257.00;0.60;54.28;-15.76;36.35 
0.843;-0.18;0.19;0.51;7.58;-3.90;-12.52;162.86;36.42;-255.00;0.57;54.57;-15.81;36.30 
0.872;-0.14;0.25;0.40;5.43;-19.48;-2.37;161.87;37.38;-259.00;0.49;54.78;-15.51;36.39 
0.902;-0.23;0.12;0.26;-3.48;-23.03;4.52;163.86;31.63;-264.00;0.37;54.82;-14.82;36.51 
0.932;-0.43;0.06;0.22;-7.10;-12.66;-6.96;159.87;31.63;-264.00;0.49;55.10;-14.62;36.20 
0.962;-0.52;0.12;0.32;11.41;-16.90;-12.87;159.87;27.80;-265.00;0.62;55.64;-14.87;36.03 
0.993;-0.36;0.19;0.46;18.99;-33.46;-7.65;156.87;30.67;-270.00;0.61;56.08;-14.73;36.34 
1.023;-0.02;0.24;0.31;5.50;-51.97;-10.30;153.87;25.88;-276.00;0.39;56.65;-13.75;36.65 
1.053;0.16;0.26;0.06;-1.25;-42.85;-6.89;148.88;19.17;-282.00;0.31;57.13;-12.06;37.02 
1.083;-0.05;0.35;-0.06;7.03;-2.92;7.17;148.88;14.38;-283.00;0.36;57.29;-11.07;37.26 
1.112;-0.44;0.53;0.47;12.87;47.37;34.57;154.87;13.42;-275.00;0.83;55.98;-11.17;38.16 
1.141;-0.69;0.56;1.09;-3.69;28.66;43.20;161.87;14.38;-263.00;1.41;54.02;-11.50;38.77 
1.170;-0.64;0.51;1.14;-34.23;-73.60;43.48;161.87;12.46;-259.00;1.40;53.13;-10.32;38.62 
1.201;0.24;-0.04;0.26;-23.93;-107.62;59.83;152.87;-5.75;-264.00;0.36;53.22;-6.48;37.85 
1.230;0.09;-0.11;0.66;-22.33;-41.95;25.04;156.87;-17.25;-275.00;0.68;52.87;-4.07;37.08 
1.260;-0.47;0.09;0.84;-19.76;-18.02;-32.14;152.87;-28.76;-290.00;0.97;53.07;-2.41;36.49 
1.291;-1.02;1.20;1.77;-70.40;-150.40;-36.87;137.89;-31.63;-286.00;2.37;54.82;-2.27;35.90 
1.321;0.62;0.82;0.73;-134.75;-141.22;-25.46;112.91;-54.63;-295.00;1.26;58.64;1.41;33.03 
1.351;0.41;0.38;0.71;-176.21;-69.84;-50.30;93.92;-65.18;-295.00;0.90;62.14;4.38;28.64 
1.381;0.00;0.33;1.16;-213.36;-62.54;-116.24;15.99;-98.73;-266.00;1.21;66.25;5.84;22.57 
1.411;-0.07;-0.70;1.02;-157.08;-102.33;-72.63;-14.99;-123.65;-253.00;1.24;70.88;7.65;17.41 
1.441;0.62;-0.94;2.43;-37.22;50.57;107.97;-29.98;-143.78;-252.00;2.68;71.00;10.08;13.33 
1.471;-1.78;-2.58;2.56;293.70;-197.22;48.21;-32.97;-143.78;-259.00;4.05;69.50;9.79;13.38 
1.502;0.27;0.77;0.82;427.48;-8.49;-49.60;40.97;-162.95;-361.00;1.16;69.08;12.77;26.66 
1.532;0.10;1.75;0.71;-99.20;61.84;-37.98;86.93;-156.24;-391.00;1.89;69.18;12.35;31.99 
1.562;-0.32;0.24;1.19;60.45;91.83;87.79;77.94;-138.02;-387.00;1.26;66.92;10.57;31.08 
1.592;-0.43;0.07;0.94;46.47;-84.10;40.97;90.92;-132.27;-380.00;1.04;64.07;11.28;32.10 
1.622;0.02;0.05;0.15;-6.19;-132.87;-24.56;83.93;-169.66;-383.00;0.16;66.20;15.18;32.34 
1.652;-0.23;0.39;0.36;-6.68;4.10;-22.54;81.93;-182.12;-389.00;0.58;68.38;15.97;32.70 
1.682;-0.03;0.34;0.92;0.49;40.77;30.33;87.93;-178.28;-387.00;0.98;67.80;15.63;32.56 
1.712;0.08;0.41;1.54;-7.37;64.49;-29.22;88.93;-170.61;-381.00;1.60;66.34;14.44;32.36 
1.742;0.33;0.63;1.28;-6.54;-7.23;24.90;80.93;-161.03;-375.00;1.46;66.12;13.52;32.15 
1.772;0.22;0.08;0.57;-3.27;-29.01;47.58;83.93;-164.86;-376.00;0.62;65.32;15.08;31.41 
1.803;0.22;0.04;0.46;9.95;16.35;4.94;85.93;-166.78;-375.00;0.51;64.54;16.01;31.16 
1.832;0.22;0.26;0.90;16.07;30.40;-4.45;90.92;-165.82;-376.00;0.96;63.87;15.60;31.31 
1.861;0.06;0.42;1.06;10.78;0.35;8.56;91.92;-157.20;-374.00;1.14;63.32;15.26;31.46 
1.890;0.00;0.37;0.90;7.79;-28.94;16.14;96.92;-166.78;-372.00;0.97;63.02;16.03;31.52 
1.920;0.11;0.33;0.82;2.78;-25.74;8.90;98.92;-174.45;-372.00;0.89;63.08;17.02;31.37 
1.950;0.14;0.26;0.79;-2.99;-8.14;1.81;91.92;-181.16;-373.00;0.84;63.23;17.77;31.09 
1.980;0.06;0.29;0.83;1.88;7.03;2.30;91.92;-184.03;-371.00;0.88;63.12;17.89;30.80 
2.011;-0.03;0.27;0.86;3.20;7.17;5.36;94.92;-179.24;-367.00;0.90;62.75;17.77;30.66 
2.041;-0.06;0.26;0.86;0.21;1.25;0.49;88.93;-183.07;-364.00;0.90;62.43;17.64;30.49 
2.071;0.08;0.26;0.82;-1.32;-11.69;-7.03;87.93;-187.87;-361.00;0.86;62.53;17.72;30.26 
2.102;0.21;0.34;0.78;-0.70;-8.70;-7.72;82.93;-189.78;-363.00;0.88;62.96;18.04;30.14 
2.132;0.20;0.34;0.78;-0.97;0.21;2.57;82.93;-193.62;-363.00;0.87;63.12;18.38;29.99 
2.162;0.14;0.29;0.88;1.25;5.91;2.23;83.93;-195.54;-362.00;0.94;62.92;18.56;29.76 
2.192;0.13;0.30;0.88;0.35;-1.39;2.64;84.93;-191.70;-362.00;0.94;62.71;18.64;29.55 
2.221;0.10;0.28;0.86;1.53;-6.12;2.09;83.93;-196.49;-358.00;0.91;62.65;18.91;29.34 
2.251;0.10;0.30;0.83;1.81;-5.36;1.04;86.93;-194.58;-363.00;0.89;62.64;19.17;29.17 
2.281;0.13;0.32;0.81;0.70;-3.06;2.30;88.93;-197.45;-363.00;0.88;62.58;19.39;29.03 
2.312;0.10;0.33;0.82;-0.90;1.60;1.81;85.93;-197.45;-365.00;0.89;62.46;19.52;28.83 
2.342;0.06;0.31;0.83;-0.90;1.74;0.07;86.93;-197.45;-368.00;0.89;62.32;19.54;28.59 
2.372;0.11;0.31;0.78;-0.28;-0.21;-0.28;86.93;-198.41;-367.00;0.85;62.23;19.59;28.39 
2.401;0.13;0.31;0.82;0.42;3.48;-1.88;79.93;-198.41;-365.00;0.89;62.16;19.64;28.23 
2.431;0.09;0.34;0.85;0.63;3.62;-1.25;82.93;-194.58;-363.00;0.92;62.06;19.61;28.10 
2.461;0.13;0.28;0.83;-0.21;1.39;0.77;86.93;-196.49;-363.00;0.89;61.93;19.63;27.94 
2.491;0.13;0.29;0.86;0.14;0.56;-0.07;85.93;-196.49;-361.00;0.92;61.84;19.72;27.75 
2.522;0.13;0.28;0.86;0.21;0.63;0.21;81.93;-193.62;-363.00;0.91;61.71;19.82;27.54 
2.551;0.13;0.30;0.84;-0.83;-1.95;0.35;84.93;-193.62;-362.00;0.90;61.65;19.92;27.33 
2.581;0.11;0.29;0.82;0.28;-4.73;-0.90;85.93;-193.62;-364.00;0.88;61.63;20.09;27.12 
2.612;0.09;0.29;0.81;2.85;-1.32;-3.69;82.93;-193.62;-366.00;0.87;61.64;20.22;26.97 
2.642;0.10;0.30;0.85;3.55;0.14;-4.52;84.93;-197.45;-365.00;0.91;61.67;20.23;26.92 
2.672;0.09;0.37;0.83;3.55;2.85;-2.64;82.93;-193.62;-363.00;0.91;61.64;20.20;26.91 
2.702;0.10;0.34;0.82;1.39;2.99;0.56;86.93;-194.58;-365.00;0.89;61.53;20.15;26.85 
2.731;0.10;0.32;0.84;-0.97;4.31;0.70;84.93;-191.70;-365.00;0.90;61.34;20.12;26.68 
2.761;0.10;0.30;0.86;-1.32;4.73;-1.18;84.93;-189.78;-361.00;0.92;61.18;20.03;26.49 
2.791;0.10;0.35;0.85;-0.28;0.49;-1.95;83.93;-187.87;-365.00;0.92;61.10;19.96;26.32 
2.822;0.10;0.34;0.79;0.56;0.07;0.21;85.93;-189.78;-364.00;0.87;61.04;19.99;26.18 
2.852;0.11;0.31;0.81;-0.21;3.55;0.83;83.93;-189.78;-363.00;0.87;60.90;20.01;26.05 
2.881;0.09;0.31;0.83;0.07;4.59;1.67;87.93;-187.87;-364.00;0.89;60.71;19.96;25.92 
2.912;0.09;0.30;0.87;0.00;2.30;-1.39;79.93;-184.99;-364.00;0.92;60.54;19.90;25.74 
2.942;0.10;0.29;0.86;-0.14;0.42;-0.14;81.93;-185.95;-364.00;0.91;60.42;19.88;25.56 
2.972;0.09;0.30;0.82;0.63;0.97;-1.25;82.93;-183.07;-365.00;0.88;60.36;19.89;25.44 
3.001;0.06;0.33;0.82;1.18;2.02;-0.97;83.93;-185.95;-366.00;0.89;60.25;19.82;25.36 
3.031;0.09;0.33;0.86;0.77;1.67;-0.21;85.93;-186.91;-367.00;0.93;60.14;19.77;25.25 
3.061;0.10;0.33;0.87;0.56;0.90;1.53;84.93;-184.03;-362.00;0.94;60.02;19.79;25.11 
3.091;0.10;0.30;0.82;0.07;1.25;1.18;82.93;-184.99;-364.00;0.88;59.87;19.83;24.97 
3.122;0.11;0.30;0.83;-1.46;1.88;-0.70;83.93;-185.95;-364.00;0.89;59.74;19.79;24.82 
3.151;0.08;0.34;0.78;-1.74;1.32;-1.11;86.93;-184.99;-366.00;0.85;59.66;19.77;24.67 
3.181;0.10;0.30;0.82;-1.32;2.02;-0.83;83.93;-184.03;-365.00;0.88;59.58;19.73;24.53 
3.212;0.09;0.32;0.84;-1.39;0.42;-0.21;84.93;-183.07;-362.00;0.90;59.49;19.72;24.35 
3.242;0.09;0.33;0.82;-1.60;1.60;-0.56;81.93;-184.03;-364.00;0.89;59.42;19.72;24.16 
3.272;0.07;0.27;0.83;-0.56;1.18;0.83;81.93;-184.99;-360.00;0.88;59.30;19.69;24.00 
3.301;0.08;0.30;0.85;0.07;-1.74;0.28;81.93;-184.03;-363.00;0.90;59.22;19.72;23.85 
3.331;0.10;0.28;0.83;0.70;-2.43;-0.07;81.93;-184.03;-367.00;0.88;59.15;19.80;23.71 
3.361;0.10;0.26;0.81;2.50;1.67;-0.83;83.93;-183.07;-363.00;0.86;59.07;19.85;23.62 
3.391;0.09;0.31;0.86;3.41;1.39;-2.30;83.93;-185.95;-364.00;0.92;58.97;19.81;23.61 
3.422;0.08;0.34;0.83;2.16;-0.70;-0.49;85.93;-185.95;-363.00;0.90;58.88;19.78;23.60 
3.452;0.10;0.34;0.83;-0.63;-1.53;1.39;81.93;-185.95;-366.00;0.90;58.78;19.81;23.51 
3.481;0.10;0.34;0.84;-1.88;-1.11;1.74;85.93;-182.12;-364.00;0.91;58.67;19.87;23.37 
3.511;0.11;0.33;0.85;-1.95;-1.46;1.46;81.93;-184.99;-365.00;0.92;58.57;19.93;23.18 
3.541;0.10;0.34;0.82;-2.43;-1.11;0.83;82.93;-187.87;-364.00;0.89;58.48;20.01;23.01 
3.571;0.11;0.30;0.83;-2.30;0.97;-0.28;83.93;-186.91;-363.00;0.89;58.40;20.03;22.84 
3.601;0.08;0.31;0.83;-1.39;2.78;-1.53;82.93;-185.95;-366.00;0.89;58.33;19.97;22.68 
3.630;0.11;0.27;0.85;0.14;1.74;-1.46;80.93;-184.03;-363.00;0.90;58.26;19.91;22.52 
3.660;0.08;0.31;0.88;1.67;0.07;0.97;81.93;-185.95;-368.00;0.94;58.15;19.87;22.43 
3.690;0.10;0.30;0.86;1.74;-2.16;1.04;81.93;-187.87;-368.00;0.92;58.04;19.92;22.36 
3.721;0.09;0.30;0.81;0.63;-2.57;0.42;82.93;-184.03;-364.00;0.87;57.92;19.99;22.28 
3.751;0.14;0.33;0.82;-0.63;1.11;-0.28;83.93;-183.07;-364.00;0.89;57.85;20.07;22.19 
3.780;0.12;0.30;0.82;0.21;3.48;-0.90;82.93;-184.03;-362.00;0.88;57.75;20.01;22.09 
3.810;0.10;0.30;0.87;1.32;4.73;-3.34;83.93;-184.03;-360.00;0.93;57.62;19.89;22.05 
3.840;0.11;0.34;0.89;-0.14;-1.95;-2.92;83.93;-187.87;-363.00;0.96;57.62;19.81;22.01 
3.870;0.10;0.33;0.82;-0.28;-5.50;-1.04;86.93;-186.91;-361.00;0.89;57.64;19.92;21.90 
3.900;0.08;0.26;0.86;3.20;-1.39;1.95;83.93;-185.95;-361.00;0.90;57.57;20.03;21.79 
3.930;0.08;0.26;0.90;3.83;-1.60;3.97;88.93;-188.83;-361.00;0.94;57.35;20.10;21.77 
3.960;0.11;0.33;0.78;1.25;-1.60;-0.49;87.93;-190.74;-365.00;0.85;57.20;20.15;21.72 
3.990;0.08;0.28;0.82;1.67;-0.83;-3.41;86.93;-189.78;-362.00;0.87;57.15;20.16;21.69 
4.021;0.10;0.35;0.81;2.16;-0.90;-1.74;86.93;-189.78;-360.00;0.89;57.17;20.14;21.75 
4.051;0.10;0.34;0.82;1.88;5.29;2.64;89.93;-186.91;-363.00;0.89;57.01;20.08;21.78 
4.081;0.09;0.36;0.83;1.25;2.02;3.69;90.92;-188.83;-361.00;0.91;56.74;19.98;21.75 
4.110;0.15;0.26;0.82;-0.42;-0.42;5.01;86.93;-186.91;-364.00;0.87;56.50;20.08;21.62 
4.140;0.10;0.28;0.78;-0.49;3.83;1.25;89.93;-184.99;-361.00;0.83;56.28;20.14;21.48 
4.170;0.05;0.30;0.86;1.60;5.29;-2.37;89.93;-187.87;-362.00;0.91;56.13;19.98;21.40 
4.200;0.06;0.34;0.86;2.09;-2.30;-1.04;89.93;-185.95;-358.00;0.93;56.04;19.89;21.38 
4.231;0.10;0.33;0.80;1.11;-2.57;0.49;89.93;-187.87;-359.00;0.87;55.99;19.99;21.37 
4.260;0.08;0.33;0.80;1.18;1.67;-0.28;88.93;-190.74;-357.00;0.87;55.89;20.02;21.36 
4.290;0.09;0.37;0.85;0.49;3.20;0.28;88.93;-188.83;-359.00;0.93;55.75;19.90;21.35 
4.321;0.07;0.34;0.83;-0.56;-1.04;0.07;89.93;-189.78;-357.00;0.90;55.63;19.86;21.30 
4.351;0.10;0.33;0.83;-0.90;-1.18;-1.11;89.93;-188.83;-360.00;0.90;55.58;19.91;21.23 
4.381;0.11;0.32;0.84;-0.56;-0.14;-0.70;88.93;-187.87;-357.00;0.91;55.53;19.95;21.15 
4.410;0.10;0.32;0.85;-1.04;-1.32;0.83;86.93;-189.78;-360.00;0.91;55.46;19.98;21.07 
4.440;0.06;0.34;0.80;-0.83;-2.02;0.70;86.93;-189.78;-363.00;0.87;55.36;20.06;20.94 
4.470;0.07;0.31;0.85;-0.14;-0.70;1.18;88.93;-191.70;-361.00;0.91;55.27;20.09;20.86 
4.500;0.12;0.33;0.81;-0.07;-1.32;0.49;89.93;-191.70;-360.00;0.88;55.16;20.16;20.76 
4.531;0.14;0.29;0.81;0.28;3.27;-0.07;93.92;-189.78;-360.00;0.87;55.05;20.21;20.73 
4.560;0.10;0.34;0.84;0.56;1.25;-0.63;89.93;-190.74;-359.00;0.91;54.93;20.15;20.65 
4.590;0.09;0.34;0.83;0.35;0.35;-0.35;88.93;-187.87;-358.00;0.90;54.83;20.09;20.61 
4.620;0.12;0.34;0.82;0.00;0.00;0.35;89.93;-189.78;-358.00;0.90;54.73;20.08;20.56 
4.650;0.10;0.34;0.82;-0.21;0.14;0.56;89.93;-188.83;-361.00;0.89;54.63;20.09;20.50 
4.680;0.11;0.33;0.82;-0.07;1.04;-0.14;94.92;-187.87;-360.00;0.89;54.52;20.09;20.45 
4.709;0.11;0.29;0.84;-0.42;1.88;0.00;89.93;-190.74;-357.00;0.90;54.41;20.03;20.39 
4.739;0.10;0.35;0.82;-0.63;-0.35;0.97;93.92;-189.78;-359.00;0.90;54.28;19.99;20.28 
4.769;0.12;0.36;0.82;-0.35;0.56;0.49;91.92;-188.83;-360.00;0.90;54.17;20.01;20.25 
4.799;0.10;0.30;0.81;-0.42;0.42;0.35;91.92;-187.87;-360.00;0.87;54.05;20.03;20.19 
4.830;0.12;0.33;0.81;-0.49;0.35;-0.21;87.93;-188.83;-361.00;0.88;53.96;20.03;20.14 
4.859;0.08;0.34;0.82;-0.28;0.97;-0.14;87.93;-187.87;-358.00;0.89;53.87;20.02;20.08 
4.889;0.10;0.26;0.83;-0.42;0.56;-0.35;90.92;-185.95;-362.00;0.88;53.77;20.00;20.04 
4.919;0.09;0.34;0.86;-0.28;-1.25;1.53;91.92;-190.74;-363.00;0.93;53.65;19.99;19.99 
4.949;0.10;0.31;0.78;-0.63;0.07;0.49;90.92;-192.66;-363.00;0.85;53.56;20.03;19.92 
4.979;0.08;0.34;0.85;-0.49;0.00;0.00;91.92;-193.62;-359.00;0.92;53.45;20.02;19.81 
5.008;0.14;0.30;0.82;0.35;1.46;0.35;89.93;-190.74;-359.00;0.88;53.35;20.00;19.79 
5.038;0.11;0.32;0.82;0.21;0.35;0.21;89.93;-187.87;-360.00;0.89;53.24;20.00;19.75 
5.068;0.09;0.32;0.85;-0.07;-1.18;0.90;93.92;-191.70;-358.00;0.91;53.13;20.00;19.71 
5.098;0.10;0.30;0.82;-0.56;-2.09;1.11;89.93;-189.78;-364.00;0.88;53.04;20.08;19.65 
5.128;0.11;0.33;0.82;-0.63;-0.35;0.70;87.93;-192.66;-362.00;0.89;52.93;20.13;19.58 
5.158;0.14;0.31;0.81;-0.49;0.77;0.21;90.92;-191.70;-359.00;0.88;52.82;20.13;19.54 
5.188;0.10;0.36;0.83;-0.28;0.90;-0.14;89.93;-189.78;-360.00;0.91;52.73;20.10;19.50 
5.218;0.08;0.34;0.82;-0.49;-2.23;0.21;92.92;-192.66;-360.00;0.89;52.65;20.10;19.44 
5.248;0.08;0.32;0.85;-0.35;-5.36;1.32;88.93;-191.70;-361.00;0.91;52.59;20.18;19.39 
5.277;0.13;0.31;0.82;-0.49;-6.68;2.71;89.93;-193.62;-363.00;0.89;52.52;20.36;19.35 
5.306;0.12;0.32;0.78;-0.14;-2.50;1.53;89.93;-197.45;-361.00;0.85;52.44;20.53;19.31 
5.336;0.14;0.34;0.80;0.21;0.07;1.18;89.93;-196.49;-365.00;0.88;52.31;20.63;19.24 
5.366;0.13;0.30;0.83;-0.42;-0.35;0.83;92.92;-197.45;-363.00;0.89;52.18;20.66;19.19 
5.396;0.10;0.32;0.82;0.07;-1.32;1.04;93.92;-199.37;-362.00;0.89;52.08;20.72;19.13 
5.427;0.13;0.33;0.84;0.14;-2.99;0.42;91.92;-200.33;-363.00;0.91;51.99;20.81;19.09 
5.456;0.13;0.32;0.83;0.07;-1.74;0.63;88.93;-202.24;-360.00;0.90;51.92;20.91;19.09 
5.486;0.14;0.32;0.80;0.28;-0.97;-0.07;93.92;-200.33;-362.00;0.87;51.84;20.98;19.08 
5.516;0.14;0.33;0.84;0.21;1.25;-0.56;91.92;-202.24;-363.00;0.91;51.75;21.00;19.06 
5.546;0.10;0.31;0.85;-0.21;-0.14;-0.63;95.92;-201.29;-363.00;0.91;51.67;21.00;19.02 
5.576;0.13;0.31;0.82;-0.63;-2.99;-0.49;89.93;-201.29;-363.00;0.89;51.61;21.03;18.96 
5.606;0.14;0.35;0.82;-0.70;-2.43;-0.77;94.92;-202.24;-359.00;0.90;51.59;21.15;18.95 
5.635;0.11;0.41;0.78;1.25;-0.56;2.71;92.92;-206.08;-363.00;0.89;51.57;21.29;19.02 
5.665;0.16;0.36;0.85;0.42;1.39;2.85;89.93;-204.16;-361.00;0.94;51.34;21.34;19.01 
5.695;0.17;0.29;0.82;-1.25;5.98;4.73;92.92;-207.04;-359.00;0.89;51.11;21.36;18.94 
5.726;0.13;0.22;0.84;0.00;10.02;-4.03;93.92;-203.20;-364.00;0.88;50.88;21.16;18.79 
5.756;0.17;0.26;0.82;2.92;11.97;-10.85;92.92;-201.29;-363.00;0.88;50.86;20.79;18.85 
5.786;0.21;0.38;0.84;-0.63;14.82;-9.11;90.92;-197.45;-360.00;0.95;50.91;20.42;19.00 
5.815;0.25;0.40;0.90;-10.57;16.77;-2.02;88.93;-191.70;-358.00;1.02;50.84;19.97;18.97 
