Time(s) acc_x(g) acc_y(g) acc_z(g) gyr_x(°/s) gyr_y(°/s) gyr_z(°/s) mag_x(G) mag_y(G) mag_z(G) SVM(g) yaw(°) pitch(°) roll(°)
0.000;-0.33;-0.02;0.97;-2.43;2.78;5.63;33.94;-25.87;-330.00;1.02;-155.49;-17.32;1.44 
0.031;-0.39;-0.02;0.98;1.32;-14.68;5.36;35.94;-30.67;-329.00;1.05;-155.90;-17.20;1.53 
0.061;-0.32;-0.03;0.77;2.43;-20.24;3.20;36.94;-32.58;-328.00;0.83;-156.33;-16.57;1.70 
0.091;-0.26;-0.02;0.70;2.43;0.07;-0.56;34.94;-34.50;-332.00;0.75;-156.62;-16.24;1.81 
0.121;-0.30;-0.05;0.78;1.88;16.49;-3.27;35.94;-32.58;-333.00;0.84;-156.74;-16.55;1.88 
0.151;-0.38;0.00;0.88;1.95;10.85;-2.43;36.94;-29.71;-333.00;0.96;-156.80;-17.08;1.93 
0.181;-0.34;-0.03;0.95;1.11;-0.63;0.28;36.94;-29.71;-329.00;1.01;-156.95;-17.23;2.03 
0.210;-0.29;0.02;0.88;-0.49;-3.20;-0.35;34.94;-32.58;-331.00;0.93;-157.18;-17.16;2.08 
0.241;-0.25;0.00;0.85;0.63;-2.23;-0.70;37.94;-32.58;-332.00;0.89;-157.42;-17.05;2.17 
0.271;-0.28;0.02;0.88;1.32;0.28;-2.78;40.93;-30.67;-335.00;0.92;-157.60;-17.01;2.26 
0.301;-0.23;0.00;0.86;0.49;-2.09;-5.01;36.94;-31.62;-331.00;0.89;-157.72;-16.98;2.32 
0.332;-0.30;0.02;0.86;2.37;-7.30;-7.65;38.93;-34.50;-333.00;0.91;-157.78;-16.82;2.33 
0.362;-0.30;0.06;0.87;4.66;-5.08;-8.35;33.94;-32.58;-334.00;0.92;-157.76;-16.64;2.43 
0.392;-0.30;0.01;0.80;5.29;-3.76;-7.72;33.94;-37.37;-333.00;0.85;-157.72;-16.56;2.55 
0.422;-0.28;0.00;0.82;6.26;-2.57;-8.00;36.94;-35.46;-336.00;0.87;-157.70;-16.46;2.72 
0.453;-0.27;0.01;0.83;4.66;-4.66;-8.90;38.93;-41.21;-337.00;0.87;-157.63;-16.36;2.86 
0.483;-0.30;0.06;0.76;2.30;-7.03;-4.59;33.94;-38.33;-336.00;0.82;-157.64;-16.25;2.97 
0.513;-0.26;0.03;0.66;-3.48;-1.11;-4.66;33.94;-41.21;-338.00;0.71;-157.77;-16.16;2.96 
0.543;-0.18;-0.02;0.73;-8.77;8.42;-4.66;28.95;-36.42;-338.00;0.75;-157.89;-16.28;2.80 
0.573;-0.17;-0.09;0.78;-4.38;7.51;-8.56;27.95;-39.29;-337.00;0.80;-158.02;-16.49;2.46 
0.603;-0.14;-0.07;0.76;10.57;-0.63;-23.37;23.96;-36.42;-335.00;0.78;-157.78;-16.55;2.24 
0.633;-0.26;0.30;0.64;6.75;-5.91;-16.28;22.96;-40.25;-336.00;0.75;-157.33;-16.52;2.35 
0.663;-0.42;0.30;0.58;4.38;-8.70;16.21;25.96;-43.12;-339.00;0.78;-157.46;-16.38;2.86 
0.692;-0.40;0.14;0.51;4.94;1.81;21.50;26.95;-42.17;-340.00;0.66;-158.30;-16.52;3.48 
0.722;-0.23;0.16;0.53;2.64;9.53;6.05;30.95;-41.21;-345.00;0.60;-158.89;-16.82;3.82 
0.753;0.18;0.32;0.45;2.43;-6.96;8.70;29.95;-36.42;-344.00;0.58;-159.18;-17.09;3.99 
0.783;0.26;0.27;0.23;-9.81;-54.12;65.60;37.94;-38.33;-345.00;0.44;-160.74;-15.65;4.67 
0.813;0.13;-0.22;0.00;-0.07;-79.65;77.01;50.91;-48.87;-355.00;0.26;-163.48;-12.50;5.38 
0.842;-0.22;-0.53;0.09;-3.83;-29.01;34.16;53.91;-55.58;-360.00;0.58;-165.55;-10.64;5.00 
0.871;-0.43;-0.58;0.42;-3.90;42.09;-8.77;62.89;-57.50;-366.00;0.84;-166.20;-10.87;4.35 
0.901;-0.46;-0.26;0.78;-23.51;88.21;-67.20;57.90;-43.12;-357.00;0.94;-165.39;-13.24;3.41 
0.931;-0.32;0.41;0.97;-2.92;21.43;-66.50;40.93;-33.54;-342.00;1.10;-163.25;-15.23;2.42 
0.961;-0.50;0.49;1.17;20.10;13.22;44.45;31.95;-40.25;-342.00;1.36;-162.90;-15.50;2.77 
0.991;-0.41;-0.02;1.18;-7.03;-60.31;72.42;48.92;-36.42;-346.00;1.25;-165.07;-14.52;3.78 
1.021;-0.18;-0.26;0.83;-28.17;-81.53;4.80;52.91;-46.00;-357.00;0.89;-166.61;-12.02;3.59 
1.052;-0.25;0.09;0.90;-12.52;-35.20;4.66;51.91;-56.54;-365.00;0.94;-167.16;-10.20;2.70 
1.082;-0.34;0.55;1.17;16.90;-42.57;58.30;56.90;-60.37;-374.00;1.34;-167.96;-9.00;3.30 
1.112;-0.17;-0.03;1.42;8.77;-62.96;93.29;78.87;-72.83;-383.00;1.43;-170.66;-7.46;4.25 
1.142;0.02;-0.27;1.05;-18.64;-129.74;19.41;82.86;-85.29;-398.00;1.08;-172.58;-4.51;4.38 
1.172;0.34;-0.04;0.86;7.37;-52.03;25.88;81.86;-107.33;-413.00;0.93;-173.40;-0.84;4.25 
1.202;-0.18;-0.20;1.34;23.37;10.43;1.04;83.86;-113.08;-413.00;1.37;-174.09;-0.39;4.60 
1.232;-0.24;-0.06;1.86;50.37;-36.17;-0.56;87.85;-112.12;-418.00;1.88;-174.08;-0.51;5.57 
1.263;0.26;0.06;1.47;29.63;-155.06;-23.58;100.83;-134.16;-430.00;1.49;-174.02;2.33;7.20 
1.293;0.30;0.34;0.84;35.13;-142.47;-18.16;102.83;-171.54;-446.00;0.95;-173.60;7.47;8.71 
1.323;0.12;0.10;1.05;17.74;-79.65;-5.91;106.82;-196.45;-460.00;1.06;-173.48;10.46;9.71 
1.354;0.12;0.09;0.82;10.16;-87.10;-4.52;108.82;-226.16;-476.00;0.83;-173.55;13.29;9.99 
1.374;0.10;0.26;0.98;-6.61;-66.37;-9.67;102.83;-240.53;-482.00;1.02;-173.59;15.33;10.06 
1.403;0.21;0.22;1.16;-0.49;-75.27;8.77;103.83;-253.95;-485.00;1.20;-173.67;17.19;9.84 
1.433;0.42;0.28;0.91;3.41;-75.27;-5.01;104.82;-268.32;-487.00;1.04;-173.96;19.44;10.01 
1.463;0.64;0.24;0.92;-14.40;-62.82;-17.53;102.83;-284.61;-488.00;1.15;-173.69;21.53;9.95 
1.493;0.69;0.19;0.90;-8.97;-65.88;-26.09;94.84;-305.70;-492.00;1.15;-173.02;23.49;9.86 
1.523;0.68;0.22;0.88;-16.21;-48.56;-25.74;87.85;-320.07;-490.00;1.13;-172.19;25.21;9.74 
1.554;0.59;0.29;0.86;-7.17;-25.88;-16.21;85.86;-335.40;-495.00;1.08;-171.53;26.43;9.70 
1.584;0.49;0.25;0.78;0.77;-8.70;-7.93;81.86;-335.40;-490.00;0.95;-171.35;27.04;9.77 
1.614;0.46;0.20;0.73;0.56;-0.83;-4.73;87.85;-341.15;-491.00;0.89;-171.39;27.23;9.87 
1.644;0.49;0.20;0.70;0.42;-0.56;3.06;86.85;-339.24;-493.00;0.88;-171.61;27.38;9.83 
1.673;0.50;0.16;0.78;3.27;-8.42;10.71;88.85;-338.28;-493.00;0.94;-172.11;27.66;9.71 
1.702;0.37;0.16;0.65;6.05;-13.29;18.50;88.85;-341.15;-492.00;0.76;-172.81;28.13;9.60 
1.732;0.30;0.13;0.68;-2.09;-14.61;7.30;86.85;-344.99;-493.00;0.75;-173.44;28.58;9.41 
1.761;0.40;0.13;0.67;0.83;-21.29;4.66;84.86;-347.86;-492.00;0.79;-173.84;29.13;9.18 
1.790;0.54;0.18;0.70;2.09;-34.02;8.90;88.85;-356.49;-493.00;0.90;-174.28;30.00;9.07 
1.819;0.54;0.13;0.72;0.63;-45.15;6.12;89.85;-365.11;-493.00;0.91;-174.74;31.23;8.91 
1.848;0.61;0.13;0.77;-4.38;-49.39;3.20;85.86;-371.82;-495.00;0.99;-175.05;32.74;8.72 
1.877;0.64;0.14;0.80;-3.55;-52.59;4.94;85.86;-386.19;-491.00;1.03;-175.22;34.30;8.44 
1.906;0.60;0.06;0.78;0.77;-39.72;1.32;80.86;-395.78;-490.00;0.99;-175.50;35.73;8.17 
1.936;0.70;0.14;0.80;3.83;-19.69;-0.42;80.86;-407.28;-491.00;1.07;-175.77;36.78;8.09 
1.965;0.70;0.14;0.82;4.66;-7.79;1.32;84.86;-411.11;-488.00;1.09;-176.13;37.33;8.07 
1.994;0.63;0.14;0.86;4.87;2.16;1.88;81.86;-413.03;-490.00;1.08;-176.49;37.50;8.02 
2.025;0.70;0.10;0.74;6.33;6.05;4.24;85.86;-412.07;-489.00;1.02;-177.01;37.48;7.96 
2.055;0.69;0.16;0.63;1.67;8.07;3.06;88.85;-407.28;-493.00;0.95;-177.53;37.46;7.90 
2.085;0.64;0.12;0.67;-0.83;5.08;1.32;90.85;-404.40;-493.00;0.93;-177.89;37.41;7.79 
2.115;0.61;0.10;0.69;-0.97;1.25;-0.21;89.85;-407.28;-491.00;0.93;-178.17;37.41;7.67 
2.145;0.56;0.15;0.62;-2.85;-1.11;-1.32;89.85;-406.32;-497.00;0.85;-178.41;37.49;7.57 
2.175;0.57;0.14;0.65;-3.83;-3.76;-0.42;87.85;-409.19;-492.00;0.88;-178.55;37.63;7.45 
2.205;0.56;0.10;0.64;-2.02;-3.20;-0.63;87.85;-409.19;-489.00;0.86;-178.74;37.81;7.34 
2.236;0.59;0.16;0.70;-1.39;-5.43;-1.60;89.85;-411.11;-493.00;0.93;-178.94;38.01;7.24 
2.266;0.65;0.17;0.67;-1.11;-3.06;-2.57;85.86;-412.07;-490.00;0.95;-179.12;38.22;7.22 
2.296;0.65;0.18;0.73;-0.63;-0.83;-1.95;85.86;-414.94;-492.00;0.99;-179.28;38.34;7.20 
2.327;0.66;0.21;0.70;-1.39;0.90;-0.90;86.85;-413.03;-494.00;0.98;-179.51;38.44;7.15 
2.356;0.63;0.19;0.69;-0.56;3.34;2.09;84.86;-413.03;-489.00;0.95;-179.76;38.47;7.09 
2.386;0.64;0.18;0.67;0.49;3.97;5.29;84.86;-409.19;-493.00;0.94;179.86;38.48;6.98 
2.416;0.62;0.14;0.71;0.90;1.74;7.03;81.86;-410.15;-493.00;0.95;179.38;38.51;6.82 
2.446;0.56;0.10;0.64;1.18;-1.11;6.89;84.86;-412.07;-490.00;0.86;178.83;38.71;6.58 
2.476;0.58;0.09;0.67;2.16;-0.77;1.32;87.85;-410.15;-493.00;0.89;178.45;38.71;6.41 
2.506;0.58;0.14;0.73;1.67;-2.30;1.67;84.86;-412.07;-491.00;0.94;178.13;38.83;6.37 
2.537;0.63;0.12;0.70;1.95;-2.57;2.02;85.86;-411.11;-495.00;0.95;177.72;38.97;6.32 
2.567;0.63;0.15;0.66;-0.63;-2.64;0.07;84.86;-414.94;-490.00;0.92;177.40;39.10;6.27 
2.597;0.65;0.14;0.70;0.56;3.06;3.34;85.86;-415.90;-493.00;0.97;177.12;39.21;6.21 
2.626;0.64;0.14;0.70;-2.37;1.39;-0.35;86.85;-413.03;-491.00;0.96;176.87;39.25;6.12 
2.656;0.65;0.13;0.68;-0.21;3.83;1.25;89.85;-414.94;-491.00;0.95;176.60;39.23;6.05 
2.686;0.62;0.12;0.71;-0.42;4.80;0.63;87.85;-413.03;-492.00;0.95;176.33;39.15;6.01 
2.716;0.61;0.10;0.72;-0.28;4.31;-0.28;86.85;-409.19;-496.00;0.95;176.07;39.05;5.95 
2.747;0.62;0.11;0.70;1.11;2.78;-1.32;85.86;-413.98;-489.00;0.94;175.83;38.99;5.91 
2.777;0.62;0.14;0.70;2.43;2.09;-2.02;85.86;-411.11;-494.00;0.95;175.55;38.99;5.93 
2.807;0.63;0.18;0.73;1.67;1.32;-0.90;87.85;-409.19;-492.00;0.98;175.28;38.97;5.99 
2.838;0.62;0.14;0.70;0.42;0.14;-0.90;85.86;-411.11;-490.00;0.95;175.00;39.00;6.00 
2.867;0.62;0.13;0.66;-1.39;-0.14;-1.46;89.85;-411.11;-492.00;0.91;174.76;39.04;5.98 
2.897;0.63;0.14;0.69;-0.97;-0.35;-1.04;84.86;-411.11;-493.00;0.94;174.57;39.08;5.92 
2.927;0.62;0.13;0.69;-0.49;0.00;-0.07;86.85;-413.03;-494.00;0.94;174.35;39.10;5.89 
2.957;0.63;0.11;0.69;-0.07;0.28;0.28;87.85;-411.11;-496.00;0.94;174.07;39.16;5.85 
2.987;0.63;0.13;0.70;0.00;1.32;0.14;89.85;-410.15;-494.00;0.95;173.81;39.17;5.81 
3.017;0.62;0.13;0.67;-0.28;0.83;0.49;86.85;-413.03;-494.00;0.92;173.53;39.19;5.79 
3.048;0.62;0.13;0.70;0.14;1.39;0.70;85.86;-410.15;-491.00;0.94;173.25;39.21;5.74 
3.077;0.61;0.12;0.70;-0.14;1.32;-0.49;86.85;-412.07;-492.00;0.94;173.00;39.21;5.71 
3.107;0.62;0.14;0.68;0.14;0.97;-0.28;88.85;-412.07;-489.00;0.93;172.76;39.21;5.68 
3.137;0.62;0.14;0.70;-0.77;0.63;-0.83;87.85;-410.15;-493.00;0.95;172.52;39.23;5.68 
3.167;0.61;0.16;0.70;-0.90;0.83;-1.11;86.85;-408.24;-495.00;0.94;172.32;39.26;5.66 
3.197;0.62;0.13;0.66;0.21;1.25;0.28;86.85;-412.07;-492.00;0.91;172.10;39.27;5.66 
3.227;0.62;0.13;0.73;-0.77;1.39;-0.63;86.85;-411.11;-490.00;0.97;171.84;39.27;5.65 
3.258;0.61;0.12;0.72;-0.56;0.42;-0.97;85.86;-409.19;-489.00;0.95;171.63;39.26;5.62 
3.288;0.63;0.12;0.70;-0.83;-1.11;-2.16;84.86;-412.07;-493.00;0.95;171.43;39.28;5.61 
3.318;0.62;0.13;0.67;-0.49;-0.07;-2.43;84.86;-412.07;-492.00;0.92;171.25;39.32;5.63 
3.349;0.62;0.14;0.72;-0.14;-0.07;-0.77;86.85;-413.03;-490.00;0.96;171.04;39.35;5.62 
3.378;0.62;0.13;0.67;0.07;0.97;-0.21;90.85;-408.24;-491.00;0.92;170.78;39.38;5.61 
3.408;0.60;0.17;0.70;-0.49;1.11;0.07;85.86;-411.11;-490.00;0.94;170.55;39.38;5.62 
3.438;0.62;0.15;0.71;-0.42;0.49;0.63;87.85;-413.03;-492.00;0.95;170.29;39.39;5.60 
3.468;0.62;0.13;0.66;-0.63;-0.28;0.56;83.86;-413.98;-494.00;0.91;170.02;39.43;5.56 
3.498;0.61;0.14;0.66;-1.18;-0.70;-0.28;86.85;-413.03;-491.00;0.91;169.78;39.48;5.53 
3.528;0.62;0.12;0.67;-0.77;-0.56;-0.28;85.86;-410.15;-492.00;0.92;169.54;39.54;5.50 
3.559;0.62;0.14;0.71;0.00;0.21;0.63;85.86;-412.07;-491.00;0.95;169.25;39.59;5.47 
3.589;0.59;0.16;0.67;-0.56;-0.14;0.21;83.86;-412.07;-493.00;0.91;168.99;39.64;5.43 
3.619;0.62;0.14;0.70;-0.63;0.77;0.56;86.85;-413.03;-491.00;0.95;168.72;39.66;5.40 
3.649;0.62;0.14;0.69;-0.63;0.70;0.21;84.86;-412.07;-490.00;0.94;168.46;39.68;5.40 
3.678;0.63;0.16;0.72;0.07;1.11;0.42;82.86;-414.94;-490.00;0.97;168.19;39.67;5.39 
3.708;0.62;0.15;0.70;0.00;1.25;0.00;84.86;-413.03;-494.00;0.95;167.94;39.66;5.39 
3.738;0.61;0.15;0.71;0.21;0.42;0.49;85.86;-413.03;-492.00;0.95;167.69;39.66;5.37 
3.768;0.64;0.13;0.67;-0.14;-0.07;0.28;84.86;-414.94;-492.00;0.94;167.41;39.69;5.36 
3.798;0.63;0.13;0.69;-0.28;0.00;0.83;85.86;-410.15;-491.00;0.94;167.15;39.72;5.36 
3.828;0.62;0.14;0.69;0.35;0.00;0.97;85.86;-411.11;-493.00;0.94;166.86;39.75;5.33 
3.858;0.59;0.15;0.69;-0.56;-0.07;0.07;84.86;-411.11;-491.00;0.92;166.59;39.79;5.31 
3.888;0.63;0.13;0.69;0.70;0.07;1.39;83.86;-412.07;-493.00;0.94;166.30;39.81;5.32 
3.918;0.63;0.13;0.69;0.07;1.11;0.70;87.85;-413.03;-491.00;0.94;166.02;39.82;5.31 
3.948;0.62;0.15;0.68;-0.07;0.42;0.90;84.86;-413.03;-488.00;0.93;165.74;39.83;5.31 
3.978;0.62;0.13;0.72;-0.14;0.21;0.70;85.86;-413.03;-491.00;0.96;165.47;39.85;5.29 
4.008;0.62;0.14;0.69;0.28;0.07;0.63;86.85;-411.11;-491.00;0.94;165.19;39.89;5.29 
4.038;0.63;0.11;0.70;-0.14;0.21;0.21;86.85;-410.15;-491.00;0.95;164.93;39.92;5.29 
4.069;0.60;0.10;0.65;-0.49;-0.42;0.35;85.86;-412.07;-491.00;0.89;164.67;39.92;5.29 
4.099;0.64;0.13;0.70;-0.28;0.00;-0.42;84.86;-415.90;-490.00;0.96;164.41;39.94;5.30 
4.128;0.64;0.14;0.70;-0.49;0.49;-1.11;87.85;-412.07;-491.00;0.96;164.18;39.96;5.31 
4.159;0.61;0.15;0.73;-0.77;0.14;-0.77;82.86;-414.94;-488.00;0.96;163.97;39.98;5.32 
4.189;0.62;0.10;0.65;-1.39;0.07;-1.67;83.86;-413.03;-488.00;0.90;163.76;40.01;5.31 
4.219;0.62;0.13;0.72;-2.16;-0.49;-2.50;82.86;-413.03;-490.00;0.96;163.63;39.99;5.33 
4.249;0.62;0.14;0.70;-2.50;-1.04;-2.30;82.86;-412.07;-493.00;0.95;163.49;40.02;5.35 
4.279;0.62;0.16;0.71;-3.34;-0.97;-1.25;82.86;-413.98;-492.00;0.96;163.36;40.08;5.33 
4.309;0.62;0.14;0.71;-2.30;-2.16;-0.83;82.86;-416.86;-490.00;0.95;163.18;40.16;5.29 
4.339;0.60;0.06;0.70;-0.28;1.88;2.57;81.86;-417.82;-493.00;0.92;162.90;40.15;5.26 
4.369;0.62;0.16;0.66;0.28;-1.53;0.77;84.86;-415.90;-489.00;0.92;162.61;40.20;5.26 
4.399;0.62;0.13;0.68;-0.83;-1.60;2.23;83.86;-416.86;-491.00;0.93;162.30;40.27;5.23 
4.429;0.63;0.18;0.66;-0.83;-1.95;2.50;84.86;-416.86;-488.00;0.93;162.00;40.33;5.17 
4.460;0.59;0.15;0.69;0.42;-0.28;3.06;80.86;-414.94;-489.00;0.92;161.66;40.39;5.12 
4.490;0.63;0.14;0.69;0.35;-1.53;4.10;80.86;-418.78;-489.00;0.94;161.28;40.42;5.08 
4.520;0.65;0.14;0.70;0.56;0.28;5.08;83.86;-418.78;-490.00;0.97;160.91;40.46;5.03 
