Time(s) acc_x(g) acc_y(g) acc_z(g) gyr_x(°/s) gyr_y(°/s) gyr_z(°/s) mag_x(G) mag_y(G) mag_z(G) SVM(g) yaw(°) pitch(°) roll(°)
0.000;-0.27;0.05;0.71;14.12;-5.63;-11.69;44.92;-46.00;-346.00;0.76;112.96;-9.73;19.70 
0.030;-0.32;0.14;0.74;5.29;7.51;-9.53;45.92;-45.04;-344.00;0.82;113.26;-9.90;19.98 
0.060;-0.31;0.13;0.77;2.50;8.97;-1.88;43.93;-43.12;-346.00;0.84;113.27;-10.17;20.13 
0.091;-0.22;0.06;0.79;-0.56;12.52;-6.54;44.92;-41.21;-341.00;0.82;113.15;-10.47;20.17 
0.121;-0.18;0.14;0.82;2.85;4.80;-17.04;41.93;-38.33;-344.00;0.85;113.31;-10.76;20.16 
0.151;-0.15;0.14;0.81;11.69;-3.97;-20.94;38.93;-39.29;-342.00;0.84;113.83;-10.76;20.26 
0.181;-0.18;0.30;0.75;17.46;-11.55;-23.23;40.93;-39.29;-344.00;0.83;114.58;-10.62;20.68 
0.211;-0.36;0.42;0.64;15.65;-22.26;-0.56;35.94;-47.91;-348.00;0.85;115.25;-10.18;21.39 
0.241;-0.34;0.26;0.52;13.91;-15.23;25.74;44.92;-47.91;-355.00;0.67;115.18;-9.63;22.25 
0.271;-0.26;0.02;0.48;6.96;-19.13;44.17;56.90;-49.83;-354.00;0.55;114.34;-8.92;22.86 
0.302;-0.28;0.00;0.42;-5.36;-26.50;43.27;58.90;-51.75;-363.00;0.50;113.22;-7.77;23.07 
0.332;-0.29;0.05;0.41;-27.76;5.77;18.02;66.89;-55.58;-365.00;0.50;112.20;-7.22;22.62 
0.361;-0.19;0.18;0.46;-32.21;37.22;8.42;59.90;-50.79;-362.00;0.53;111.41;-7.72;21.86 
0.390;0.05;0.36;0.58;-21.91;52.17;13.70;55.91;-40.25;-354.00;0.68;110.38;-8.79;21.36 
0.419;0.18;0.14;0.63;-2.57;-35.34;58.16;58.90;-37.37;-353.00;0.67;109.10;-8.63;21.39 
0.448;0.24;-0.03;0.23;6.75;-118.96;67.34;69.88;-43.12;-358.00;0.33;108.00;-5.75;21.98 
0.478;-0.20;-0.17;0.00;-29.84;-135.65;26.23;79.87;-64.21;-375.00;0.26;107.78;-1.17;21.22 
0.508;-0.55;-0.34;0.26;-12.17;-18.30;-7.23;73.88;-92.00;-393.00;0.70;108.36;0.99;20.17 
0.538;-0.40;-0.23;0.69;11.41;130.37;-23.44;69.88;-76.66;-386.00;0.83;108.00;-0.83;19.73 
0.568;-0.36;-0.02;1.17;39.72;129.46;-29.36;66.89;-56.54;-369.00;1.22;107.38;-5.09;19.93 
0.599;-0.18;0.37;1.32;21.01;-5.84;1.53;67.89;-48.87;-361.00;1.38;107.28;-7.04;21.38 
0.629;-0.24;0.47;0.98;-17.25;-78.40;12.24;76.87;-47.91;-368.00;1.11;107.78;-5.36;21.77 
0.659;-0.20;-0.05;0.93;-5.77;-53.08;39.10;76.87;-63.25;-376.00;0.95;107.57;-3.18;21.60 
0.689;-0.03;-0.26;1.09;-10.99;-34.50;10.16;83.86;-66.12;-385.00;1.12;107.20;-1.41;21.40 
0.719;-0.09;0.05;1.35;10.57;-38.26;-21.36;79.87;-74.75;-391.00;1.35;107.68;-0.30;21.25 
0.749;0.00;0.33;1.29;17.81;-81.95;-19.90;77.87;-88.16;-404.00;1.33;108.81;0.99;21.50 
0.779;0.01;0.36;1.34;7.93;-88.77;-2.57;76.87;-103.50;-415.00;1.39;109.83;3.57;22.12 
0.810;0.00;0.36;1.26;3.34;-110.47;-2.99;74.87;-125.54;-430.00;1.31;111.04;6.16;22.18 
0.840;0.35;0.25;1.07;19.90;-120.70;59.55;72.88;-146.62;-446.00;1.15;111.13;10.11;22.50 
0.870;0.14;-0.14;1.38;-2.23;-152.14;6.47;81.86;-185.91;-468.00;1.39;111.02;14.03;22.47 
0.901;0.20;0.26;1.37;24.42;-171.13;10.71;80.86;-198.37;-471.00;1.41;112.07;18.82;22.66 
0.931;0.06;0.42;1.24;26.16;-206.82;24.83;91.85;-259.70;-478.00;1.31;112.97;24.08;23.23 
0.960;0.32;0.18;1.15;37.08;-174.05;30.75;98.83;-303.78;-487.00;1.21;113.33;29.49;23.59 
0.990;0.66;-0.03;0.75;18.16;-93.70;3.76;109.82;-348.82;-490.00;1.00;113.32;33.41;23.56 
1.020;0.58;0.19;1.02;10.92;-9.32;-9.46;111.81;-358.40;-493.00;1.19;113.48;34.76;23.65 
1.050;0.52;0.21;1.20;24.21;-8.56;-3.34;113.81;-365.11;-493.00;1.32;113.48;34.72;23.85 
1.080;0.90;0.35;1.09;10.16;-15.79;0.90;120.80;-361.28;-494.00;1.46;113.42;34.77;24.21 
1.111;0.81;0.13;0.64;-6.05;-27.62;-1.53;120.80;-371.82;-494.00;1.04;113.27;35.71;24.05 
1.141;0.46;0.33;0.65;-16.14;9.32;-3.55;122.79;-372.78;-492.00;0.86;113.12;35.91;23.69 
1.171;0.19;0.22;0.64;-13.50;-3.83;12.45;116.80;-372.78;-490.00;0.70;112.78;35.72;23.19 
1.201;0.35;0.00;0.55;-6.40;-3.69;1.04;110.81;-375.65;-488.00;0.65;112.23;35.82;22.56 
1.231;0.62;0.39;0.73;0.63;-26.37;-17.95;115.81;-377.57;-491.00;1.03;112.24;36.04;22.37 
1.261;0.68;0.52;0.81;16.90;-54.19;0.21;115.81;-386.19;-494.00;1.18;112.72;36.91;22.79 
1.291;0.71;0.29;0.90;15.17;-61.50;8.14;117.80;-400.57;-490.00;1.18;112.72;38.42;23.01 
1.322;0.67;0.11;0.70;1.88;-58.16;8.77;119.80;-415.90;-487.00;0.98;112.40;40.23;22.68 
1.352;0.62;0.11;0.50;-9.60;-11.62;-8.00;119.80;-428.36;-487.00;0.80;112.16;41.51;22.22 
1.382;0.57;0.19;0.62;-7.10;25.32;-7.65;116.80;-426.44;-482.00;0.86;112.10;41.23;22.01 
1.413;0.52;0.24;0.78;-0.07;20.03;1.39;116.80;-421.65;-486.00;0.97;111.87;40.44;21.83 
1.443;0.54;0.18;0.77;3.06;-0.77;8.83;116.80;-415.90;-487.00;0.96;111.41;40.18;21.54 
1.473;0.63;0.20;0.72;3.76;-9.18;4.73;118.80;-417.82;-485.00;0.98;110.96;40.36;21.24 
1.503;0.67;0.23;0.62;3.62;-15.72;2.02;120.80;-421.65;-491.00;0.94;110.65;40.81;21.04 
1.533;0.70;0.25;0.62;1.88;-5.70;1.04;118.80;-425.48;-485.00;0.97;110.41;41.26;20.88 
1.563;0.66;0.23;0.64;0.07;0.14;1.60;119.80;-424.53;-484.00;0.95;110.13;41.43;20.70 
1.593;0.63;0.20;0.70;-2.09;3.97;0.70;119.80;-422.61;-486.00;0.96;109.83;41.42;20.47 
1.624;0.56;0.20;0.74;-1.95;1.88;-0.28;119.80;-424.53;-488.00;0.95;109.56;41.29;20.25 
1.654;0.58;0.22;0.70;-1.81;-3.34;-0.83;117.80;-426.44;-485.00;0.94;109.32;41.26;20.02 
1.684;0.63;0.23;0.69;-1.88;-4.87;-0.14;117.80;-426.44;-486.00;0.96;109.14;41.33;19.85 
1.714;0.68;0.19;0.63;-1.11;-4.73;3.34;120.80;-426.44;-485.00;0.95;108.89;41.53;19.63 
1.744;0.70;0.18;0.70;-0.49;0.28;0.28;116.80;-431.23;-484.00;1.01;108.56;41.70;19.36 
1.774;0.69;0.19;0.64;0.00;1.32;0.77;116.80;-428.36;-484.00;0.96;108.32;41.71;19.18 
1.803;0.65;0.15;0.68;0.14;0.07;4.03;115.81;-428.36;-489.00;0.95;107.99;41.76;18.95 
1.832;0.62;0.16;0.66;0.83;0.56;3.27;114.81;-429.32;-487.00;0.92;107.64;41.84;18.70 
1.861;0.62;0.18;0.66;1.46;-0.07;3.69;116.80;-427.40;-488.00;0.92;107.28;41.89;18.45 
1.890;0.62;0.22;0.66;1.32;-1.18;1.67;116.80;-427.40;-484.00;0.93;106.99;41.92;18.27 
1.920;0.66;0.22;0.62;-0.56;-3.06;0.28;115.81;-426.44;-482.00;0.93;106.76;42.00;18.14 
1.949;0.69;0.25;0.62;-2.37;-5.50;0.83;119.80;-429.32;-484.00;0.96;106.56;42.17;17.98 
1.978;0.71;0.25;0.64;-4.24;-12.31;2.37;117.80;-432.19;-484.00;0.99;106.34;42.44;17.76 
2.008;0.71;0.22;0.62;-6.33;-15.51;1.95;115.81;-432.19;-482.00;0.97;106.10;42.94;17.47 
2.037;0.70;0.18;0.62;-4.45;-15.03;-0.28;114.81;-439.86;-481.00;0.95;105.91;43.41;17.20 
2.067;0.64;0.18;0.69;-2.64;-15.72;0.28;111.81;-444.65;-484.00;0.96;105.79;43.79;17.02 
2.097;0.61;0.20;0.70;-0.42;-20.24;1.46;109.82;-447.53;-480.00;0.95;105.61;44.26;16.81 
2.127;0.64;0.16;0.65;-1.95;-15.10;1.88;114.81;-451.36;-476.00;0.93;105.38;44.76;16.57 
2.157;0.64;0.15;0.62;-3.13;-8.90;1.60;113.81;-456.15;-476.00;0.90;105.14;45.11;16.29 
2.187;0.66;0.14;0.58;-1.67;1.74;5.01;111.81;-458.07;-476.00;0.89;104.81;45.29;15.99 
2.218;0.70;0.19;0.61;0.28;9.88;6.75;110.81;-458.07;-476.00;0.95;104.38;45.23;15.68 
2.248;0.67;0.20;0.65;1.67;7.03;6.75;109.82;-454.23;-477.00;0.95;103.91;45.05;15.40 
2.278;0.69;0.17;0.63;2.30;2.43;5.63;112.81;-455.19;-480.00;0.95;103.48;44.98;15.16 
2.308;0.68;0.14;0.61;2.30;3.55;2.85;110.81;-453.28;-477.00;0.92;103.09;44.98;14.93 
2.337;0.69;0.17;0.66;2.16;2.71;1.46;110.81;-455.19;-477.00;0.97;102.80;44.88;14.79 
2.366;0.69;0.18;0.67;1.60;1.39;2.71;112.81;-453.28;-480.00;0.98;102.52;44.86;14.65 
2.395;0.68;0.18;0.63;0.56;2.50;2.02;111.81;-451.36;-480.00;0.94;102.25;44.84;14.50 
2.424;0.68;0.18;0.70;-0.35;2.78;0.28;111.81;-449.44;-477.00;0.99;101.99;44.78;14.34 
2.453;0.70;0.18;0.64;-0.28;0.77;-0.42;114.81;-453.28;-479.00;0.97;101.79;44.72;14.22 
2.482;0.69;0.18;0.62;0.42;0.49;0.97;108.82;-449.44;-477.00;0.94;101.59;44.73;14.09 
2.512;0.67;0.16;0.72;-0.35;-0.28;0.83;110.81;-450.40;-479.00;1.00;101.33;44.74;13.93 
2.542;0.68;0.19;0.64;-0.90;-2.64;-1.25;112.81;-451.36;-478.00;0.95;101.14;44.76;13.79 
2.572;0.67;0.20;0.63;-0.21;0.35;-0.70;111.81;-454.23;-476.00;0.94;100.98;44.80;13.68 
2.603;0.66;0.18;0.61;-0.42;0.21;-1.04;112.81;-454.23;-478.00;0.92;100.80;44.77;13.57 
2.633;0.69;0.18;0.64;-0.07;0.90;-1.60;114.81;-455.19;-477.00;0.96;100.62;44.74;13.47 
2.663;0.69;0.18;0.64;-0.90;-0.63;-1.25;111.81;-452.32;-477.00;0.96;100.46;44.70;13.37 
2.694;0.70;0.20;0.66;-0.42;-0.90;-0.90;113.81;-452.32;-477.00;0.98;100.30;44.73;13.28 
2.724;0.70;0.18;0.65;-0.49;-0.07;-1.81;110.81;-453.28;-476.00;0.97;100.15;44.77;13.19 
2.754;0.72;0.15;0.66;0.00;0.21;0.83;111.81;-454.23;-477.00;0.99;99.99;44.78;13.09 
2.784;0.68;0.18;0.65;0.14;0.77;0.90;111.81;-452.32;-479.00;0.96;99.76;44.80;12.97 
2.814;0.70;0.25;0.64;-0.49;0.07;-0.49;112.81;-453.28;-475.00;0.98;99.55;44.83;12.82 
2.844;0.66;0.18;0.64;0.35;0.21;-0.14;112.81;-454.23;-477.00;0.94;99.36;44.82;12.72 
2.874;0.69;0.17;0.63;0.14;-0.14;0.56;112.81;-454.23;-479.00;0.95;99.18;44.83;12.64 
2.904;0.67;0.17;0.61;-0.49;0.90;-0.14;112.81;-453.28;-478.00;0.92;98.99;44.86;12.52 
2.933;0.66;0.18;0.65;-0.90;1.60;-0.83;112.81;-453.28;-475.00;0.94;98.82;44.80;12.44 
2.963;0.70;0.17;0.63;-0.14;-0.49;0.21;113.81;-453.28;-479.00;0.96;98.65;44.79;12.34 
2.993;0.70;0.17;0.64;-0.49;1.11;-0.07;109.82;-455.19;-474.00;0.96;98.45;44.79;12.22 
3.023;0.70;0.16;0.61;-0.83;0.97;0.49;112.81;-456.15;-479.00;0.94;98.24;44.79;12.09 
3.053;0.69;0.21;0.65;-0.70;1.18;0.28;110.81;-453.28;-480.00;0.97;98.04;44.79;11.97 
3.083;0.71;0.18;0.62;-1.25;1.74;0.07;110.81;-454.23;-476.00;0.96;97.85;44.74;11.85 
3.114;0.71;0.19;0.62;-1.18;0.28;-0.49;113.81;-450.40;-479.00;0.96;97.66;44.72;11.74 
3.144;0.67;0.15;0.62;-1.32;-1.53;-0.97;107.82;-452.32;-479.00;0.93;97.50;44.75;11.64 
3.174;0.70;0.20;0.66;-0.77;-1.95;-0.49;110.81;-455.19;-476.00;0.98;97.36;44.78;11.55 
3.205;0.66;0.17;0.66;-0.56;-1.53;0.28;110.81;-455.19;-475.00;0.95;97.17;44.84;11.43 
3.234;0.66;0.17;0.59;-0.07;0.70;-0.42;108.82;-457.11;-475.00;0.90;97.00;44.84;11.34 
3.263;0.68;0.19;0.66;0.49;-0.90;0.97;110.81;-453.28;-479.00;0.97;96.83;44.82;11.28 
3.293;0.73;0.18;0.65;-0.56;1.32;-1.04;108.82;-457.11;-475.00;0.99;96.63;44.85;11.16 
3.323;0.67;0.18;0.63;-0.35;-0.70;-0.83;112.81;-454.23;-475.00;0.94;96.49;44.84;11.09 
3.353;0.68;0.17;0.61;-0.21;-0.56;-0.28;111.81;-456.15;-476.00;0.93;96.34;44.87;11.02 
3.383;0.68;0.20;0.62;-0.07;0.07;0.00;109.82;-454.23;-476.00;0.94;96.17;44.88;10.95 
3.414;0.70;0.19;0.65;-1.04;0.42;-0.77;108.82;-457.11;-474.00;0.97;96.01;44.85;10.87 
3.444;0.70;0.21;0.64;-0.56;0.00;-0.90;107.82;-457.11;-477.00;0.97;95.88;44.81;10.82 
3.474;0.68;0.20;0.62;0.28;-2.71;0.35;107.82;-457.11;-476.00;0.94;95.74;44.91;10.77 
3.505;0.68;0.22;0.60;-0.63;-1.25;0.00;110.81;-457.11;-477.00;0.93;95.59;45.00;10.71 
3.534;0.66;0.18;0.65;-0.28;1.46;-0.63;107.82;-456.15;-475.00;0.94;95.42;44.98;10.63 
3.564;0.70;0.20;0.64;0.28;-0.49;-0.07;113.81;-458.07;-476.00;0.97;95.25;44.95;10.56 
3.594;0.67;0.20;0.62;0.42;-2.30;-0.07;110.81;-457.11;-476.00;0.93;95.09;44.98;10.50 
3.624;0.70;0.18;0.62;0.42;-2.09;0.00;109.82;-459.02;-478.00;0.95;94.94;45.04;10.44 
3.654;0.72;0.19;0.61;0.35;-1.04;0.07;109.82;-458.07;-475.00;0.96;94.79;45.11;10.38 
3.684;0.70;0.15;0.62;-0.14;-0.56;-0.35;110.81;-458.07;-477.00;0.95;94.63;45.17;10.32 
3.715;0.70;0.18;0.62;-0.42;-2.09;0.70;112.81;-460.94;-476.00;0.95;94.46;45.21;10.24 
3.745;0.74;0.17;0.59;-1.81;-1.32;-1.11;109.82;-460.94;-474.00;0.96;94.30;45.31;10.15 
3.775;0.68;0.18;0.62;-1.39;4.87;-2.23;112.81;-458.07;-475.00;0.94;94.20;45.29;10.09 
3.805;0.68;0.18;0.62;-1.18;5.63;-0.42;106.82;-459.02;-475.00;0.94;94.05;45.14;10.04 
3.835;0.68;0.17;0.62;-0.49;2.37;-0.14;109.82;-459.02;-477.00;0.94;93.88;45.00;9.97 
3.865;0.69;0.18;0.65;0.21;0.14;-0.14;111.81;-461.90;-475.00;0.96;93.72;44.95;9.92 
3.894;0.70;0.16;0.65;0.21;-0.70;-0.49;109.82;-459.98;-473.00;0.97;93.56;44.97;9.85 
3.925;0.70;0.18;0.62;0.28;-0.63;-0.63;109.82;-459.02;-475.00;0.95;93.43;45.02;9.83 
3.955;0.70;0.19;0.60;0.21;-0.28;-0.77;109.82;-459.98;-472.00;0.94;93.31;45.03;9.81 
3.985;0.67;0.17;0.63;0.28;0.49;-0.83;110.81;-456.15;-476.00;0.94;93.19;45.05;9.80 
4.016;0.70;0.18;0.63;-0.14;0.35;-0.28;110.81;-459.02;-473.00;0.96;93.07;45.03;9.79 
4.046;0.70;0.18;0.66;0.14;0.07;-1.11;110.81;-458.07;-476.00;0.98;92.94;45.03;9.76 
4.076;0.67;0.16;0.67;0.14;0.63;-0.77;113.81;-461.90;-471.00;0.96;92.82;45.02;9.75 
4.105;0.66;0.18;0.61;-0.07;-1.39;0.07;111.81;-459.98;-476.00;0.92;92.68;45.02;9.70 
4.135;0.70;0.18;0.58;-0.63;0.97;-0.35;113.81;-461.90;-476.00;0.93;92.55;45.09;9.66 
4.165;0.71;0.20;0.59;-0.56;4.31;-0.49;111.81;-459.02;-478.00;0.94;92.41;45.04;9.62 
4.195;0.69;0.16;0.60;-0.49;2.37;0.28;112.81;-459.98;-475.00;0.93;92.26;44.96;9.59 
4.226;0.67;0.13;0.64;-0.14;-0.49;-0.21;107.82;-458.07;-473.00;0.94;92.11;44.92;9.54 
4.255;0.70;0.18;0.64;0.28;0.42;0.83;113.81;-460.94;-474.00;0.97;91.93;44.94;9.47 
4.284;0.69;0.18;0.62;0.14;1.53;0.35;108.82;-460.94;-474.00;0.94;91.76;44.95;9.40 
4.315;0.69;0.17;0.62;0.14;1.60;0.14;108.82;-457.11;-476.00;0.94;91.60;44.93;9.37 
4.345;0.67;0.18;0.66;-0.42;1.67;1.04;108.82;-459.02;-476.00;0.96;91.43;44.90;9.33 
4.375;0.68;0.18;0.63;-0.77;0.70;0.14;111.81;-459.98;-474.00;0.94;91.27;44.88;9.28 
4.405;0.69;0.19;0.61;-0.35;2.23;0.21;108.82;-459.02;-477.00;0.94;91.14;44.89;9.26 
4.435;0.69;0.18;0.64;-0.28;3.76;1.18;109.82;-459.02;-474.00;0.96;90.96;44.83;9.21 
4.464;0.67;0.18;0.63;-2.43;0.90;-1.60;111.81;-457.11;-475.00;0.94;90.77;44.77;9.11 
4.493;0.69;0.18;0.63;-3.48;-2.23;-4.45;108.82;-454.23;-477.00;0.95;90.73;44.76;9.10 
4.524;0.72;0.18;0.64;-2.37;-3.20;-3.48;110.81;-459.98;-475.00;0.98;90.75;44.85;9.12 
4.554;0.72;0.18;0.58;-2.85;-6.68;-1.67;107.82;-459.98;-479.00;0.94;90.73;45.02;9.12 
4.584;0.74;0.19;0.63;-2.37;-6.82;-2.43;110.81;-460.94;-476.00;0.99;90.70;45.22;9.07 
4.615;0.69;0.19;0.62;-2.50;-12.66;-2.57;108.82;-463.82;-475.00;0.95;90.72;45.57;9.06 
4.645;0.66;0.17;0.64;-1.53;-7.10;-2.09;106.82;-468.61;-474.00;0.93;90.74;45.83;9.05 
