Time(s) acc_x(g) acc_y(g) acc_z(g) gyr_x(°/s) gyr_y(°/s) gyr_z(°/s) mag_x(G) mag_y(G) mag_z(G) SVM(g) yaw(°) pitch(°) roll(°)
0.000;0.12;0.19;0.92;0.35;2.09;3.48;146.02;-160.44;-424.00;0.95;-161.19;4.70;13.70 
0.030;0.12;0.17;0.91;1.39;-2.30;4.66;149.00;-161.39;-424.00;0.93;-161.51;4.87;13.73 
0.060;0.11;0.12;0.86;2.02;-4.03;5.29;148.01;-159.50;-425.00;0.88;-161.84;5.15;13.76 
0.091;0.09;0.13;0.90;1.39;1.67;2.09;148.01;-162.34;-424.00;0.91;-162.13;5.35;13.77 
0.121;0.11;0.18;0.86;0.63;3.48;2.02;149.00;-160.44;-425.00;0.89;-162.37;5.39;13.79 
0.151;0.11;0.15;0.86;2.16;1.25;3.83;150.99;-158.55;-425.00;0.88;-162.62;5.47;13.81 
0.181;0.09;0.13;0.85;3.55;2.23;3.06;151.98;-161.39;-426.00;0.86;-162.92;5.57;13.85 
0.211;0.08;0.13;0.86;4.10;3.06;2.16;152.98;-163.29;-424.00;0.87;-163.20;5.62;13.92 
0.241;0.07;0.10;0.90;3.90;0.70;2.92;153.97;-161.39;-424.00;0.91;-163.44;5.67;13.99 
0.271;0.06;0.10;0.91;5.15;0.35;-0.83;153.97;-159.50;-424.00;0.92;-163.65;5.75;14.05 
0.302;0.07;0.15;0.88;7.23;-0.49;1.53;159.93;-160.44;-422.00;0.90;-163.86;5.86;14.24 
0.332;0.17;0.10;0.87;10.64;1.95;-3.55;157.94;-160.44;-425.00;0.89;-164.07;5.96;14.49 
0.362;0.10;0.11;0.94;16.35;-4.52;-3.48;164.90;-161.39;-423.00;0.95;-164.21;6.09;14.86 
0.392;0.06;0.10;0.89;16.00;-13.57;-2.16;165.89;-161.39;-426.00;0.90;-164.38;6.42;15.32 
0.422;0.02;0.10;0.81;9.67;-15.10;-11.69;166.88;-165.19;-423.00;0.82;-164.36;6.85;15.65 
0.452;0.15;0.27;0.76;2.09;-16.07;-8.70;166.88;-168.04;-429.00;0.82;-164.14;7.33;15.88 
0.482;0.23;0.26;0.68;0.63;-2.99;1.81;167.88;-173.74;-426.00;0.76;-164.21;7.78;16.04 
0.513;0.26;0.12;0.68;2.37;-4.17;3.97;168.87;-168.99;-428.00;0.74;-164.53;8.12;16.13 
0.543;0.06;0.08;0.65;0.63;-20.59;10.23;168.87;-175.63;-433.00;0.66;-164.89;8.67;16.08 
0.573;0.03;0.20;0.58;3.69;-42.09;27.27;175.82;-182.28;-433.00;0.61;-165.49;9.69;16.06 
0.604;-0.05;0.11;0.54;2.92;-53.98;37.36;177.81;-189.88;-438.00;0.55;-166.49;11.27;16.12 
0.634;0.12;0.14;0.48;-11.62;-37.63;36.38;179.80;-202.22;-441.00;0.51;-167.63;12.99;15.64 
0.664;0.18;0.30;0.46;-9.32;-0.63;50.02;177.81;-210.76;-444.00;0.58;-169.05;14.22;15.10 
0.694;0.13;0.19;0.60;-16.07;-11.13;62.82;176.82;-208.86;-445.00;0.64;-170.73;14.80;14.60 
0.725;0.14;0.22;0.57;-22.75;-11.20;73.74;179.80;-211.71;-443.00;0.63;-172.84;15.66;13.62 
0.755;0.09;0.26;0.49;-25.74;-9.39;79.65;179.80;-219.31;-449.00;0.56;-175.08;16.51;12.52 
0.785;0.01;0.09;0.34;-19.62;37.36;72.70;175.82;-221.20;-452.00;0.35;-177.40;16.56;11.50 
0.816;0.51;-0.24;0.70;-33.32;-15.03;41.74;173.84;-215.51;-449.00;0.90;-179.24;15.56;10.33 
0.845;0.26;0.09;0.90;-38.19;-11.97;61.29;168.87;-215.51;-455.00;0.94;179.23;16.21;8.88 
0.875;0.14;-0.17;0.81;-60.17;-44.73;12.59;163.90;-222.15;-450.00;0.84;178.24;17.15;7.33 
0.905;0.38;-0.14;0.78;-56.00;-84.80;13.01;150.99;-231.65;-455.00;0.88;178.46;19.12;5.47 
0.935;0.17;-0.09;0.85;-53.98;-100.94;11.27;126.16;-259.18;-459.00;0.87;178.52;21.88;3.72 
0.965;0.46;-0.14;0.82;-15.79;-116.59;-2.30;119.20;-288.61;-464.00;0.95;178.57;25.22;2.59 
0.995;0.62;-0.19;0.62;-28.45;-130.16;-20.31;112.25;-313.29;-466.00;0.90;179.03;28.90;2.14 
1.026;0.77;-0.17;0.57;-46.61;-73.11;-19.97;101.32;-338.93;-469.00;0.97;-179.88;32.05;1.23 
1.056;0.77;-0.11;0.43;-54.61;-62.26;-15.37;80.46;-364.56;-465.00;0.89;-178.45;34.39;0.16 
1.086;0.77;-0.21;0.51;-56.28;-70.19;-24.42;66.56;-378.80;-461.00;0.95;-176.76;36.65;-0.90 
1.115;0.60;-0.22;0.54;-40.35;-66.71;-21.22;51.65;-393.99;-457.00;0.84;-175.20;38.73;-1.77 
1.145;0.45;0.67;0.20;-54.05;-52.03;-27.20;42.71;-409.18;-457.00;0.83;-173.29;40.78;-2.38 
1.175;0.79;-0.15;0.23;-20.59;-35.83;-20.87;26.82;-428.17;-452.00;0.84;-171.65;42.45;-2.89 
1.205;0.50;-0.02;0.20;6.33;-25.95;-15.72;21.85;-439.56;-454.00;0.54;-170.85;43.86;-2.84 
1.235;4.94;-0.51;2.69;59.13;156.38;-171.83;24.83;-447.16;-455.00;5.65;-172.34;44.51;-1.63 
1.265;-2.22;-0.19;2.87;86.05;83.76;-18.23;62.58;-406.33;-473.00;3.63;-174.03;39.29;3.73 
1.295;-0.39;0.33;1.82;50.50;-108.38;25.25;84.44;-387.35;-474.00;1.89;-176.72;38.53;3.13 
1.325;0.24;0.72;0.93;-31.10;-117.91;85.70;88.41;-408.23;-466.00;1.20;-179.39;40.65;2.88 
1.355;-0.44;0.50;0.51;-65.18;-147.83;17.95;81.46;-434.81;-459.00;0.84;178.72;44.44;1.47 
1.385;0.89;0.69;-0.10;-11.97;21.98;-40.07;65.56;-458.55;-451.00;1.13;-178.98;46.42;1.99 
1.415;0.62;-0.03;0.66;38.40;37.36;-39.37;67.55;-450.95;-457.00;0.91;-178.60;45.41;3.45 
1.445;0.54;-0.02;0.69;17.11;-42.99;-31.03;82.45;-453.80;-460.00;0.88;-178.83;45.39;4.64 
1.475;0.87;0.14;0.38;9.60;-11.90;-30.40;87.42;-460.45;-458.00;0.96;-178.42;46.38;5.53 
1.505;1.09;0.04;0.68;13.84;17.53;-7.93;91.39;-462.35;-460.00;1.29;-178.46;46.41;6.31 
1.536;0.86;-0.29;0.79;24.35;26.92;2.92;94.37;-454.75;-465.00;1.20;-179.09;46.13;6.03 
1.566;1.02;-0.09;1.14;-1.53;-50.09;15.65;100.33;-452.85;-463.00;1.53;-179.69;46.06;6.23 
1.596;0.86;0.00;0.64;-10.71;-86.40;26.71;96.36;-466.14;-459.00;1.07;179.81;48.16;5.45 
1.627;0.66;0.00;0.28;-5.08;-55.10;30.68;88.41;-487.03;-451.00;0.72;178.88;50.72;4.41 
1.657;0.61;-0.19;0.29;2.50;-4.45;1.88;87.42;-499.37;-447.00;0.70;178.08;52.02;3.68 
1.687;0.70;-0.18;0.47;13.50;28.03;-10.85;88.41;-493.68;-449.00;0.86;177.72;51.78;3.65 
1.717;0.60;0.01;0.66;15.44;24.49;-16.70;95.36;-488.93;-446.00;0.89;177.49;50.76;4.10 
1.746;0.70;0.09;0.72;16.70;28.66;-11.97;101.32;-486.08;-452.00;1.01;177.25;49.79;4.76 
1.775;0.76;0.06;0.86;8.07;7.58;-10.09;104.30;-478.49;-453.00;1.15;177.02;48.95;5.24 
1.805;0.82;0.03;0.78;3.76;-12.38;-3.13;106.29;-478.49;-456.00;1.13;176.80;48.90;5.40 
1.835;0.74;0.04;0.58;-6.89;-21.01;0.14;107.28;-481.33;-452.00;0.94;176.68;49.33;5.33 
1.865;0.74;0.02;0.53;-5.57;-15.03;-1.11;107.28;-485.13;-453.00;0.91;176.64;49.90;5.15 
1.895;0.77;0.00;0.52;-4.03;-8.70;-3.34;102.32;-491.78;-451.00;0.93;176.57;50.32;5.02 
1.925;0.77;0.01;0.51;-1.81;-6.96;-4.31;102.32;-487.98;-449.00;0.92;176.58;50.59;4.96 
1.955;0.74;0.00;0.51;2.71;-4.52;-4.80;102.32;-492.73;-451.00;0.90;176.49;50.70;5.04 
1.985;0.79;0.02;0.53;3.83;-0.35;-4.66;104.30;-489.88;-449.00;0.95;176.30;50.72;5.19 
2.015;0.78;0.08;0.56;5.15;5.08;-3.69;108.28;-494.63;-451.00;0.96;176.05;50.63;5.35 
2.045;0.70;0.05;0.60;2.71;3.48;-1.95;107.28;-488.93;-449.00;0.92;175.80;50.43;5.48 
2.075;0.77;0.04;0.58;-0.14;-1.32;0.77;109.27;-493.68;-444.00;0.96;175.57;50.35;5.46 
2.105;0.74;0.06;0.60;-2.99;-3.76;2.92;108.28;-491.78;-448.00;0.95;175.35;50.42;5.32 
2.136;0.77;0.02;0.60;-1.53;-5.50;1.88;108.28;-491.78;-450.00;0.98;175.14;50.53;5.18 
2.166;0.75;0.03;0.54;1.04;-2.16;0.14;103.31;-493.68;-447.00;0.92;174.88;50.68;5.10 
2.196;0.76;0.02;0.55;1.53;0.70;-0.14;107.28;-493.68;-447.00;0.94;174.63;50.65;5.13 
2.226;0.78;0.01;0.59;0.28;1.32;-1.53;104.30;-494.63;-446.00;0.98;174.42;50.60;5.08 
2.256;0.77;0.04;0.59;-1.53;-1.53;1.11;111.26;-494.63;-449.00;0.97;174.23;50.56;5.03 
2.286;0.77;0.02;0.54;-2.71;-2.57;1.67;107.28;-493.68;-448.00;0.94;174.06;50.58;4.93 
2.316;0.74;0.03;0.57;-3.97;-5.01;3.62;106.29;-494.63;-448.00;0.93;173.87;50.67;4.76 
2.347;0.78;0.00;0.54;-3.69;-4.73;3.55;104.30;-498.42;-447.00;0.95;173.65;50.85;4.52 
2.377;0.77;0.02;0.56;-1.04;-3.27;2.30;104.30;-498.42;-444.00;0.95;173.41;50.98;4.35 
2.407;0.78;0.00;0.55;-0.97;1.11;0.14;101.32;-497.47;-442.00;0.95;173.19;50.99;4.24 
2.438;0.78;0.04;0.58;-1.18;-0.56;0.90;106.29;-498.42;-449.00;0.97;172.99;50.97;4.14 
2.468;0.76;0.00;0.58;-0.90;-3.34;1.88;106.29;-498.42;-444.00;0.96;172.75;50.99;4.03 
2.497;0.77;0.02;0.56;-2.64;-4.52;1.18;99.34;-500.32;-444.00;0.95;172.53;51.06;3.90 
2.527;0.77;0.00;0.54;-3.41;-5.15;1.25;101.32;-500.32;-445.00;0.94;172.38;51.14;3.84 
2.556;0.78;-0.03;0.58;-3.55;-3.83;-0.83;102.32;-502.22;-444.00;0.97;172.28;51.21;3.77 
2.586;0.78;0.00;0.57;-3.27;-4.24;-0.07;101.32;-501.27;-444.00;0.97;172.17;51.26;3.73 
2.616;0.76;0.01;0.57;-2.71;-5.77;-0.07;100.33;-504.12;-441.00;0.95;172.08;51.31;3.69 
2.647;0.77;0.00;0.57;-2.16;-2.85;-0.28;100.33;-505.07;-441.00;0.96;171.90;51.43;3.61 
2.676;0.77;0.00;0.62;-3.34;-2.50;-0.63;97.35;-506.02;-440.00;0.99;171.78;51.47;3.57 
2.706;0.78;0.02;0.57;-2.57;-2.64;-0.49;96.36;-510.77;-441.00;0.97;171.68;51.52;3.49 
2.737;0.78;-0.02;0.59;-1.74;-4.38;-0.77;93.38;-504.12;-442.00;0.98;171.56;51.56;3.47 
2.767;0.79;0.00;0.50;-1.67;-4.31;-0.90;97.35;-507.92;-439.00;0.93;171.41;51.64;3.45 
2.797;0.79;0.06;0.56;-1.67;-1.81;-1.18;94.37;-508.87;-440.00;0.97;171.27;51.74;3.42 
2.827;0.78;0.02;0.54;-1.39;-0.14;-1.04;97.35;-508.87;-438.00;0.95;171.13;51.76;3.38 
2.858;0.78;0.01;0.55;-0.97;0.49;-0.21;96.36;-509.82;-442.00;0.95;170.99;51.70;3.37 
2.888;0.78;0.00;0.54;-0.35;-0.14;-0.49;97.35;-511.71;-439.00;0.95;170.81;51.69;3.31 
2.918;0.82;0.03;0.57;-0.70;-0.07;-0.63;97.35;-509.82;-441.00;1.00;170.64;51.68;3.29 
2.949;0.80;0.00;0.54;-0.56;-0.77;-0.77;95.36;-509.82;-439.00;0.97;170.47;51.64;3.28 
2.979;0.81;0.00;0.54;-0.28;-0.07;-0.28;94.37;-507.92;-437.00;0.97;170.26;51.62;3.26 
3.009;0.79;0.00;0.56;-1.04;0.42;-0.28;93.38;-511.71;-439.00;0.97;170.10;51.56;3.27 
3.039;0.77;0.01;0.54;-1.67;-0.63;0.77;94.37;-509.82;-438.00;0.94;169.93;51.50;3.26 
3.069;0.79;0.00;0.52;-1.74;-0.35;1.25;93.38;-509.82;-437.00;0.95;169.74;51.51;3.17 
3.098;0.77;0.00;0.54;-1.04;-0.90;1.95;93.38;-509.82;-440.00;0.94;169.52;51.52;3.09 
3.128;0.78;0.01;0.53;-0.83;1.39;0.63;96.36;-511.71;-439.00;0.94;169.32;51.49;3.01 
3.159;0.81;0.00;0.54;-0.35;1.32;0.90;90.40;-513.61;-438.00;0.97;169.14;51.39;3.00 
3.189;0.78;0.00;0.58;-0.77;0.83;0.49;92.38;-508.87;-438.00;0.97;168.92;51.34;2.92 
3.219;0.78;0.00;0.54;-0.42;0.83;1.04;93.38;-511.71;-438.00;0.95;168.73;51.27;2.92 
3.250;0.79;0.00;0.56;-0.42;2.37;0.21;93.38;-511.71;-439.00;0.97;168.52;51.17;2.92 
3.280;0.78;0.00;0.51;-0.35;0.77;0.35;90.40;-510.77;-438.00;0.93;168.33;51.06;2.92 
3.310;0.78;0.01;0.55;-0.42;0.49;0.35;94.37;-512.66;-437.00;0.95;168.14;50.98;2.93 
3.340;0.77;0.00;0.57;-0.49;1.46;0.00;92.38;-506.97;-437.00;0.96;167.97;50.89;2.93 
3.370;0.80;0.00;0.56;-0.63;2.02;-0.28;91.39;-509.82;-441.00;0.98;167.82;50.77;2.96 
3.400;0.78;0.00;0.56;-0.97;0.97;-0.21;92.38;-508.87;-441.00;0.96;167.67;50.67;2.97 
3.430;0.80;0.00;0.54;-0.56;0.07;0.35;91.39;-513.61;-438.00;0.97;167.49;50.61;2.99 
3.461;0.77;-0.04;0.53;0.56;2.09;-0.77;92.38;-512.66;-439.00;0.94;167.25;50.62;2.94 
3.491;0.78;0.00;0.56;0.21;3.41;-0.42;89.40;-513.61;-443.00;0.96;167.07;50.49;2.94 
3.521;0.74;0.00;0.51;-0.56;2.43;0.00;91.39;-506.97;-440.00;0.90;166.91;50.35;2.98 
3.551;0.79;0.00;0.55;-0.07;2.30;-0.14;93.38;-508.87;-438.00;0.96;166.72;50.24;2.99 
3.581;0.79;0.00;0.58;0.14;1.60;0.28;92.38;-506.97;-444.00;0.98;166.54;50.14;3.02 
3.611;0.78;0.00;0.55;-0.42;1.04;0.14;91.39;-508.87;-441.00;0.95;166.37;50.05;3.05 
3.640;0.78;0.00;0.56;-0.14;0.56;0.56;92.38;-507.92;-440.00;0.96;166.19;50.01;3.06 
3.671;0.77;-0.02;0.55;-0.21;-0.21;0.00;96.36;-506.97;-441.00;0.95;165.99;49.97;3.07 
3.701;0.78;-0.02;0.55;0.00;0.83;-0.70;91.39;-507.92;-439.00;0.95;165.79;49.92;3.11 
3.731;0.79;0.00;0.54;-0.28;1.67;-1.04;91.39;-510.77;-442.00;0.96;165.65;49.85;3.13 
3.762;0.78;0.00;0.54;-1.74;2.78;-1.18;94.37;-507.92;-440.00;0.95;165.50;49.75;3.16 
3.791;0.80;0.00;0.56;-3.90;2.78;0.77;93.38;-506.97;-442.00;0.98;165.39;49.62;3.14 
3.821;0.79;0.01;0.57;-3.69;1.88;0.63;89.40;-508.87;-439.00;0.97;165.31;49.57;3.06 
3.851;0.78;0.00;0.54;-1.25;0.90;-0.49;89.40;-506.02;-439.00;0.95;165.19;49.51;3.02 
3.882;0.77;-0.04;0.57;-0.42;0.35;-1.32;90.40;-506.97;-440.00;0.96;165.00;49.52;3.00 
3.912;0.77;0.01;0.58;-1.60;1.25;-1.11;91.39;-506.97;-441.00;0.96;164.89;49.46;3.02 
3.942;0.79;0.00;0.58;-0.63;0.56;-1.60;90.40;-506.97;-440.00;0.98;164.76;49.41;3.04 
3.973;0.78;-0.02;0.54;0.28;-1.60;-0.83;89.40;-506.02;-444.00;0.95;164.58;49.42;3.03 
4.003;0.79;-0.02;0.55;0.07;-0.90;-2.78;92.38;-507.92;-441.00;0.96;164.41;49.46;3.07 
4.033;0.80;0.01;0.53;-0.83;-1.32;-2.02;91.39;-508.87;-441.00;0.96;164.29;49.44;3.14 
4.062;0.81;-0.01;0.57;-1.60;-0.56;-1.67;91.39;-506.02;-441.00;0.99;164.18;49.44;3.18 
4.092;0.77;0.01;0.56;-1.53;-1.18;-1.04;92.38;-506.97;-443.00;0.95;164.08;49.42;3.22 
4.122;0.78;0.04;0.56;-1.04;-0.83;-0.28;85.43;-506.02;-443.00;0.96;163.93;49.49;3.22 
4.152;0.78;0.01;0.56;0.00;-0.63;0.70;91.39;-509.82;-443.00;0.96;163.74;49.49;3.23 
4.183;0.78;0.00;0.56;-0.21;-0.42;0.56;89.40;-507.92;-441.00;0.96;163.53;49.48;3.25 
4.213;0.77;0.00;0.56;-1.46;0.42;0.14;88.41;-507.92;-442.00;0.95;163.35;49.49;3.22 
4.243;0.80;-0.04;0.53;-1.39;-0.77;-0.14;87.42;-507.92;-441.00;0.96;163.18;49.50;3.16 
4.274;0.77;0.00;0.53;-0.56;-0.97;-1.11;90.40;-509.82;-438.00;0.93;163.02;49.55;3.13 
4.304;0.79;0.00;0.54;0.28;-0.42;-1.81;88.41;-509.82;-438.00;0.96;162.82;49.63;3.13 
4.334;0.79;-0.02;0.55;0.21;0.35;-1.32;90.40;-507.92;-438.00;0.96;162.64;49.65;3.15 
4.364;0.80;0.02;0.55;-0.42;1.46;-0.77;89.40;-506.97;-437.00;0.97;162.46;49.65;3.18 
4.395;0.77;0.01;0.56;-0.90;0.63;-0.21;89.40;-508.87;-437.00;0.95;162.31;49.59;3.22 
4.424;0.77;0.00;0.62;-0.77;-0.83;1.11;92.38;-507.92;-439.00;0.99;162.09;49.60;3.19 
4.454;0.80;0.00;0.54;0.00;0.28;0.21;91.39;-508.87;-441.00;0.97;161.89;49.58;3.18 
4.485;0.80;-0.02;0.56;0.21;0.21;0.00;89.40;-510.77;-439.00;0.98;161.71;49.53;3.21 
4.515;0.76;0.00;0.52;0.00;-0.77;-0.56;90.40;-511.71;-438.00;0.92;161.47;49.59;3.23 
4.545;0.79;0.00;0.56;-0.49;0.63;-0.07;90.40;-510.77;-437.00;0.97;161.29;49.55;3.27 
4.575;0.78;0.00;0.54;-0.90;-0.21;0.70;91.39;-508.87;-439.00;0.95;161.08;49.57;3.25 
4.605;0.78;0.00;0.55;-0.14;1.32;-0.21;87.42;-510.77;-438.00;0.95;160.85;49.63;3.20 
4.635;0.77;0.00;0.56;0.07;0.28;-0.97;89.40;-510.77;-440.00;0.95;160.69;49.56;3.26 
4.665;0.80;0.02;0.55;0.21;-0.21;-0.07;89.40;-510.77;-438.00;0.97;160.47;49.61;3.24 
4.696;0.79;-0.02;0.54;-0.07;0.70;0.07;89.40;-509.82;-439.00;0.96;160.29;49.57;3.28 
4.726;0.80;-0.02;0.52;-0.28;0.49;-0.49;93.38;-509.82;-438.00;0.95;160.12;49.51;3.33 
4.756;0.79;0.00;0.54;-0.49;0.14;-0.07;89.40;-508.87;-441.00;0.96;159.91;49.55;3.33 
4.786;0.79;0.00;0.54;-0.63;0.97;-0.42;87.42;-508.87;-441.00;0.96;159.74;49.57;3.32 
4.816;0.78;0.01;0.53;0.35;0.70;0.49;90.40;-509.82;-440.00;0.94;159.53;49.60;3.32 
4.846;0.77;0.00;0.56;-0.14;0.90;0.83;92.38;-511.71;-438.00;0.95;159.32;49.57;3.35 
4.876;0.79;0.00;0.54;0.14;0.77;0.00;89.40;-511.71;-442.00;0.96;159.10;49.59;3.32 
4.907;0.78;-0.02;0.55;0.90;0.42;-0.07;91.39;-512.66;-438.00;0.95;158.92;49.53;3.36 
4.937;0.79;0.00;0.53;0.14;0.21;-0.56;90.40;-512.66;-439.00;0.95;158.75;49.47;3.43 
4.967;0.78;0.00;0.57;-0.07;-0.35;-0.21;90.40;-510.77;-438.00;0.97;158.59;49.44;3.48 
4.997;0.78;0.00;0.57;0.00;-0.28;0.21;91.39;-512.66;-438.00;0.97;158.42;49.41;3.52 
5.027;0.77;0.00;0.51;-0.21;-0.42;-0.07;92.38;-510.77;-439.00;0.92;158.22;49.42;3.54 
5.057;0.79;0.00;0.54;0.14;0.63;-0.21;91.39;-511.71;-443.00;0.96;158.05;49.38;3.58 
5.086;0.78;0.00;0.54;0.42;0.21;0.21;92.38;-513.61;-440.00;0.95;157.84;49.41;3.59 
5.116;0.82;0.03;0.58;-0.35;0.77;-0.21;90.40;-510.77;-437.00;1.00;157.67;49.38;3.63 
5.146;0.77;0.00;0.55;0.00;0.00;0.56;94.37;-513.61;-439.00;0.95;157.51;49.36;3.65 
5.176;0.79;0.00;0.54;0.49;0.35;0.00;94.37;-511.71;-441.00;0.96;157.35;49.31;3.70 
5.206;0.78;-0.02;0.54;0.49;-0.77;-0.28;93.38;-507.92;-442.00;0.95;157.18;49.28;3.75 
5.236;0.77;0.00;0.51;-0.14;-0.21;-0.63;91.39;-512.66;-438.00;0.92;157.00;49.27;3.82 
5.266;0.80;-0.03;0.53;0.14;0.63;-0.90;89.40;-511.71;-439.00;0.96;156.81;49.31;3.83 
5.297;0.79;0.00;0.54;-0.35;2.37;-0.90;92.38;-511.71;-439.00;0.96;156.68;49.23;3.89 
5.327;0.80;0.01;0.52;0.14;1.18;-0.35;88.41;-510.77;-437.00;0.95;156.51;49.21;3.90 
5.357;0.80;0.00;0.55;0.35;-0.07;-0.07;91.39;-510.77;-441.00;0.97;156.31;49.26;3.91 
5.387;0.78;0.00;0.54;0.21;0.56;0.00;93.38;-510.77;-437.00;0.95;156.12;49.25;3.94 
5.418;0.80;0.00;0.55;-0.21;0.97;0.14;91.39;-511.71;-438.00;0.97;155.88;49.31;3.94 
5.448;0.79;-0.02;0.53;0.35;0.77;-0.35;89.40;-512.66;-439.00;0.95;155.65;49.35;3.93 
5.478;0.77;0.01;0.53;-0.14;1.04;-0.56;92.38;-511.71;-441.00;0.93;155.50;49.31;3.97 
5.509;0.78;0.00;0.54;-0.28;1.60;-0.77;90.40;-511.71;-440.00;0.95;155.36;49.24;4.02 
5.539;0.79;0.00;0.57;-0.07;1.95;-0.90;92.38;-514.56;-440.00;0.97;155.24;49.15;4.08 
5.569;0.77;0.00;0.54;-0.35;1.25;-0.21;93.38;-511.71;-439.00;0.94;155.11;49.08;4.14 
5.598;0.79;0.00;0.54;-1.11;0.14;0.14;90.40;-509.82;-443.00;0.96;155.00;49.03;4.17 
5.628;0.78;0.00;0.54;-0.77;-0.42;0.14;94.37;-511.71;-440.00;0.95;154.84;49.02;4.18 
5.658;0.80;-0.02;0.54;0.21;0.42;-0.14;90.40;-512.66;-441.00;0.97;154.68;49.02;4.20 
5.688;0.78;0.00;0.56;0.14;1.39;-0.77;91.39;-510.77;-441.00;0.96;154.53;48.96;4.26 
5.719;0.79;0.00;0.55;-0.49;0.77;-0.63;95.36;-512.66;-440.00;0.96;154.38;48.91;4.31 
5.748;0.78;-0.02;0.53;-0.49;0.00;-0.14;90.40;-511.71;-439.00;0.94;154.20;48.94;4.30 
5.778;0.78;0.03;0.51;-0.42;-0.49;0.14;95.36;-511.71;-440.00;0.93;154.05;48.92;4.34 
5.809;0.77;0.02;0.55;-0.28;-0.63;-0.21;95.36;-509.82;-439.00;0.95;153.88;48.92;4.36 
5.839;0.78;0.00;0.53;0.28;-0.90;-0.70;93.38;-509.82;-442.00;0.94;153.69;48.98;4.38 
5.869;0.78;0.00;0.51;-0.35;-0.14;-0.35;92.38;-512.66;-442.00;0.93;153.53;48.97;4.44 
5.899;0.79;0.00;0.53;-0.49;0.00;-0.14;89.40;-512.66;-442.00;0.95;153.33;49.05;4.42 
5.930;0.76;0.01;0.54;-0.77;-0.77;0.28;91.39;-509.82;-439.00;0.93;153.16;49.04;4.45 
5.960;0.78;0.00;0.55;-0.49;-0.70;0.63;93.38;-511.71;-438.00;0.95;152.98;49.06;4.46 
5.990;0.79;-0.01;0.53;-0.21;-0.83;0.07;94.37;-511.71;-437.00;0.95;152.81;49.06;4.49 
6.021;0.80;0.00;0.56;-0.56;-0.63;0.07;91.39;-516.46;-436.00;0.98;152.63;49.08;4.53 
6.051;0.79;0.00;0.54;-0.28;-0.56;-0.42;91.39;-514.56;-440.00;0.96;152.40;49.17;4.50 
6.081;0.78;-0.02;0.52;-0.63;-0.35;-0.07;94.37;-511.71;-436.00;0.94;152.24;49.17;4.53 
6.111;0.81;0.00;0.54;-0.56;-0.21;-0.21;91.39;-510.77;-439.00;0.97;152.09;49.16;4.56 
6.140;0.81;0.00;0.55;-0.42;0.00;-0.28;92.38;-514.56;-439.00;0.98;151.93;49.14;4.60 
6.170;0.77;0.02;0.54;-0.90;-0.63;0.49;90.40;-513.61;-437.00;0.94;151.77;49.15;4.62 
6.200;0.80;0.00;0.51;-0.21;0.14;0.35;92.38;-513.61;-439.00;0.95;151.61;49.15;4.63 
6.231;0.79;-0.02;0.55;-0.35;0.49;0.14;91.39;-511.71;-438.00;0.96;151.38;49.21;4.61 
6.261;0.79;0.00;0.56;-0.56;-0.42;0.42;94.37;-511.71;-437.00;0.97;151.21;49.19;4.64 
6.291;0.79;0.00;0.55;0.07;-1.39;0.49;94.37;-512.66;-439.00;0.96;150.99;49.27;4.61 
6.321;0.78;0.00;0.54;-0.14;-0.49;0.14;92.38;-514.56;-440.00;0.95;150.82;49.29;4.63 
6.350;0.77;-0.02;0.53;-0.28;-0.49;0.21;93.38;-511.71;-441.00;0.93;150.66;49.28;4.66 
6.380;0.78;-0.02;0.55;-0.07;-0.63;0.35;92.38;-512.66;-440.00;0.95;150.50;49.29;4.70 
6.410;0.79;0.00;0.53;-0.56;0.00;0.00;92.38;-514.56;-436.00;0.95;150.31;49.30;4.72 
6.440;0.81;0.00;0.54;0.00;-0.49;0.00;89.40;-512.66;-437.00;0.97;150.15;49.29;4.75 
6.469;0.80;0.02;0.55;0.28;1.46;-0.07;87.42;-515.51;-436.00;0.97;149.99;49.27;4.78 
6.499;0.82;0.00;0.54;0.28;0.28;-0.07;94.37;-512.66;-438.00;0.98;149.80;49.29;4.77 
6.529;0.81;0.00;0.51;-0.49;0.63;-0.28;92.38;-516.46;-435.00;0.96;149.57;49.37;4.74 
6.559;0.80;0.00;0.53;-0.77;0.56;0.42;91.39;-513.61;-436.00;0.96;149.38;49.41;4.72 
6.589;0.80;0.00;0.51;-0.63;0.14;0.42;91.39;-512.66;-437.00;0.95;149.24;49.37;4.74 
6.620;0.79;0.00;0.54;-0.28;-0.21;0.56;88.41;-516.46;-436.00;0.96;149.06;49.38;4.75 
6.649;0.78;0.00;0.55;-0.28;0.00;0.28;94.37;-516.46;-438.00;0.95;148.84;49.44;4.70 
6.679;0.79;0.00;0.55;0.14;0.42;0.07;91.39;-516.46;-437.00;0.96;148.64;49.49;4.70 
6.708;0.79;0.02;0.53;-0.07;0.49;0.49;90.40;-517.41;-437.00;0.95;148.49;49.46;4.73 
6.738;0.79;0.00;0.54;-0.28;0.97;-0.35;92.38;-514.56;-433.00;0.96;148.33;49.42;4.76 
6.768;0.80;0.00;0.55;-0.56;0.42;-0.07;88.41;-515.51;-439.00;0.97;148.20;49.38;4.79 
6.798;0.81;0.00;0.56;-0.28;0.49;0.00;90.40;-515.51;-437.00;0.98;147.97;49.45;4.75 
6.829;0.78;0.01;0.55;-0.42;0.49;0.35;90.40;-515.51;-437.00;0.95;147.82;49.42;4.77 
6.859;0.81;0.00;0.55;-0.83;0.97;0.14;90.40;-514.56;-439.00;0.98;147.60;49.48;4.71 
6.888;0.79;0.00;0.51;-0.77;0.49;0.35;89.40;-515.51;-438.00;0.94;147.40;49.52;4.68 
6.918;0.80;0.00;0.54;-0.07;2.57;-0.42;90.40;-512.66;-437.00;0.97;147.22;49.55;4.66 
6.947;0.78;0.00;0.60;-0.21;2.50;-0.49;91.39;-513.61;-436.00;0.98;147.13;49.45;4.71 
6.977;0.81;0.02;0.54;-0.70;1.95;0.28;92.38;-514.56;-437.00;0.97;146.95;49.47;4.68 
7.007;0.79;0.00;0.52;-0.70;1.95;-0.14;89.40;-514.56;-435.00;0.95;146.79;49.47;4.65 
7.037;0.78;0.00;0.56;-0.28;0.49;0.00;86.42;-513.61;-438.00;0.96;146.62;49.49;4.63 
7.067;0.78;0.01;0.52;-0.07;0.49;-0.07;88.41;-515.51;-438.00;0.94;146.43;49.52;4.60 
7.097;0.78;0.00;0.53;0.00;1.25;0.14;91.39;-511.71;-437.00;0.94;146.29;49.48;4.64 
7.128;0.78;-0.02;0.54;0.00;2.78;-0.56;88.41;-510.77;-437.00;0.95;146.19;49.39;4.70 
7.158;0.78;0.00;0.54;-0.56;1.95;0.07;90.40;-512.66;-439.00;0.95;146.07;49.32;4.72 
7.188;0.78;0.00;0.53;-0.21;2.09;0.21;91.39;-512.66;-440.00;0.94;145.96;49.25;4.75 
7.218;0.78;0.00;0.54;0.14;2.09;0.00;94.37;-513.61;-439.00;0.95;145.78;49.26;4.71 
7.248;0.77;0.00;0.60;-0.42;2.23;0.21;89.40;-510.77;-440.00;0.98;145.65;49.19;4.75 
7.278;0.78;0.00;0.54;-1.18;2.16;0.07;90.40;-511.71;-435.00;0.95;145.52;49.14;4.75 
7.308;0.77;0.00;0.56;-1.04;1.95;0.42;87.42;-514.56;-437.00;0.95;145.40;49.09;4.75 
7.338;0.82;-0.02;0.56;-0.35;3.34;-0.07;89.40;-510.77;-440.00;0.99;145.22;49.10;4.69 
7.368;0.79;0.00;0.54;0.49;3.20;0.00;91.39;-511.71;-436.00;0.96;145.14;48.97;4.76 
7.398;0.77;0.00;0.58;-0.49;1.88;-0.28;90.40;-511.71;-440.00;0.96;145.05;48.87;4.81 
7.429;0.78;0.00;0.55;-0.28;0.90;0.28;89.40;-510.77;-441.00;0.95;144.95;48.81;4.85 
7.459;0.79;-0.02;0.56;-0.07;0.97;-0.35;90.40;-507.92;-440.00;0.97;144.83;48.77;4.91 
7.489;0.78;0.00;0.56;0.00;1.53;-0.21;88.41;-511.71;-441.00;0.96;144.70;48.73;4.96 
7.519;0.78;0.00;0.54;0.00;1.81;-0.63;91.39;-510.77;-440.00;0.95;144.57;48.69;5.00 
7.549;0.78;0.00;0.56;0.07;1.25;-0.63;91.39;-511.71;-441.00;0.96;144.40;48.70;5.01 
7.579;0.78;-0.02;0.58;0.21;0.21;-0.28;91.39;-507.92;-436.00;0.97;144.27;48.66;5.06 
7.609;0.78;0.01;0.53;-0.35;-1.18;0.35;89.40;-507.92;-438.00;0.94;144.06;48.75;5.05 
7.640;0.78;-0.02;0.55;-0.35;-0.07;0.14;87.42;-508.87;-439.00;0.95;143.89;48.78;5.07 
7.670;0.80;0.00;0.56;-0.14;0.63;-0.49;89.40;-510.77;-438.00;0.98;143.66;48.88;5.04 
7.700;0.78;0.00;0.57;-0.14;0.63;-0.28;91.39;-511.71;-442.00;0.97;143.47;48.94;5.04 
7.730;0.78;0.00;0.54;-0.56;-0.07;0.56;89.40;-507.92;-443.00;0.95;143.29;48.99;5.03 
7.760;0.78;-0.02;0.56;-0.63;-1.18;0.42;89.40;-507.92;-440.00;0.96;143.06;49.09;4.96 
7.790;0.78;0.00;0.54;-0.21;-0.28;0.28;91.39;-511.71;-438.00;0.95;142.91;49.10;4.99 
7.820;0.78;0.00;0.54;0.35;0.35;0.07;88.41;-509.82;-438.00;0.95;142.77;49.09;5.02 
7.851;0.80;0.01;0.54;-0.21;0.63;0.00;89.40;-509.82;-441.00;0.97;142.63;49.06;5.06 
7.881;0.78;0.01;0.54;-0.63;-0.14;0.28;90.40;-511.71;-442.00;0.95;142.50;49.04;5.09 
7.910;0.78;-0.03;0.52;-0.42;-0.77;-0.14;90.40;-509.82;-439.00;0.94;142.36;49.05;5.12 
7.941;0.78;0.00;0.56;-0.21;0.21;0.07;89.40;-510.77;-440.00;0.96;142.15;49.13;5.09 
7.971;0.78;0.00;0.54;-0.63;0.56;0.14;90.40;-509.82;-439.00;0.95;141.95;49.19;5.06 
8.001;0.79;0.00;0.57;-0.56;0.28;0.14;89.40;-509.82;-440.00;0.97;141.80;49.20;5.07 
8.030;0.78;0.00;0.56;0.07;0.49;0.07;89.40;-508.87;-439.00;0.96;141.60;49.26;5.04 
8.060;0.79;0.00;0.56;-0.21;-0.14;0.07;88.41;-510.77;-440.00;0.97;141.47;49.23;5.08 
8.090;0.78;0.00;0.54;-0.35;0.14;0.21;90.40;-510.77;-434.00;0.95;141.33;49.22;5.11 
8.120;0.89;0.00;0.58;0.00;-0.77;0.21;88.41;-506.97;-440.00;1.06;141.20;49.21;5.14 
8.151;0.79;0.01;0.55;-0.07;-0.83;-0.21;87.42;-509.82;-438.00;0.96;140.96;49.32;5.10 
8.181;0.78;0.01;0.56;-0.42;-1.67;0.21;91.39;-511.71;-437.00;0.96;140.79;49.36;5.13 
8.211;0.77;0.02;0.57;-0.21;0.07;-0.35;90.40;-509.82;-439.00;0.96;140.65;49.36;5.17 
8.242;0.78;0.00;0.57;-0.56;0.97;-0.70;89.40;-510.77;-439.00;0.97;140.45;49.42;5.14 
8.272;0.78;0.00;0.52;-0.42;0.42;-0.14;89.40;-515.51;-440.00;0.94;140.29;49.44;5.14 
8.302;0.78;0.00;0.51;-0.21;0.63;0.07;91.39;-509.82;-439.00;0.93;140.17;49.42;5.18 
8.331;0.79;0.00;0.56;0.07;0.77;-0.70;90.40;-509.82;-440.00;0.97;140.02;49.45;5.18 
8.362;0.79;0.00;0.52;-0.49;-0.42;0.14;89.40;-510.77;-441.00;0.95;139.89;49.43;5.23 
8.392;0.78;0.00;0.54;-0.35;-0.77;0.42;87.42;-511.71;-438.00;0.95;139.73;49.45;5.26 
8.422;0.80;0.00;0.56;-0.28;-0.42;0.35;90.40;-511.71;-436.00;0.98;139.56;49.48;5.26 
8.453;0.77;0.00;0.53;0.14;-1.11;0.28;91.39;-509.82;-435.00;0.93;139.36;49.55;5.25 
8.483;0.80;0.00;0.53;0.21;0.07;-0.42;88.41;-512.66;-435.00;0.96;139.12;49.66;5.20 
8.513;0.80;0.00;0.54;-0.28;0.49;0.00;92.38;-513.61;-438.00;0.97;138.99;49.65;5.23 
8.542;0.81;0.00;0.54;-0.35;0.83;-0.42;89.40;-511.71;-439.00;0.97;138.82;49.69;5.21 
8.572;0.79;0.00;0.52;-0.28;-1.46;0.90;87.42;-511.71;-436.00;0.95;138.69;49.69;5.24 
8.602;0.79;0.00;0.54;0.21;-2.09;0.97;88.41;-511.71;-439.00;0.96;138.51;49.74;5.26 
8.632;0.82;-0.02;0.54;0.21;-2.50;0.56;90.40;-511.71;-438.00;0.98;138.33;49.79;5.29 
8.663;0.79;0.00;0.53;0.35;-3.69;0.49;89.40;-515.51;-436.00;0.95;138.06;49.94;5.25 
8.693;0.80;0.00;0.58;-0.35;-3.55;0.83;92.38;-515.51;-437.00;0.99;137.85;50.05;5.28 
8.723;0.78;0.00;0.56;-0.70;-1.88;-0.21;89.40;-514.56;-436.00;0.96;137.60;50.19;5.24 
8.753;0.79;0.02;0.54;-0.49;-1.81;0.00;92.38;-513.61;-437.00;0.96;137.44;50.24;5.25 
8.782;0.79;0.00;0.52;-0.21;-1.88;-0.14;87.42;-515.51;-434.00;0.95;137.28;50.30;5.29 
8.812;0.80;-0.02;0.52;-0.35;-0.90;0.14;88.41;-518.36;-437.00;0.95;137.13;50.32;5.32 
8.842;0.82;0.00;0.54;-0.49;-0.35;0.56;88.41;-520.26;-436.00;0.98;136.91;50.42;5.27 
8.871;0.81;0.02;0.53;0.07;0.07;0.07;87.42;-517.41;-435.00;0.97;136.78;50.39;5.31 
8.901;0.78;0.00;0.51;0.00;0.49;-0.07;90.40;-518.36;-431.00;0.93;136.68;50.37;5.36 
8.931;0.82;-0.02;0.53;-0.28;-0.28;0.28;87.42;-520.26;-433.00;0.98;136.48;50.42;5.32 
8.961;0.80;0.00;0.58;-0.21;0.21;0.28;89.40;-517.41;-438.00;0.99;136.37;50.40;5.35 
8.991;0.78;0.02;0.54;-0.35;0.28;0.14;88.41;-520.26;-436.00;0.95;136.25;50.37;5.39 
9.021;0.82;0.00;0.54;-0.77;-0.14;0.35;88.41;-519.31;-436.00;0.98;136.05;50.42;5.34 
9.052;0.80;-0.02;0.53;0.07;0.00;0.00;88.41;-522.16;-437.00;0.96;135.84;50.50;5.29 
9.082;0.82;0.00;0.54;0.49;0.07;0.14;87.42;-518.36;-436.00;0.98;135.69;50.50;5.32 
9.112;0.80;-0.03;0.51;0.00;0.14;0.42;90.40;-518.36;-434.00;0.95;135.58;50.48;5.37 
9.141;0.79;0.00;0.51;-0.49;0.70;0.14;88.41;-517.41;-435.00;0.94;135.48;50.44;5.42 
9.171;0.82;-0.02;0.55;-0.28;0.70;-0.56;88.41;-519.31;-439.00;0.99;135.33;50.47;5.39 
9.201;0.78;0.00;0.51;0.35;0.77;-0.42;86.42;-519.31;-434.00;0.93;135.14;50.52;5.34 
9.231;0.81;0.00;0.52;-0.21;1.11;-0.28;91.39;-519.31;-434.00;0.96;134.98;50.54;5.33 
9.262;0.80;0.01;0.54;-0.42;0.90;0.07;92.38;-520.26;-435.00;0.97;134.82;50.56;5.32 
9.291;0.81;0.00;0.52;-0.42;1.04;0.28;87.42;-518.36;-436.00;0.96;134.64;50.59;5.26 
9.321;0.80;0.00;0.51;-0.49;0.90;0.21;90.40;-518.36;-435.00;0.95;134.48;50.61;5.23 
9.351;0.80;0.00;0.51;-0.70;0.97;0.42;88.41;-519.31;-436.00;0.95;134.39;50.57;5.27 
9.381;0.80;0.00;0.54;-0.21;1.81;0.00;85.43;-519.31;-435.00;0.97;134.28;50.53;5.29 
9.411;0.81;-0.02;0.53;-0.28;1.95;-0.14;91.39;-518.36;-434.00;0.97;134.20;50.45;5.33 
9.441;0.79;0.00;0.54;-0.28;1.32;-0.14;86.42;-518.36;-434.00;0.96;134.14;50.38;5.38 
9.472;0.78;0.00;0.53;0.07;0.83;0.21;89.40;-518.36;-437.00;0.94;133.97;50.40;5.36 
9.502;0.81;0.01;0.54;0.14;1.25;-0.42;88.41;-515.51;-436.00;0.97;133.87;50.37;5.41 
9.532;0.80;0.00;0.55;0.14;1.74;-0.21;90.40;-519.31;-434.00;0.97;133.72;50.38;5.40 
9.563;0.78;0.00;0.54;-0.49;0.63;0.35;85.43;-514.56;-437.00;0.95;133.52;50.43;5.33 
9.593;0.78;0.01;0.55;-0.49;1.11;-0.21;90.40;-518.36;-437.00;0.95;133.41;50.40;5.34 
9.623;0.80;-0.02;0.52;-0.14;0.90;-0.21;85.43;-516.46;-437.00;0.95;133.24;50.44;5.31 
9.653;0.78;0.00;0.54;0.07;1.81;-0.63;91.39;-518.36;-437.00;0.95;133.15;50.41;5.35 
9.683;0.80;0.00;0.55;0.14;1.18;-0.70;89.40;-519.31;-437.00;0.97;133.09;50.33;5.41 
9.713;0.81;0.00;0.53;0.00;0.21;-0.49;87.42;-517.41;-437.00;0.97;132.95;50.34;5.42 
9.743;0.78;0.00;0.51;-0.63;0.63;0.00;91.39;-516.46;-438.00;0.93;132.80;50.38;5.41 
9.773;0.78;-0.02;0.55;-0.56;0.90;0.28;88.41;-517.41;-436.00;0.95;132.72;50.34;5.44 
9.803;0.78;0.01;0.55;-0.21;0.83;-0.28;91.39;-517.41;-435.00;0.95;132.57;50.36;5.43 
9.832;0.81;0.00;0.53;-0.14;0.42;0.21;89.40;-516.46;-434.00;0.97;132.43;50.38;5.42 
9.862;0.81;0.01;0.53;-0.35;0.49;-0.07;90.40;-514.56;-434.00;0.97;132.29;50.40;5.40 
9.892;0.80;0.00;0.54;0.14;1.46;-0.28;92.38;-517.41;-435.00;0.97;132.18;50.36;5.42 
9.922;0.81;0.01;0.54;-0.14;0.90;0.28;86.42;-516.46;-435.00;0.97;132.04;50.36;5.42 
9.952;0.79;0.01;0.52;-0.28;-0.28;0.28;91.39;-517.41;-440.00;0.95;131.93;50.33;5.45 
9.983;0.79;0.00;0.54;-0.14;0.00;0.35;87.42;-518.36;-437.00;0.96;131.74;50.41;5.41 
10.012;0.81;-0.03;0.55;-0.21;0.42;0.14;89.40;-517.41;-437.00;0.98;131.64;50.38;5.45 
10.042;0.77;0.00;0.55;-0.35;0.77;-0.14;87.42;-515.51;-433.00;0.95;131.54;50.36;5.48 
10.073;0.77;-0.02;0.52;-0.56;1.04;-0.21;91.39;-517.41;-437.00;0.93;131.44;50.32;5.52 
10.103;0.79;0.00;0.54;0.14;0.90;-0.35;90.40;-518.36;-437.00;0.96;131.35;50.27;5.57 
10.133;0.78;0.00;0.51;0.21;1.46;-0.42;88.41;-515.51;-435.00;0.93;131.27;50.22;5.61 
10.163;0.81;0.01;0.54;-0.28;0.56;-0.35;91.39;-517.41;-439.00;0.97;131.18;50.19;5.66 
10.192;0.80;0.00;0.53;-0.07;0.63;-0.21;89.40;-515.51;-439.00;0.96;131.08;50.16;5.70 
10.222;0.82;-0.02;0.54;-0.49;0.83;0.07;88.41;-515.51;-437.00;0.98;131.00;50.12;5.74 
10.252;0.81;0.00;0.54;-0.49;0.07;-0.21;88.41;-515.51;-438.00;0.97;130.91;50.09;5.78 
10.283;0.81;0.00;0.52;-0.56;-0.21;0.07;88.41;-516.46;-438.00;0.96;130.78;50.10;5.79 
10.313;0.79;0.00;0.54;-0.14;0.83;-0.14;90.40;-516.46;-438.00;0.96;130.68;50.07;5.82 
10.343;0.78;0.00;0.52;0.28;1.53;-0.28;91.39;-517.41;-433.00;0.94;130.49;50.11;5.77 
10.374;0.78;0.00;0.57;0.14;0.90;0.35;89.40;-514.56;-440.00;0.97;130.39;50.08;5.81 
10.404;0.78;0.01;0.58;-0.07;0.77;0.21;91.39;-513.61;-437.00;0.97;130.24;50.09;5.80 
10.434;0.78;0.00;0.51;-0.14;-0.83;0.21;90.40;-515.51;-435.00;0.93;130.14;50.08;5.83 
10.464;0.78;-0.04;0.56;-0.63;-0.35;0.49;89.40;-518.36;-437.00;0.96;129.93;50.17;5.77 
10.495;0.80;0.00;0.54;-1.67;0.77;0.77;89.40;-517.41;-435.00;0.97;129.75;50.25;5.71 
10.525;0.79;0.01;0.51;-1.74;0.49;1.11;89.40;-515.51;-440.00;0.94;129.57;50.32;5.62 
10.555;0.79;-0.01;0.54;-0.77;0.56;1.25;89.40;-515.51;-437.00;0.96;129.39;50.38;5.54 
10.586;0.78;0.00;0.51;-0.21;0.90;1.11;88.41;-515.51;-436.00;0.93;129.15;50.45;5.45 
10.616;0.78;0.00;0.51;0.49;1.04;0.90;86.42;-513.61;-436.00;0.93;128.97;50.47;5.41 
10.646;0.79;0.00;0.55;-0.21;1.74;-0.14;88.41;-513.61;-438.00;0.96;128.79;50.49;5.36 
10.676;0.81;-0.02;0.58;-1.60;1.39;0.14;91.39;-514.56;-438.00;1.00;128.71;50.44;5.37 
10.705;0.80;-0.04;0.59;-3.83;2.78;-0.21;87.42;-513.61;-436.00;0.99;128.61;50.42;5.29 
10.735;0.78;-0.03;0.58;-7.23;4.52;0.35;87.42;-512.66;-436.00;0.97;128.57;50.34;5.16 
10.765;0.78;-0.08;0.57;-10.02;11.83;-4.24;87.42;-511.71;-434.00;0.97;128.62;50.15;4.93 
10.796;0.77;-0.07;0.58;-10.64;14.26;-6.96;82.45;-508.87;-436.00;0.97;128.86;49.81;4.76 
10.826;0.80;-0.04;0.58;-14.26;21.57;-13.77;80.46;-507.92;-442.00;0.99;129.36;49.27;4.64 
10.856;0.74;0.01;0.58;-15.58;16.70;-13.22;77.48;-498.42;-445.00;0.94;130.06;48.67;4.68 
