Time(s) acc_x(g) acc_y(g) acc_z(g) gyr_x(°/s) gyr_y(°/s) gyr_z(°/s) mag_x(G) mag_y(G) mag_z(G) SVM(g) yaw(°) pitch(°) roll(°)
0.000;-0.24;0.43;0.89;-6.47;-7.17;-12.45;2.00;-257.75;-377.69;1.02;158.19;-13.04;20.45 
0.029;-0.22;0.40;0.90;-1.32;-11.06;-7.79;4.00;-258.70;-377.69;1.01;158.48;-12.85;20.36 
0.058;-0.23;0.34;0.86;0.83;-13.01;-7.44;-1.00;-260.62;-378.69;0.95;158.75;-12.60;20.37 
0.087;-0.20;0.30;0.77;-2.43;-14.40;-5.70;0.00;-262.54;-383.69;0.85;158.97;-12.29;20.36 
0.117;-0.18;0.32;0.73;-6.33;-11.20;-5.01;2.00;-265.41;-376.69;0.82;159.12;-11.97;20.23 
0.147;-0.18;0.40;0.76;-3.55;-0.83;-2.30;0.00;-269.24;-379.69;0.88;159.22;-11.82;20.16 
0.177;-0.22;0.44;0.82;-0.14;3.13;5.29;-3.00;-268.29;-381.69;0.96;159.18;-11.87;20.27 
0.208;-0.16;0.40;0.86;-1.18;-2.02;15.17;0.00;-272.12;-379.69;0.96;158.86;-11.74;20.45 
0.238;-0.15;0.34;0.82;-5.57;-4.31;19.27;-1.00;-270.20;-380.69;0.90;158.29;-11.44;20.53 
0.268;-0.16;0.28;0.74;-6.12;-3.76;17.60;1.00;-269.24;-379.69;0.81;157.67;-11.09;20.49 
0.299;-0.18;0.26;0.78;-4.10;1.04;11.97;0.00;-272.12;-380.69;0.84;157.14;-10.87;20.43 
0.329;-0.17;0.26;0.85;-3.48;1.53;9.67;0.00;-268.29;-380.69;0.90;156.76;-10.80;20.41 
0.359;-0.15;0.30;0.81;-3.97;-0.14;10.57;-4.00;-267.33;-382.69;0.88;156.39;-10.71;20.34 
0.389;-0.14;0.27;0.83;-4.17;1.39;8.77;-2.00;-266.37;-381.69;0.88;156.06;-10.59;20.27 
0.420;-0.18;0.30;0.82;-2.85;4.10;5.70;-5.00;-265.41;-379.69;0.89;155.78;-10.54;20.25 
0.450;-0.17;0.24;0.84;-1.60;5.63;1.60;-2.00;-265.41;-381.69;0.89;155.62;-10.62;20.22 
0.480;-0.15;0.24;0.92;-1.25;0.42;-1.39;0.00;-262.54;-383.69;0.96;155.53;-10.73;20.14 
0.511;-0.15;0.22;0.88;0.21;-4.24;-7.17;-1.00;-265.41;-386.68;0.92;155.67;-10.66;20.03 
0.541;-0.13;0.29;0.77;2.16;-10.85;-9.46;-1.00;-267.33;-386.68;0.83;155.95;-10.49;20.02 
0.571;-0.10;0.26;0.74;0.90;-3.90;-13.08;-3.00;-269.24;-383.69;0.79;156.31;-10.26;20.09 
0.601;-0.12;0.31;0.87;0.14;8.21;-16.35;-5.00;-269.24;-385.68;0.93;156.72;-10.42;20.03 
0.631;-0.19;0.27;0.90;0.83;0.14;-16.90;-2.00;-271.16;-384.68;0.96;157.20;-10.68;19.96 
0.661;-0.21;0.30;0.85;1.46;-8.70;-14.89;-3.00;-271.16;-381.69;0.93;157.70;-10.69;19.94 
0.691;-0.14;0.33;0.78;0.97;-2.85;-13.77;-7.00;-274.03;-384.68;0.86;158.15;-10.65;19.93 
0.722;-0.17;0.31;0.80;0.49;-0.90;-12.24;-2.00;-276.91;-385.68;0.87;158.55;-10.69;19.94 
0.752;-0.19;0.33;0.82;0.21;0.00;-10.16;-5.00;-278.83;-381.69;0.90;158.90;-10.79;19.95 
0.782;-0.19;0.30;0.86;1.95;0.35;-9.04;-4.00;-279.78;-385.68;0.93;159.19;-10.90;19.96 
0.812;-0.20;0.34;0.83;2.30;-0.97;-4.87;-2.00;-280.74;-383.69;0.92;159.42;-10.96;20.01 
0.842;-0.23;0.35;0.77;2.37;4.87;-2.85;-5.00;-275.95;-384.68;0.88;159.57;-11.07;20.11 
0.871;-0.27;0.43;0.82;3.27;8.49;-1.04;-1.00;-276.91;-383.69;0.96;159.64;-11.36;20.27 
0.900;-0.30;0.37;0.78;2.50;8.14;5.77;-6.00;-274.03;-382.69;0.91;159.61;-11.66;20.47 
0.930;-0.30;0.36;0.70;2.57;11.20;12.17;-3.00;-274.03;-382.69;0.84;159.35;-11.90;20.72 
0.960;-0.31;0.36;0.68;2.02;22.75;15.58;-4.00;-270.20;-380.69;0.83;158.95;-12.32;21.02 
0.990;-0.26;0.38;0.73;-2.09;31.58;19.48;-2.00;-259.66;-376.69;0.86;158.36;-12.96;21.29 
1.021;-0.33;0.33;0.72;-2.30;35.83;19.97;-2.00;-253.91;-374.69;0.86;157.60;-13.80;21.49 
1.051;-0.34;0.32;0.72;-0.63;32.42;20.24;1.00;-248.16;-373.69;0.86;156.84;-14.70;21.69 
1.081;-0.39;0.33;0.61;-0.90;33.39;20.45;-3.00;-241.46;-369.70;0.80;156.12;-15.48;21.90 
1.111;-0.44;0.32;0.64;2.57;46.96;19.90;-1.00;-226.13;-365.70;0.84;155.37;-16.50;22.20 
1.141;-0.43;0.26;0.66;6.05;46.75;15.23;5.00;-219.42;-363.70;0.83;154.59;-17.85;22.49 
1.171;-0.33;0.20;0.62;8.97;26.99;12.66;3.00;-208.88;-359.70;0.73;154.10;-18.85;22.85 
1.201;-0.26;0.18;0.46;4.66;20.52;8.63;5.00;-202.17;-356.71;0.56;153.75;-19.39;23.16 
1.232;-0.33;0.22;0.43;8.21;38.68;-3.34;8.00;-196.42;-348.71;0.58;153.66;-20.35;23.36 
1.262;-0.32;0.24;0.50;13.77;36.10;-3.76;9.00;-186.84;-345.72;0.64;153.76;-21.62;23.71 
1.292;-0.31;0.20;0.51;10.57;21.36;-1.39;10.00;-180.13;-337.72;0.63;153.85;-22.51;24.10 
1.323;-0.33;0.13;0.51;10.37;19.34;-12.38;9.00;-175.34;-333.73;0.62;154.12;-23.27;24.25 
1.353;-0.25;0.17;0.62;19.06;11.55;-18.23;10.00;-172.47;-329.73;0.69;154.73;-23.98;24.26 
1.383;-0.30;0.25;0.54;18.85;-27.41;-7.93;11.00;-171.51;-326.73;0.67;155.60;-24.03;24.58 
1.413;-0.49;0.36;0.37;13.22;-44.52;-4.03;14.00;-176.30;-325.73;0.71;156.47;-23.15;25.05 
1.444;-0.40;0.40;0.48;15.37;8.35;-3.48;13.00;-179.18;-323.73;0.74;157.14;-22.98;25.56 
1.474;-0.10;0.30;0.73;15.51;-7.58;-5.36;18.00;-177.26;-318.74;0.80;157.60;-23.25;25.99 
1.504;-0.29;0.34;0.63;20.73;-72.14;23.86;21.00;-183.01;-317.74;0.77;158.02;-21.93;26.56 
1.535;-0.40;0.38;0.51;18.16;-67.76;37.70;26.00;-191.63;-320.74;0.75;157.99;-19.55;27.68 
1.565;-0.19;0.29;0.54;1.60;-63.93;25.74;33.00;-198.34;-322.74;0.64;157.68;-17.53;28.34 
1.595;-0.12;0.39;0.57;0.97;-86.05;37.84;34.00;-214.63;-316.74;0.70;157.27;-15.16;28.68 
1.625;-0.26;0.41;0.77;-2.02;-84.80;31.51;35.00;-229.00;-312.74;0.91;156.69;-12.38;29.07 
1.655;-1.02;2.10;1.61;-90.50;-228.10;-37.29;33.00;-243.37;-301.75;2.84;156.83;-9.45;28.25 
1.685;-0.22;-0.04;0.29;0.49;-380.66;135.93;25.00;-268.29;-277.77;0.37;156.41;-1.22;26.96 
1.715;-0.47;0.21;0.56;-92.52;-338.02;71.23;57.00;-299.90;-232.81;0.76;154.29;9.52;25.80 
1.745;0.14;0.10;0.70;-85.98;-280.00;128.28;74.00;-313.32;-205.83;0.72;151.16;19.10;22.38 
1.775;0.12;0.34;0.73;-47.03;-227.90;112.90;75.00;-334.40;-177.85;0.81;147.21;27.29;19.13 
1.805;0.64;-0.19;0.85;-31.23;-160.21;193.60;53.00;-359.31;-141.88;1.08;142.07;34.75;15.53 
1.835;2.03;-0.29;2.76;81.32;426.37;-26.78;17.00;-389.01;-104.91;3.44;139.04;34.06;13.37 
1.865;0.02;1.38;5.60;205.63;-135.23;75.55;-49.00;-409.14;-201.83;5.77;140.85;18.57;17.49 
1.895;1.74;1.02;1.06;-199.44;-623.51;232.97;-75.00;-458.00;-194.84;2.28;139.06;29.89;16.66 
1.925;-0.89;0.08;-0.07;-109.63;-711.37;221.63;-126.00;-500.16;-85.93;0.90;128.06;50.57;8.47 
1.956;-1.08;-0.21;-0.70;0.56;-527.79;197.01;-167.00;-522.20;12.99;1.30;110.67;70.42;2.57 
1.986;-1.71;-0.96;-0.74;-45.57;-368.70;175.58;-200.00;-476.21;107.91;2.10;92.50;83.16;-3.45 
2.016;1.02;-1.00;-1.59;-96.14;-17.95;25.39;-216.00;-435.96;160.87;2.14;80.31;81.98;-7.72 
2.047;1.74;-0.78;-0.49;-63.86;184.28;37.43;-232.00;-466.63;165.86;1.97;81.73;81.13;-8.86 
2.077;1.68;-0.79;-0.08;-89.53;-112.07;20.87;-255.00;-529.86;148.88;1.86;83.34;79.83;-9.89 
2.107;1.26;-0.48;-0.43;-109.84;-359.79;62.68;-257.00;-535.61;166.86;1.42;71.86;77.41;-11.38 
2.137;0.53;-0.10;-0.68;-74.16;-329.74;77.08;-255.00;-520.28;199.84;0.87;55.17;68.31;-13.25 
2.167;0.22;-0.21;-1.30;27.90;-293.29;46.40;-255.00;-496.33;225.81;1.34;44.92;59.80;-14.41 
2.197;0.09;-1.06;-2.50;61.50;-496.77;82.78;-260.00;-389.97;260.79;2.72;37.49;48.09;-17.28 
2.227;-0.36;-1.18;-1.58;-76.73;-271.17;63.03;-258.00;-303.74;274.77;2.00;30.81;34.96;-18.78 
2.258;-0.93;-0.38;-0.82;-27.62;149.98;3.76;-250.00;-293.20;283.77;1.30;29.00;33.62;-18.71 
2.288;-0.34;-0.22;-0.66;-57.46;110.96;-57.67;-244.00;-323.86;288.76;0.77;29.80;37.11;-17.29 
2.318;0.64;-0.26;-1.16;-46.40;137.67;-50.78;-238.00;-359.31;287.76;1.35;31.70;40.99;-15.15 
2.347;0.92;-0.11;-0.98;-34.57;115.83;-38.05;-236.00;-387.10;285.77;1.35;33.91;45.22;-13.28 
2.377;1.10;-0.06;-1.09;-20.94;57.11;-9.81;-230.00;-399.55;287.76;1.55;35.44;48.24;-12.10 
2.407;0.86;-0.06;-0.90;-9.11;32.00;2.09;-232.00;-420.63;280.77;1.25;35.96;49.66;-11.76 
2.437;0.62;-0.05;-0.70;3.62;34.37;-14.12;-229.00;-427.34;279.77;0.94;36.67;50.73;-11.57 
2.468;0.74;-0.06;-0.79;12.03;30.26;-2.71;-232.00;-442.67;270.78;1.08;37.81;51.92;-11.48 
2.498;0.84;-0.33;-0.82;3.34;29.98;9.46;-232.00;-453.21;268.78;1.22;38.47;52.78;-11.93 
2.528;0.77;-0.34;-0.70;1.88;32.70;5.50;-228.00;-467.58;256.79;1.09;38.87;53.68;-12.31 
2.559;0.74;-0.30;-0.66;10.43;13.22;-6.82;-224.00;-477.16;247.80;1.04;39.51;54.42;-12.65 
2.589;0.72;-0.30;-0.75;-6.96;-0.35;-11.62;-224.00;-481.00;241.80;1.08;40.00;54.79;-12.64 
2.619;0.70;-0.30;-0.92;-0.63;-7.65;-14.26;-220.00;-488.66;246.80;1.19;40.25;54.86;-12.36 
2.649;0.69;-0.39;-1.03;7.44;8.49;-11.90;-219.00;-486.75;240.80;1.30;40.57;54.77;-12.25 
2.679;0.62;-0.48;-0.86;-10.16;44.66;-14.96;-216.00;-491.54;238.80;1.16;41.32;55.53;-12.21 
2.709;0.60;-0.38;-0.77;-21.29;62.47;-20.52;-211.00;-503.99;232.81;1.05;42.36;57.04;-11.77 
2.739;0.78;-0.23;-0.74;-24.77;64.42;-31.17;-207.00;-510.70;229.81;1.10;43.82;59.01;-10.97 
2.770;1.14;-0.16;-0.77;-23.17;47.86;-39.72;-204.00;-528.91;230.81;1.38;45.82;61.19;-9.70 
2.800;1.02;-0.02;-0.64;-14.89;19.97;-19.90;-193.00;-539.45;222.82;1.20;47.35;62.60;-8.61 
2.830;0.80;0.06;-0.51;-16.90;14.75;-4.24;-192.00;-552.86;219.82;0.95;47.93;63.32;-8.06 
2.860;0.81;0.03;-0.48;-5.70;15.44;-3.69;-190.00;-553.82;218.82;0.94;48.32;63.91;-7.74 
2.890;0.92;0.05;-0.55;-0.90;-4.73;2.85;-186.00;-557.65;213.82;1.07;48.79;64.35;-7.64 
2.920;0.98;-0.02;-0.75;1.39;-33.04;15.10;-190.00;-555.73;216.82;1.23;48.13;63.80;-7.83 
2.949;0.85;-0.11;-0.85;9.39;-29.01;20.45;-190.00;-547.11;218.82;1.21;46.81;62.62;-8.49 
2.978;0.77;-0.21;-0.78;6.89;-6.96;11.83;-191.00;-544.24;218.82;1.12;45.93;61.81;-9.13 
3.007;0.78;-0.18;-0.66;4.17;-3.62;9.60;-194.00;-544.24;219.82;1.04;45.57;61.53;-9.62 
3.037;0.83;-0.13;-0.77;4.80;-20.45;6.05;-197.00;-539.45;216.82;1.14;45.16;61.11;-9.96 
3.068;0.81;-0.12;-0.84;12.17;-17.88;8.00;-196.00;-539.45;214.82;1.17;44.65;60.40;-10.31 
3.098;0.77;-0.20;-0.80;11.83;-7.93;10.43;-197.00;-538.49;209.83;1.13;44.30;59.89;-10.81 
3.128;0.78;-0.28;-0.74;12.52;-2.50;8.14;-196.00;-540.40;206.83;1.11;44.18;59.61;-11.35 
3.158;0.82;-0.32;-0.75;6.61;-3.55;3.48;-202.00;-541.36;203.83;1.16;44.12;59.44;-11.82 
3.188;0.80;-0.30;-0.78;1.53;-2.99;0.28;-200.00;-545.19;202.83;1.16;44.07;59.29;-12.08 
3.218;0.78;-0.26;-0.76;-1.81;-1.18;-0.97;-203.00;-543.28;203.83;1.12;44.02;59.21;-12.18 
3.248;0.78;-0.26;-0.76;-2.64;5.91;-2.09;-200.00;-542.32;201.83;1.12;44.02;59.24;-12.22 
3.279;0.81;-0.22;-0.72;-0.49;5.70;-3.06;-200.00;-543.28;205.83;1.11;44.25;59.47;-12.21 
3.309;0.83;-0.20;-0.73;0.00;-5.77;-2.09;-201.00;-543.28;199.84;1.12;44.38;59.54;-12.19 
3.339;0.78;-0.22;-0.77;2.09;-10.78;-0.70;-200.00;-544.24;203.83;1.12;44.29;59.34;-12.21 
3.370;0.76;-0.15;-0.77;-2.78;-6.33;-1.11;-202.00;-541.36;204.83;1.09;44.15;59.10;-12.24 
3.399;0.74;-0.10;-0.74;-1.39;6.33;0.14;-197.00;-541.36;205.83;1.05;44.10;59.07;-12.19 
3.429;0.82;-0.14;-0.75;0.63;12.31;3.90;-201.00;-538.49;204.83;1.12;44.25;59.29;-12.24 
3.459;0.81;-0.16;-0.73;0.35;2.64;1.18;-204.00;-543.28;204.83;1.10;44.45;59.55;-12.34 
3.489;0.74;-0.18;-0.76;3.62;-2.78;4.10;-200.00;-544.24;199.84;1.08;44.41;59.48;-12.46 
3.519;0.77;-0.24;-0.77;4.38;5.98;2.30;-204.00;-544.24;201.83;1.12;44.39;59.41;-12.67 
3.549;0.80;-0.26;-0.77;2.57;12.52;-0.56;-203.00;-546.15;199.84;1.14;44.64;59.62;-12.85 
3.580;0.82;-0.24;-0.72;0.28;8.14;-1.18;-202.00;-549.03;196.84;1.12;44.97;59.95;-12.93 
3.610;0.80;-0.25;-0.71;-0.90;1.25;-0.42;-201.00;-550.94;197.84;1.10;45.11;60.09;-12.97 
3.640;0.78;-0.23;-0.73;-1.67;-0.21;-0.63;-201.00;-550.94;196.84;1.09;45.11;60.10;-13.02 
3.670;0.78;-0.19;-0.78;-1.53;1.88;-0.21;-203.00;-549.03;198.84;1.12;45.10;60.10;-13.04 
3.700;0.78;-0.20;-0.78;-0.49;2.99;0.14;-199.00;-549.99;196.84;1.12;45.14;60.15;-13.06 
3.729;0.79;-0.19;-0.74;0.07;2.43;0.21;-202.00;-552.86;193.84;1.10;45.20;60.20;-13.10 
3.758;0.82;-0.23;-0.74;1.46;2.30;0.07;-202.00;-549.99;191.84;1.13;45.26;60.25;-13.17 
3.788;0.80;-0.21;-0.74;-0.83;1.53;-0.28;-200.00;-552.86;195.84;1.11;45.32;60.29;-13.22 
3.818;0.78;-0.21;-0.75;-0.63;2.37;-0.14;-203.00;-549.99;191.84;1.10;45.37;60.33;-13.24 
3.848;0.82;-0.22;-0.76;0.56;3.41;0.70;-201.00;-549.99;197.84;1.14;45.43;60.38;-13.29 
3.879;0.85;-0.22;-0.74;0.21;3.55;0.14;-203.00;-552.86;192.84;1.15;45.55;60.48;-13.34 
3.909;0.80;-0.21;-0.73;-0.28;-0.77;0.49;-202.00;-550.94;194.84;1.10;45.60;60.52;-13.38 
3.939;0.77;-0.22;-0.77;-0.35;0.42;1.04;-203.00;-554.78;192.84;1.11;45.55;60.46;-13.44 
3.969;0.82;-0.24;-0.77;-0.28;3.83;-0.42;-202.00;-549.99;194.84;1.15;45.56;60.46;-13.49 
3.999;0.83;-0.21;-0.72;-0.21;3.62;-0.42;-202.00;-551.90;196.84;1.12;45.67;60.57;-13.50 
4.028;0.82;-0.19;-0.75;-0.35;0.70;0.00;-204.00;-552.86;192.84;1.13;45.73;60.60;-13.52 
4.058;0.81;-0.20;-0.77;0.00;1.11;-0.07;-199.00;-551.90;191.84;1.14;45.77;60.62;-13.53 
4.088;0.84;-0.22;-0.74;0.14;2.02;0.42;-203.00;-551.90;192.84;1.14;45.81;60.64;-13.56 
4.118;0.83;-0.23;-0.77;0.07;1.18;0.56;-203.00;-553.82;190.84;1.16;45.86;60.67;-13.60 
4.148;0.82;-0.22;-0.76;-0.21;0.07;0.42;-202.00;-554.78;190.84;1.14;45.87;60.66;-13.63 
4.179;0.80;-0.22;-0.76;-0.49;0.70;0.14;-199.00;-551.90;192.84;1.13;45.86;60.64;-13.67 
4.209;0.84;-0.25;-0.75;0.42;1.81;-0.97;-202.00;-553.82;191.84;1.15;45.89;60.66;-13.66 
4.239;0.82;-0.22;-0.73;-1.39;-0.70;-0.35;-199.00;-556.69;189.84;1.12;45.92;60.68;-13.69 
4.269;0.81;-0.23;-0.75;0.21;-1.67;1.25;-202.00;-553.82;191.84;1.13;45.88;60.62;-13.73 
4.299;0.79;-0.21;-0.76;0.28;-0.90;0.49;-200.00;-552.86;192.84;1.12;45.83;60.54;-13.78 
4.328;0.83;-0.21;-0.74;0.35;-0.56;0.07;-203.00;-551.90;191.84;1.13;45.81;60.50;-13.81 
4.358;0.82;-0.19;-0.76;0.00;-4.59;0.70;-201.00;-552.86;192.84;1.13;45.75;60.41;-13.85 
4.389;0.81;-0.22;-0.79;0.07;-5.36;1.11;-201.00;-551.90;191.84;1.15;45.61;60.24;-13.91 
4.419;0.77;-0.20;-0.76;-0.97;-3.06;-0.14;-202.00;-551.90;193.84;1.10;45.47;60.07;-13.95 
4.449;0.77;-0.18;-0.77;-0.63;0.70;0.14;-204.00;-550.94;192.84;1.10;45.42;60.00;-13.96 
4.480;0.82;-0.19;-0.74;0.28;2.92;0.63;-206.00;-550.94;194.84;1.12;45.45;60.03;-13.98 
4.510;0.83;-0.22;-0.75;0.00;1.81;0.42;-203.00;-550.94;196.84;1.14;45.50;60.07;-14.00 
4.539;0.80;-0.22;-0.74;-0.07;-1.39;0.35;-201.00;-549.99;196.84;1.11;45.52;60.06;-14.03 
4.569;0.81;-0.22;-0.77;0.14;-2.64;0.21;-200.00;-550.94;190.84;1.14;45.46;59.97;-14.08 
4.599;0.77;-0.25;-0.73;0.00;-1.46;0.35;-206.00;-549.03;193.84;1.09;45.40;59.89;-14.13 
4.629;0.80;-0.23;-0.75;-0.35;-2.64;-0.21;-200.00;-548.07;194.84;1.12;45.35;59.81;-14.17 
4.659;0.82;-0.21;-0.77;-0.14;-2.92;0.21;-203.00;-548.07;195.84;1.14;45.31;59.73;-14.18 
4.690;0.79;-0.21;-0.77;0.90;-0.35;1.46;-202.00;-551.90;196.84;1.12;45.26;59.66;-14.21 
4.720;0.79;-0.22;-0.70;-1.25;-0.77;0.07;-205.00;-549.99;195.84;1.08;45.26;59.64;-14.25 
4.750;0.81;-0.22;-0.77;-0.42;-2.99;0.28;-201.00;-549.03;195.84;1.14;45.20;59.57;-14.26 
4.779;0.80;-0.18;-0.75;-0.28;-2.50;0.42;-202.00;-548.07;198.84;1.11;45.13;59.45;-14.27 
4.808;0.78;-0.22;-0.75;0.21;-0.35;-0.07;-203.00;-547.11;197.84;1.10;45.12;59.42;-14.28 
4.838;0.79;-0.21;-0.75;0.83;-2.85;1.04;-201.00;-549.03;195.84;1.11;45.10;59.37;-14.30 
4.868;0.79;-0.22;-0.78;0.07;-2.02;0.21;-205.00;-547.11;195.84;1.13;45.04;59.27;-14.36 
4.898;0.82;-0.25;-0.74;-0.49;0.97;-0.07;-205.00;-549.03;195.84;1.13;45.06;59.26;-14.38 
4.928;0.79;-0.20;-0.76;-0.63;-1.18;0.35;-208.00;-546.15;197.84;1.11;45.07;59.25;-14.39 
4.958;0.78;-0.21;-0.77;-0.35;-2.02;0.70;-203.00;-546.15;198.84;1.12;45.02;59.19;-14.40 
4.989;0.78;-0.22;-0.74;-0.07;-1.32;0.28;-203.00;-549.03;200.84;1.10;44.97;59.11;-14.43 
5.019;0.82;-0.20;-0.78;-0.07;0.07;0.07;-207.00;-547.11;196.84;1.15;44.97;59.07;-14.42 
5.049;0.79;-0.24;-0.77;-0.07;-1.67;0.14;-203.00;-545.19;198.84;1.13;44.97;59.04;-14.44 
5.078;0.80;-0.18;-0.74;-0.14;-1.88;0.07;-205.00;-544.24;198.84;1.10;44.94;58.98;-14.44 
5.107;0.81;-0.23;-0.76;-0.63;-1.88;0.35;-203.00;-547.11;198.84;1.13;44.95;58.95;-14.45 
5.136;0.78;-0.22;-0.75;-0.83;-3.06;-0.35;-205.00;-546.15;198.84;1.10;44.90;58.88;-14.44 
5.166;0.75;-0.20;-0.77;-0.35;-1.25;0.21;-206.00;-545.19;199.84;1.09;44.85;58.79;-14.43 
5.196;0.78;-0.23;-0.77;1.74;1.67;1.18;-201.00;-547.11;200.84;1.12;44.86;58.79;-14.47 
5.226;0.77;-0.24;-0.77;-1.32;0.56;-0.83;-204.00;-546.15;197.84;1.12;44.91;58.81;-14.48 
5.256;0.77;-0.19;-0.74;-0.28;4.10;-0.28;-203.00;-544.24;199.84;1.08;44.98;58.87;-14.47 
5.287;0.86;-0.23;-0.76;0.07;3.41;0.83;-201.00;-547.11;196.84;1.17;45.12;59.01;-14.49 
5.317;0.78;-0.22;-0.74;-0.56;-5.84;0.00;-203.00;-549.03;200.84;1.10;45.13;58.99;-14.49 
5.347;0.76;-0.20;-0.78;0.00;-3.13;0.28;-205.00;-544.24;195.84;1.11;45.02;58.82;-14.51 
5.377;0.81;-0.23;-0.78;-0.90;-0.49;-0.56;-205.00;-545.19;200.84;1.15;45.00;58.78;-14.52 
5.406;0.82;-0.24;-0.78;-1.95;0.77;-1.32;-199.00;-547.11;200.84;1.16;45.02;58.78;-14.50 
5.435;0.80;-0.22;-0.73;-1.88;-4.38;-1.04;-205.00;-546.15;201.83;1.11;45.05;58.79;-14.44 
5.465;0.74;-0.18;-0.77;-1.18;-7.79;1.95;-204.00;-543.28;203.83;1.08;44.88;58.58;-14.42 
5.495;0.75;-0.22;-0.85;-0.42;4.38;1.04;-200.00;-540.40;204.83;1.15;44.71;58.41;-14.47 
5.525;0.78;-0.18;-0.75;-1.53;5.70;-0.90;-202.00;-535.61;203.83;1.10;44.81;58.53;-14.47 
5.555;0.79;-0.19;-0.78;-0.97;2.92;0.35;-200.00;-539.45;204.83;1.13;44.90;58.64;-14.43 
5.586;0.79;-0.22;-0.77;-1.60;0.77;-0.70;-204.00;-538.49;208.83;1.12;44.92;58.67;-14.41 
5.616;0.78;-0.20;-0.77;-0.90;1.74;-0.42;-202.00;-542.32;209.83;1.11;44.92;58.66;-14.38 
5.646;0.81;-0.22;-0.77;0.56;3.83;0.83;-202.00;-534.65;205.83;1.14;45.00;58.73;-14.38 
5.676;0.78;-0.18;-0.74;0.21;-0.56;0.63;-202.00;-532.74;206.83;1.09;45.04;58.76;-14.40 
5.706;0.77;-0.23;-0.77;3.27;-3.34;2.85;-203.00;-532.74;209.83;1.11;44.96;58.63;-14.44 
5.736;0.77;-0.26;-0.79;1.04;-1.88;1.74;-203.00;-535.61;213.82;1.13;44.86;58.48;-14.55 
5.765;0.77;-0.26;-0.77;1.18;1.95;0.14;-201.00;-531.78;210.83;1.12;44.84;58.42;-14.61 
5.794;0.82;-0.24;-0.78;-0.49;5.63;-2.92;-204.00;-531.78;211.83;1.16;44.94;58.49;-14.61 
5.824;0.79;-0.22;-0.73;0.56;-1.88;-1.39;-207.00;-529.86;215.82;1.10;45.11;58.62;-14.56 
5.854;0.77;-0.22;-0.79;1.04;-7.17;-0.70;-204.00;-527.95;211.83;1.12;45.02;58.44;-14.56 
5.885;0.77;-0.24;-0.77;0.21;0.70;-3.20;-205.00;-528.91;211.83;1.12;45.00;58.31;-14.51 
5.915;0.78;-0.23;-0.78;0.14;5.77;-4.03;-206.00;-527.95;213.82;1.13;45.15;58.39;-14.43 
5.945;0.80;-0.19;-0.75;-0.14;4.38;-3.13;-202.00;-531.78;214.82;1.11;45.38;58.57;-14.34 
5.975;0.81;-0.20;-0.75;0.14;-0.14;-1.74;-202.00;-530.82;212.83;1.12;45.53;58.66;-14.26 
6.005;0.78;-0.22;-0.77;0.28;-5.63;-0.49;-204.00;-527.95;214.82;1.12;45.49;58.56;-14.25 
6.035;0.80;-0.26;-0.70;5.08;-15.17;-7.17;-206.00;-526.03;215.82;1.09;45.41;58.42;-14.25 
6.065;0.80;-0.22;-0.88;-8.14;-35.62;-7.44;-203.00;-526.03;216.82;1.21;45.32;57.64;-13.86 
6.096;0.70;-0.20;-0.82;4.66;-7.86;-4.45;-199.00;-525.07;220.82;1.10;45.04;57.04;-13.70 
6.125;0.71;-0.17;-0.90;2.43;10.64;4.24;-202.00;-522.20;224.82;1.16;45.01;56.95;-13.68 
6.154;0.74;-0.19;-0.83;2.02;29.36;5.43;-202.00;-525.07;218.82;1.13;45.19;57.32;-13.80 
6.184;0.76;-0.22;-0.70;1.18;13.29;5.98;-203.00;-527.95;217.82;1.06;45.55;57.88;-13.99 
6.213;0.60;-0.14;-0.77;-0.07;0.83;-4.10;-205.00;-526.03;216.82;0.99;45.52;57.93;-14.16 
6.243;0.82;-0.29;-0.77;-3.34;9.81;1.95;-207.00;-526.99;214.82;1.16;45.67;58.22;-14.44 
6.273;0.80;-0.22;-0.74;-1.04;-6.33;-1.25;-204.00;-526.99;215.82;1.11;45.75;58.31;-14.38 
6.303;0.78;-0.21;-0.77;-0.07;-3.41;0.90;-202.00;-526.03;212.83;1.12;45.63;58.11;-14.40 
6.333;0.77;-0.18;-0.77;-0.83;-2.30;1.95;-202.00;-527.95;215.82;1.10;45.57;57.98;-14.42 
6.363;0.77;-0.20;-0.71;5.15;-2.71;2.16;-206.00;-525.07;217.82;1.07;45.45;57.84;-14.44 
6.394;0.78;-0.25;-0.83;-0.97;-10.99;-4.24;-204.00;-524.11;216.82;1.17;45.09;57.43;-14.43 
6.424;0.78;-0.14;-0.82;-10.23;-11.41;-1.53;-205.00;-522.20;219.82;1.14;44.97;57.22;-14.24 
6.454;0.82;-0.26;-0.82;-6.89;-21.63;-3.83;-204.00;-523.16;220.82;1.19;44.54;56.68;-14.05 
6.485;0.70;-0.20;-0.82;-10.02;-2.99;1.81;-203.00;-518.37;224.82;1.10;44.13;56.24;-13.91 
6.515;0.78;-0.18;-0.74;-4.45;2.99;-3.13;-200.00;-524.11;226.81;1.09;44.16;56.39;-13.83 
6.545;0.77;-0.23;-0.79;-11.34;-27.62;3.13;-198.00;-522.20;227.81;1.13;43.97;56.20;-13.68 
6.575;0.79;-0.21;-0.85;-8.63;-13.15;-2.23;-200.00;-516.45;230.81;1.18;43.32;55.57;-13.51 
6.605;0.75;-0.21;-0.78;-4.03;-13.91;-3.97;-200.00;-517.41;232.81;1.10;43.11;55.25;-13.38 
6.635;0.68;-0.18;-0.87;-12.87;-7.65;-6.96;-199.00;-514.53;233.81;1.12;42.73;54.75;-13.25 
6.665;0.77;-0.11;-0.83;-13.22;-3.76;-11.55;-195.00;-514.53;236.81;1.14;42.72;54.68;-12.87 
6.696;0.74;-0.16;-0.85;-15.79;-4.73;-8.90;-193.00;-516.45;239.80;1.14;42.79;54.74;-12.36 
6.726;0.72;-0.18;-0.85;-17.95;-13.63;-6.61;-189.00;-518.37;242.80;1.13;42.75;54.75;-11.89 
6.756;0.73;-0.18;-0.86;-23.93;-21.57;0.07;-191.00;-514.53;246.80;1.14;42.17;54.28;-11.52 
6.786;0.70;-0.16;-0.84;-25.11;-0.21;2.16;-186.00;-512.62;252.79;1.11;41.53;54.01;-11.25 
6.816;0.78;-0.18;-0.86;-27.55;-1.53;-5.29;-187.00;-511.66;250.79;1.17;40.95;53.83;-10.83 
6.846;0.77;-0.15;-0.84;-27.76;2.99;-6.05;-180.00;-514.53;256.79;1.15;40.69;54.01;-10.21 
6.876;0.72;-0.02;-0.86;-29.84;-2.57;1.95;-179.00;-515.49;264.78;1.12;40.17;54.06;-9.70 
6.907;0.75;-0.06;-0.86;-27.69;-3.76;-4.52;-175.00;-515.49;268.78;1.14;39.55;53.99;-9.19 
6.936;0.77;0.05;-0.89;-26.23;-7.03;-1.88;-173.00;-514.53;270.78;1.18;39.00;53.96;-8.61 
6.965;0.69;0.01;-0.92;-22.26;-2.37;-0.14;-171.00;-514.53;272.78;1.15;38.58;53.85;-8.14 
6.995;0.70;0.02;-0.90;-18.85;-5.70;1.67;-167.00;-518.37;276.77;1.14;38.20;53.88;-7.79 
7.024;0.70;0.01;-0.88;-7.23;-4.52;-4.10;-168.00;-518.37;273.78;1.12;37.97;53.86;-7.46 
7.054;0.70;0.02;-0.86;-3.62;-11.34;-3.62;-166.00;-515.49;280.77;1.11;37.92;53.70;-7.27 
7.084;0.70;-0.02;-0.88;-0.28;-10.99;-2.57;-165.00;-516.45;280.77;1.12;37.84;53.41;-7.13 
7.114;0.67;0.00;-0.92;7.58;0.56;-1.18;-168.00;-513.58;282.77;1.14;37.90;53.24;-7.12 
7.144;0.70;-0.04;-0.90;15.65;12.73;0.00;-169.00;-517.41;279.77;1.14;38.31;53.38;-7.29 
7.174;0.74;-0.03;-0.88;10.78;7.58;8.35;-171.00;-517.41;275.77;1.15;38.89;53.91;-7.71 
7.205;0.74;-0.02;-0.86;16.49;-0.77;10.99;-173.00;-517.41;273.78;1.13;39.09;54.04;-8.19 
7.235;0.73;-0.10;-0.88;21.08;-9.11;7.93;-178.00;-515.49;268.78;1.15;39.22;53.83;-8.81 
7.265;0.65;-0.12;-0.88;8.77;4.94;9.60;-178.00;-509.74;271.78;1.10;39.29;53.67;-9.34 
7.296;0.69;-0.10;-0.90;4.03;9.18;2.92;-180.00;-513.58;269.78;1.14;39.46;53.83;-9.62 
7.326;0.74;-0.07;-0.86;8.49;7.37;7.03;-180.00;-510.70;271.78;1.14;39.64;54.04;-9.88 
7.355;0.69;-0.12;-0.86;10.57;9.46;0.77;-184.00;-512.62;264.78;1.11;39.90;54.28;-10.18 
7.384;0.73;-0.16;-0.79;1.39;1.74;1.04;-187.00;-512.62;262.78;1.09;40.25;54.46;-10.33 
7.414;0.73;-0.10;-0.87;0.35;-0.77;-0.77;-186.00;-515.49;263.78;1.14;40.31;54.42;-10.36 
7.444;0.72;-0.10;-0.86;1.04;1.53;0.00;-186.00;-514.53;259.79;1.13;40.38;54.42;-10.37 
7.474;0.74;-0.11;-0.83;2.09;-1.46;-0.56;-186.00;-516.45;263.78;1.12;40.46;54.43;-10.39 
7.505;0.74;-0.11;-0.86;1.18;-3.13;-0.49;-189.00;-513.58;262.78;1.14;40.51;54.35;-10.40 
7.535;0.72;-0.14;-0.88;0.28;0.21;0.63;-185.00;-515.49;264.78;1.15;40.52;54.27;-10.43 
7.565;0.73;-0.15;-0.84;0.35;-0.97;0.07;-186.00;-511.66;263.78;1.12;40.55;54.26;-10.44 
7.595;0.71;-0.10;-0.90;0.77;-1.11;0.56;-184.00;-510.70;263.78;1.15;40.58;54.23;-10.47 
7.625;0.69;-0.11;-0.90;0.70;0.56;0.07;-188.00;-514.53;263.78;1.14;40.61;54.19;-10.50 
7.654;0.70;-0.10;-0.90;0.21;1.74;-0.83;-185.00;-509.74;260.79;1.14;40.69;54.22;-10.52 
7.683;0.74;-0.10;-0.88;-0.07;1.04;-0.77;-187.00;-511.66;260.79;1.15;40.78;54.26;-10.53 
7.713;0.70;-0.11;-0.85;0.83;0.49;-0.07;-186.00;-512.62;262.78;1.11;40.84;54.26;-10.53 
7.743;0.70;-0.11;-0.85;0.14;2.09;-0.70;-187.00;-511.66;260.79;1.11;40.91;54.28;-10.54 
7.773;0.72;-0.10;-0.89;0.28;3.27;-1.81;-187.00;-511.66;262.78;1.15;41.04;54.37;-10.51 
7.804;0.72;-0.10;-0.87;0.21;-1.53;0.70;-187.00;-515.49;260.79;1.13;41.13;54.40;-10.48 
7.834;0.74;-0.13;-0.84;0.21;0.14;-0.42;-187.00;-512.62;258.79;1.13;41.18;54.40;-10.49 
7.864;0.71;-0.13;-0.85;1.25;-1.18;-0.14;-187.00;-511.66;263.78;1.12;41.22;54.37;-10.52 
7.894;0.73;-0.12;-0.86;1.25;-1.67;0.97;-186.00;-511.66;259.79;1.13;41.26;54.34;-10.57 
7.924;0.72;-0.14;-0.89;0.42;-1.39;-0.21;-185.00;-512.62;259.79;1.15;41.24;54.23;-10.60 
7.954;0.71;-0.14;-0.90;-0.56;2.71;-1.18;-186.00;-511.66;262.78;1.15;41.29;54.22;-10.60 
7.983;0.71;-0.08;-0.86;-0.28;2.57;-0.21;-187.00;-513.58;263.78;1.12;41.38;54.29;-10.58 
8.012;0.72;-0.09;-0.86;0.00;0.07;0.14;-187.00;-515.49;261.79;1.13;41.47;54.35;-10.57 
8.042;0.72;-0.16;-0.90;0.28;-0.35;0.42;-188.00;-513.58;263.78;1.16;41.49;54.32;-10.57 
8.072;0.70;-0.12;-0.85;0.00;0.90;-0.21;-186.00;-513.58;260.79;1.11;41.54;54.32;-10.59 
8.103;0.70;-0.12;-0.87;0.90;0.00;1.11;-187.00;-509.74;263.78;1.12;41.58;54.33;-10.61 
8.133;0.70;-0.12;-0.86;0.14;2.09;0.97;-187.00;-511.66;257.79;1.12;41.61;54.32;-10.66 
8.163;0.71;-0.12;-0.86;-0.07;2.71;0.28;-187.00;-512.62;260.79;1.12;41.67;54.37;-10.68 
8.193;0.72;-0.12;-0.86;-0.70;4.31;-0.21;-188.00;-512.62;261.79;1.13;41.78;54.46;-10.68 
8.222;0.73;-0.12;-0.87;-0.28;1.95;0.90;-188.00;-512.62;259.79;1.14;41.84;54.52;-10.68 
8.251;0.74;-0.10;-0.81;0.00;1.60;0.83;-185.00;-512.62;261.79;1.10;41.89;54.57;-10.70 
8.281;0.70;-0.14;-0.85;0.70;-1.11;0.90;-189.00;-510.70;259.79;1.11;41.93;54.56;-10.74 
8.311;0.74;-0.11;-0.86;-1.04;0.21;0.63;-188.00;-511.66;263.78;1.14;41.97;54.55;-10.76 
8.341;0.70;-0.10;-0.90;-1.67;-2.37;1.32;-188.00;-510.70;258.79;1.14;41.92;54.46;-10.79 
8.371;0.74;-0.11;-0.88;1.04;-3.13;7.58;-188.00;-512.62;257.79;1.16;41.78;54.33;-10.87 
8.402;0.70;-0.11;-0.89;-0.49;0.90;6.68;-188.00;-507.83;256.79;1.14;41.57;54.20;-11.07 
8.432;0.71;-0.16;-0.84;0.83;-3.90;2.16;-191.00;-508.78;264.78;1.11;41.52;54.16;-11.18 
8.462;0.66;-0.14;-0.90;0.56;-4.17;2.43;-187.00;-508.78;260.79;1.12;41.40;53.96;-11.27 
8.492;0.63;-0.11;-0.87;0.07;4.10;-5.91;-191.00;-511.66;259.79;1.08;41.36;53.88;-11.31 
8.522;0.78;-0.10;-0.85;0.28;-0.49;-2.92;-189.00;-511.66;259.79;1.16;41.59;54.04;-11.17 
8.551;0.71;-0.10;-0.88;1.53;-4.66;3.34;-187.00;-511.66;256.79;1.14;41.60;53.95;-11.16 
8.580;0.67;-0.11;-0.87;1.60;0.21;3.13;-186.00;-513.58;256.79;1.10;41.51;53.80;-11.25 
8.610;0.70;-0.14;-0.88;0.14;5.91;-1.04;-185.00;-518.37;252.79;1.13;41.59;53.88;-11.29 
8.640;0.74;-0.13;-0.85;0.63;0.97;0.49;-187.00;-515.49;256.79;1.13;41.76;54.01;-11.25 
8.670;0.71;-0.13;-0.87;1.67;-2.92;2.37;-183.00;-518.37;253.79;1.13;41.80;54.00;-11.30 
8.701;0.70;-0.16;-0.90;0.83;2.30;1.18;-185.00;-513.58;251.79;1.15;41.81;53.96;-11.35 
8.731;0.71;-0.14;-0.86;-0.83;3.69;-0.14;-187.00;-517.41;254.79;1.12;41.92;54.06;-11.36 
8.761;0.70;-0.11;-0.86;-0.49;1.11;0.97;-184.00;-520.28;250.79;1.11;42.01;54.15;-11.32 
8.791;0.70;-0.10;-0.87;-0.21;1.88;1.32;-187.00;-516.45;254.79;1.12;42.06;54.18;-11.33 
8.821;0.71;-0.11;-0.91;-0.56;3.06;-0.97;-188.00;-519.32;252.79;1.16;42.17;54.27;-11.31 
8.850;0.71;-0.07;-0.84;0.56;1.67;0.14;-186.00;-520.28;251.79;1.10;42.25;54.33;-11.28 
8.879;0.70;-0.16;-0.86;0.35;-0.42;0.83;-188.00;-520.28;251.79;1.12;42.33;54.37;-11.27 
8.909;0.74;-0.14;-0.87;0.35;3.13;-0.63;-190.00;-517.41;250.79;1.15;42.42;54.40;-11.27 
8.939;0.73;-0.11;-0.84;0.70;1.39;0.49;-184.00;-522.20;254.79;1.12;42.56;54.50;-11.24 
8.969;0.72;-0.14;-0.86;0.77;-3.55;2.09;-187.00;-519.32;253.79;1.13;42.58;54.45;-11.26 
9.000;0.69;-0.15;-0.88;0.42;1.53;2.09;-188.00;-517.41;247.80;1.13;42.54;54.36;-11.31 
9.030;0.73;-0.16;-0.88;-0.42;5.29;-0.28;-185.00;-517.41;251.79;1.15;42.63;54.44;-11.30 
9.060;0.74;-0.13;-0.86;-0.21;3.20;-0.14;-184.00;-519.32;250.79;1.14;42.77;54.59;-11.27 
9.089;0.71;-0.12;-0.86;-0.21;-0.77;-0.28;-183.00;-523.16;252.79;1.12;42.84;54.63;-11.25 
9.118;0.70;-0.10;-0.88;0.00;0.70;0.00;-186.00;-519.32;248.80;1.13;42.89;54.60;-11.22 
9.148;0.72;-0.14;-0.86;0.14;2.30;-0.07;-186.00;-519.32;252.79;1.13;42.99;54.65;-11.21 
9.178;0.72;-0.14;-0.86;0.42;-0.83;0.63;-190.00;-518.37;250.79;1.13;43.06;54.68;-11.21 
9.208;0.71;-0.14;-0.90;0.00;-0.42;0.35;-185.00;-519.32;248.80;1.15;43.09;54.65;-11.23 
9.238;0.72;-0.14;-0.89;-0.28;0.63;0.14;-185.00;-523.16;251.79;1.15;43.14;54.66;-11.23 
9.268;0.72;-0.13;-0.86;-0.42;0.28;-0.21;-187.00;-516.45;250.79;1.13;43.19;54.66;-11.21 
9.298;0.70;-0.10;-0.87;-0.21;0.83;0.14;-187.00;-517.41;248.80;1.12;43.26;54.68;-11.19 
9.328;0.74;-0.14;-0.87;0.56;0.90;-0.42;-187.00;-521.24;251.79;1.15;43.34;54.72;-11.17 
9.358;0.71;-0.14;-0.87;-0.28;-0.21;0.70;-187.00;-517.41;249.79;1.13;43.40;54.74;-11.14 
9.388;0.72;-0.15;-0.86;-1.04;-0.35;0.35;-191.00;-518.37;246.80;1.13;43.45;54.73;-11.16 
9.418;0.70;-0.14;-0.87;-0.49;-0.14;-0.35;-188.00;-520.28;252.79;1.13;43.47;54.69;-11.15 
9.448;0.74;-0.15;-0.90;0.07;-1.60;-0.42;-189.00;-518.37;248.80;1.17;43.55;54.71;-11.11 
9.478;0.67;-0.11;-0.84;1.04;-6.26;1.67;-185.00;-517.41;249.79;1.08;43.52;54.58;-11.13 
9.509;0.71;-0.15;-0.88;-0.90;-1.53;-1.88;-187.00;-516.45;251.79;1.14;43.47;54.42;-11.12 
9.538;0.71;-0.14;-0.87;-0.56;3.20;-1.67;-189.00;-516.45;250.79;1.13;43.58;54.46;-11.07 
9.568;0.74;-0.12;-0.86;-0.90;-0.07;-0.77;-187.00;-515.49;249.79;1.14;43.71;54.53;-11.01 
9.599;0.72;-0.12;-0.85;0.21;-2.16;0.07;-187.00;-516.45;253.79;1.12;43.76;54.52;-10.96 
9.629;0.68;-0.13;-0.85;0.21;-4.17;0.28;-186.00;-515.49;253.79;1.10;43.75;54.39;-10.94 
