Time(s) acc_x(g) acc_y(g) acc_z(g) gyr_x(°/s) gyr_y(°/s) gyr_z(°/s) mag_x(G) mag_y(G) mag_z(G) SVM(g) yaw(°) pitch(°) roll(°)
0.000;-0.42;0.26;0.77;-0.97;-1.39;1.39;-26.00;-25.91;-375.69;0.91;142.95;-25.89;16.91 
0.030;-0.41;0.26;0.76;-0.90;-0.97;3.34;-21.00;-26.87;-376.69;0.90;142.88;-25.80;16.91 
0.060;-0.42;0.26;0.77;-0.90;0.97;2.43;-22.00;-27.83;-375.69;0.91;142.78;-25.75;16.96 
0.090;-0.41;0.26;0.79;-0.90;0.70;3.69;-20.00;-27.83;-373.69;0.93;142.68;-25.73;17.00 
0.120;-0.44;0.24;0.77;-0.63;1.53;2.57;-20.00;-27.83;-377.69;0.92;142.56;-25.71;17.04 
0.150;-0.39;0.26;0.74;-0.49;2.37;0.28;-18.00;-26.87;-374.69;0.88;142.49;-25.75;17.03 
0.180;-0.38;0.25;0.77;-0.49;2.37;1.53;-20.00;-25.91;-376.69;0.89;142.44;-25.77;17.03 
0.211;-0.40;0.26;0.78;-0.56;2.99;0.21;-18.00;-28.79;-374.69;0.91;142.38;-25.82;17.04 
0.241;-0.41;0.26;0.82;-0.77;0.77;1.67;-21.00;-23.03;-376.69;0.95;142.33;-25.84;17.05 
0.270;-0.43;0.25;0.79;-0.97;1.04;0.70;-20.00;-23.99;-376.69;0.93;142.27;-25.82;17.07 
0.301;-0.39;0.26;0.76;-1.18;2.02;1.18;-25.00;-23.99;-373.69;0.89;142.21;-25.83;17.07 
0.331;-0.41;0.26;0.78;-0.90;2.64;1.88;-19.00;-24.95;-376.69;0.92;142.13;-25.82;17.07 
0.361;-0.40;0.24;0.78;-1.32;1.95;1.53;-21.00;-23.99;-375.69;0.91;142.04;-25.84;17.08 
0.391;-0.42;0.25;0.79;-1.18;0.49;2.99;-19.00;-23.99;-373.69;0.93;141.96;-25.81;17.12 
0.421;-0.39;0.25;0.77;-1.88;-0.77;1.04;-23.00;-25.91;-374.69;0.90;141.89;-25.76;17.11 
0.451;-0.41;0.25;0.77;-1.60;-1.74;2.30;-21.00;-23.99;-375.69;0.91;141.82;-25.67;17.09 
0.481;-0.41;0.25;0.77;-1.81;-0.21;2.57;-23.00;-23.03;-374.69;0.91;141.74;-25.62;17.09 
0.511;-0.45;0.26;0.74;-1.88;-0.77;2.43;-21.00;-21.11;-372.69;0.90;141.64;-25.61;17.09 
0.541;-0.46;0.26;0.78;-1.67;-1.11;3.20;-22.00;-24.95;-372.69;0.94;141.54;-25.57;17.11 
0.571;-0.45;0.22;0.78;-1.25;-2.02;3.55;-20.00;-24.95;-375.69;0.93;141.44;-25.52;17.12 
0.602;-0.46;0.25;0.77;-2.43;-4.10;2.23;-21.00;-23.99;-376.69;0.93;141.37;-25.42;17.10 
0.632;-0.42;0.26;0.74;-2.30;-5.63;2.85;-22.00;-25.91;-374.69;0.89;141.32;-25.25;17.08 
0.662;-0.45;0.26;0.74;-1.53;-1.88;2.64;-25.00;-25.91;-378.69;0.90;141.25;-25.14;17.07 
0.692;-0.49;0.24;0.74;-1.81;0.90;1.46;-24.00;-24.95;-377.69;0.92;141.18;-25.15;17.07 
0.723;-0.48;0.29;0.75;-1.74;1.74;1.39;-20.00;-24.95;-373.69;0.94;141.11;-25.26;17.05 
0.752;-0.47;0.28;0.72;-3.76;-3.20;3.20;-23.00;-25.91;-373.69;0.90;141.01;-25.29;17.04 
0.782;-0.46;0.24;0.72;-2.85;-4.10;6.68;-24.00;-26.87;-376.69;0.89;140.88;-25.17;17.04 
0.813;-0.51;0.24;0.66;-3.06;1.60;4.10;-24.00;-26.87;-373.69;0.87;140.67;-25.14;17.06 
0.843;-0.48;0.22;0.69;-2.50;7.17;2.57;-26.00;-23.99;-367.70;0.87;140.48;-25.35;17.02 
0.873;-0.46;0.26;0.67;-3.48;9.25;2.23;-26.00;-23.03;-373.69;0.85;140.29;-25.62;16.98 
0.903;-0.47;0.26;0.70;-4.52;13.15;6.47;-28.00;-21.11;-370.69;0.88;139.99;-25.95;16.95 
0.933;-0.50;0.25;0.66;-4.87;13.91;9.95;-27.00;-19.19;-365.70;0.86;139.51;-26.36;16.95 
0.963;-0.50;0.22;0.67;-4.94;13.70;8.83;-25.00;-14.39;-366.70;0.86;138.98;-26.77;16.95 
0.993;-0.51;0.20;0.66;-4.59;13.98;5.77;-26.00;-13.43;-364.70;0.86;138.52;-27.18;16.93 
1.023;-0.50;0.20;0.66;-3.27;12.03;5.08;-28.00;-11.51;-364.70;0.85;138.12;-27.62;16.85 
1.052;-0.46;0.20;0.64;-3.13;8.49;9.11;-27.00;-1.92;-363.70;0.81;137.74;-27.96;16.87 
1.082;-0.47;0.24;0.60;-1.04;5.77;10.37;-26.00;-3.84;-359.70;0.80;137.34;-28.15;17.03 
1.113;-0.43;0.25;0.60;1.46;2.85;12.24;-25.00;-6.72;-359.70;0.78;136.89;-28.24;17.20 
1.143;-0.43;0.21;0.60;4.87;9.32;18.71;-28.00;0.00;-357.70;0.77;136.39;-28.28;17.55 
1.173;-0.46;0.25;0.61;0.49;14.40;16.00;-20.00;2.88;-357.70;0.80;135.68;-28.49;17.95 
1.203;-0.43;0.22;0.59;-5.84;13.63;7.37;-16.00;4.80;-360.70;0.76;135.05;-28.87;18.05 
1.233;-0.28;0.20;0.56;4.59;15.37;20.24;-21.00;7.68;-357.70;0.66;134.54;-29.12;18.25 
1.262;-0.24;0.18;0.50;9.74;27.83;25.74;-19.00;13.43;-354.71;0.58;133.66;-29.26;18.92 
1.291;-0.42;0.20;0.46;7.37;44.17;19.62;-16.00;16.31;-351.71;0.65;132.59;-29.95;19.43 
1.321;-0.43;0.20;0.46;19.06;73.95;13.43;-6.00;34.54;-346.71;0.66;131.35;-31.41;20.00 
1.350;-0.55;0.29;0.57;22.96;72.21;7.51;2.00;47.98;-335.72;0.84;130.05;-33.46;20.70 
1.379;-0.60;0.28;0.67;11.97;71.37;4.59;4.00;60.45;-330.73;0.94;128.80;-35.25;21.26 
1.409;-0.51;0.36;0.46;9.88;73.67;-7.37;7.00;72.92;-321.73;0.78;127.55;-37.15;21.47 
1.439;-0.58;0.37;0.45;-5.70;39.37;18.02;10.00;83.48;-315.74;0.82;126.24;-38.68;21.84 
1.469;-0.52;0.22;0.50;-18.71;68.17;7.79;6.00;94.03;-305.75;0.75;124.10;-40.23;21.77 
1.499;-0.54;0.29;0.54;-7.30;26.99;11.90;5.00;101.71;-292.76;0.82;122.46;-41.45;21.73 
1.529;-0.54;0.25;0.54;-30.12;17.74;35.76;7.00;107.47;-290.76;0.80;120.89;-41.73;21.73 
1.559;-0.63;0.19;0.30;-28.38;-16.35;22.19;7.00;109.39;-286.76;0.72;119.53;-41.13;21.92 
1.589;-0.36;0.14;0.56;-13.63;-37.36;35.48;5.00;110.35;-287.76;0.68;119.00;-40.63;21.67 
1.620;-0.39;0.02;0.49;-14.33;-96.97;31.44;9.00;104.59;-297.75;0.63;119.34;-38.43;22.10 
1.650;-0.23;0.49;0.58;-19.69;-102.54;17.25;12.00;89.24;-309.74;0.79;120.82;-35.60;22.12 
1.680;-0.27;0.19;0.56;-55.23;-128.83;33.60;10.00;79.64;-321.73;0.65;121.89;-32.07;22.05 
1.711;-0.20;0.06;0.78;-72.14;-109.63;-31.23;-7.00;49.90;-329.73;0.81;123.36;-28.23;20.54 
1.741;-0.56;0.18;0.94;-79.93;-142.12;-74.85;-27.00;32.62;-333.72;1.11;125.93;-25.33;17.66 
1.771;-0.66;0.31;0.76;-78.68;-250.50;-43.76;-50.00;-6.72;-338.72;1.05;129.77;-20.59;14.82 
1.801;-0.04;0.10;0.19;-90.30;-257.32;-39.23;-64.00;-24.95;-345.71;0.22;132.59;-13.48;12.12 
1.832;0.85;-0.37;5.30;156.80;144.21;-69.50;-90.00;-94.03;-351.71;5.38;134.66;-9.26;10.57 
1.862;-4.62;4.63;3.05;155.06;-174.54;134.89;-72.00;-75.80;-355.71;7.22;134.42;-15.25;19.13 
1.892;-0.06;0.60;1.14;-393.25;-978.92;63.37;-59.00;-162.16;-367.70;1.29;135.52;4.42;15.67 
1.923;-0.82;0.16;-0.17;-223.10;-510.19;149.70;-132.00;-301.29;-312.74;0.85;132.33;24.87;4.26 
1.953;-0.58;0.00;-0.13;6.75;-496.35;98.23;-181.00;-388.61;-217.82;0.59;123.95;41.52;-0.09 
1.983;-0.59;-0.29;-0.40;-74.50;-353.11;60.52;-200.00;-406.84;-159.87;0.77;115.42;53.62;-2.96 
2.013;-0.50;-0.22;-3.30;-139.97;-484.10;27.55;-215.00;-402.05;-112.91;3.34;106.56;64.99;-4.77 
2.043;0.79;-0.10;-1.06;16.97;93.22;-33.95;-234.00;-416.44;-56.95;1.33;104.32;68.12;-6.27 
2.072;1.76;-0.26;-0.39;-5.63;147.97;-25.95;-222.00;-432.75;-66.94;1.82;108.09;65.76;-4.82 
2.102;1.31;-0.32;0.34;-35.76;14.33;10.16;-224.00;-433.71;-75.94;1.39;110.32;63.11;-5.28 
2.133;0.94;-0.26;0.36;-7.17;-100.52;-35.48;-224.00;-446.19;-57.95;1.04;109.55;64.80;-5.19 
2.163;1.38;-0.06;0.15;-26.50;-137.88;-6.40;-221.00;-458.66;-48.96;1.39;106.98;68.24;-5.02 
2.193;0.86;0.00;-0.05;-28.80;-178.23;18.99;-225.00;-465.38;-8.99;0.86;102.37;72.93;-5.34 
2.223;0.91;-0.22;-0.19;-27.76;-175.72;25.39;-228.00;-465.38;20.98;0.96;95.94;77.45;-6.40 
2.253;1.33;-0.40;-0.42;-24.07;-156.87;31.17;-227.00;-462.50;43.96;1.45;88.70;80.89;-7.50 
2.283;0.72;-0.34;-0.37;-38.96;-157.36;9.18;-234.00;-456.74;74.94;0.88;81.97;81.45;-8.55 
2.313;0.86;-0.34;-0.67;-23.17;-169.88;-2.99;-235.00;-450.98;113.91;1.14;75.37;79.74;-8.86 
2.344;1.05;-0.26;-0.86;-12.45;-113.46;-4.66;-232.00;-447.14;130.89;1.38;69.69;76.48;-8.93 
2.373;0.77;-0.20;-0.84;-26.09;-95.65;-12.24;-231.00;-446.19;147.88;1.16;66.06;73.83;-8.63 
2.403;1.17;-0.23;-1.15;-3.48;-62.89;-7.79;-227.00;-439.47;159.87;1.66;63.00;71.22;-8.18 
2.434;0.56;-0.06;-0.62;3.13;62.75;-1.53;-229.00;-442.35;160.87;0.84;63.05;71.24;-8.44 
2.463;0.69;-0.10;-0.58;-9.18;10.78;-26.92;-222.00;-449.06;159.87;0.91;64.07;72.08;-7.89 
2.492;1.10;0.00;-0.74;19.76;30.82;-9.95;-221.00;-451.94;156.87;1.33;64.87;72.51;-7.52 
2.521;0.97;0.13;-0.52;11.20;39.51;-10.30;-222.00;-460.58;149.88;1.11;66.36;73.48;-7.30 
2.551;1.02;0.03;-0.45;0.00;32.14;12.45;-221.00;-461.54;143.88;1.12;67.57;74.46;-7.26 
2.581;0.95;-0.10;-0.48;9.74;-3.55;14.47;-222.00;-459.62;140.88;1.07;67.50;74.53;-7.78 
2.610;0.95;-0.06;-0.58;12.03;1.88;16.49;-229.00;-458.66;140.88;1.11;67.02;74.12;-8.32 
2.639;1.01;-0.17;-0.56;8.70;27.27;28.94;-227.00;-457.70;140.88;1.17;66.68;73.93;-9.09 
2.668;0.90;-0.33;-0.41;5.36;44.17;25.88;-238.00;-453.86;129.89;1.04;66.75;74.09;-10.07 
2.698;0.95;-0.48;-0.29;0.28;38.12;14.12;-239.00;-452.90;124.90;1.10;67.16;74.41;-10.98 
2.729;0.97;-0.50;-0.19;-7.30;15.30;-4.03;-239.00;-451.94;117.90;1.11;67.61;74.68;-11.51 
2.759;0.84;-0.32;-0.20;-13.01;-18.99;-13.29;-239.00;-455.78;125.90;0.92;67.56;74.70;-11.49 
2.789;0.98;-0.18;-0.45;-12.10;-44.45;-12.87;-233.00;-453.86;128.89;1.09;66.67;74.21;-11.16 
2.820;1.06;-0.16;-0.68;0.42;-33.53;-1.53;-235.00;-454.82;130.89;1.27;65.36;73.29;-10.90 
2.850;0.88;-0.23;-0.69;1.53;-5.98;-0.90;-231.00;-453.86;141.88;1.14;64.42;72.54;-11.05 
2.880;0.84;-0.27;-0.62;-0.70;18.99;-11.48;-232.00;-454.82;136.89;1.08;64.38;72.48;-11.06 
2.910;0.98;-0.21;-0.52;-3.06;34.78;-15.58;-231.00;-454.82;134.89;1.13;65.23;73.12;-10.82 
2.941;1.02;-0.14;-0.46;-4.80;31.86;-19.13;-225.00;-461.54;126.90;1.13;66.58;74.14;-10.36 
2.971;1.03;-0.10;-0.36;-3.41;21.98;-16.63;-225.00;-465.38;123.90;1.10;67.87;75.08;-9.81 
3.001;1.02;0.01;-0.34;-0.77;10.37;-7.23;-218.00;-466.34;125.90;1.08;68.76;75.71;-9.41 
3.032;1.05;-0.02;-0.36;2.57;0.97;5.29;-221.00;-469.21;123.90;1.11;69.04;75.89;-9.48 
3.062;1.01;-0.14;-0.34;3.41;-10.30;11.34;-223.00;-467.29;120.90;1.07;68.66;75.58;-9.81 
3.092;0.98;-0.22;-0.41;1.46;-17.95;11.13;-227.00;-462.50;122.90;1.08;67.81;74.94;-10.26 
3.122;0.97;-0.28;-0.50;-1.60;-18.30;5.77;-228.00;-461.54;128.89;1.13;66.77;74.18;-10.67 
3.152;0.91;-0.26;-0.55;-3.41;-12.87;-0.63;-227.00;-463.46;125.90;1.09;65.85;73.51;-10.92 
3.182;0.95;-0.20;-0.59;-2.37;-0.07;-4.52;-226.00;-461.54;128.89;1.14;65.42;73.20;-10.94 
3.212;0.96;-0.17;-0.52;0.28;11.97;-2.92;-221.00;-463.46;130.89;1.10;65.47;73.24;-10.89 
3.243;0.98;-0.14;-0.46;2.16;12.38;-0.56;-225.00;-462.50;125.90;1.09;65.73;73.42;-10.91 
3.273;1.01;-0.14;-0.41;1.11;7.72;0.35;-224.00;-466.34;127.89;1.10;65.97;73.57;-10.99 
3.303;1.02;-0.19;-0.39;-0.56;-1.46;-1.18;-223.00;-462.50;127.89;1.11;65.98;73.57;-11.05 
3.333;0.94;-0.16;-0.42;-1.88;-1.46;-1.25;-223.00;-464.42;129.89;1.04;65.85;73.46;-11.09 
3.363;0.98;-0.15;-0.43;-0.83;-4.94;0.63;-225.00;-462.50;129.89;1.08;65.65;73.31;-11.15 
3.393;0.99;-0.16;-0.47;-0.97;-7.23;1.32;-228.00;-462.50;129.89;1.11;65.29;73.04;-11.24 
3.423;0.94;-0.18;-0.46;-0.77;-6.19;0.56;-224.00;-459.62;132.89;1.06;64.87;72.72;-11.35 
3.454;0.97;-0.20;-0.51;-0.42;-1.46;-0.63;-226.00;-460.58;133.89;1.11;64.54;72.46;-11.45 
3.484;1.00;-0.19;-0.49;-1.11;3.62;-2.16;-227.00;-459.62;129.89;1.13;64.43;72.36;-11.50 
3.514;0.98;-0.16;-0.46;-0.63;4.03;-1.67;-228.00;-464.42;132.89;1.09;64.43;72.37;-11.50 
3.544;0.98;-0.17;-0.42;-0.77;1.81;-0.28;-226.00;-459.62;128.89;1.08;64.43;72.37;-11.54 
3.573;0.98;-0.18;-0.44;-0.49;-1.39;0.42;-225.00;-460.58;133.89;1.09;64.33;72.28;-11.61 
3.602;0.97;-0.16;-0.45;-0.70;-3.83;0.83;-230.00;-458.66;131.89;1.08;64.13;72.12;-11.69 
3.632;0.98;-0.18;-0.50;-0.42;-3.55;0.35;-225.00;-458.66;130.89;1.11;63.86;71.90;-11.79 
3.662;0.98;-0.17;-0.48;-0.70;-0.42;-0.42;-226.00;-461.54;132.89;1.10;63.63;71.72;-11.86 
3.692;0.97;-0.15;-0.47;-0.56;2.02;-0.83;-226.00;-460.58;134.89;1.09;63.51;71.62;-11.93 
3.722;1.00;-0.14;-0.42;-0.77;2.71;-0.77;-222.00;-459.62;130.89;1.09;63.43;71.55;-11.97 
3.753;0.97;-0.17;-0.45;-0.35;0.63;-0.07;-229.00;-463.46;130.89;1.08;63.37;71.50;-12.02 
3.783;0.99;-0.17;-0.45;0.00;-2.09;0.49;-226.00;-463.46;131.89;1.10;63.20;71.36;-12.10 
3.813;0.98;-0.15;-0.50;-0.70;-1.67;0.42;-227.00;-462.50;133.89;1.11;63.04;71.22;-12.17 
3.844;0.96;-0.18;-0.49;-0.70;-0.77;-1.11;-222.00;-464.42;135.89;1.09;62.89;71.09;-12.22 
3.874;0.98;-0.18;-0.46;-0.70;1.81;-0.14;-222.00;-465.38;133.89;1.10;62.81;71.03;-12.27 
3.904;1.00;-0.16;-0.46;-0.28;-0.56;0.14;-222.00;-462.50;132.89;1.11;62.70;70.93;-12.33 
3.934;0.96;-0.18;-0.46;-1.18;-2.85;-0.56;-224.00;-461.54;132.89;1.08;62.53;70.79;-12.37 
3.965;0.96;-0.16;-0.48;-0.14;-1.67;-0.07;-221.00;-462.50;132.89;1.09;62.34;70.63;-12.44 
3.994;0.96;-0.19;-0.45;-0.42;1.46;-0.28;-224.00;-462.50;133.89;1.08;62.20;70.51;-12.50 
4.024;0.98;-0.18;-0.44;-0.83;1.60;-1.25;-224.00;-462.50;134.89;1.09;62.15;70.47;-12.54 
4.055;1.01;-0.17;-0.46;-0.56;1.25;-0.49;-221.00;-462.50;133.89;1.12;62.11;70.42;-12.58 
4.085;0.94;-0.19;-0.48;-0.42;0.21;-0.28;-224.00;-463.46;131.89;1.07;62.01;70.34;-12.63 
4.115;0.98;-0.18;-0.46;-0.77;-0.83;-0.21;-222.00;-464.42;132.89;1.10;61.92;70.26;-12.69 
4.145;0.98;-0.16;-0.48;-0.42;-1.53;0.00;-226.00;-462.50;131.89;1.10;61.80;70.15;-12.72 
4.175;0.98;-0.19;-0.46;-0.49;-0.63;0.00;-225.00;-461.54;133.89;1.10;61.65;70.02;-12.77 
4.205;0.97;-0.17;-0.46;-0.56;0.14;-0.49;-223.00;-464.42;132.89;1.09;61.55;69.94;-12.82 
4.235;0.98;-0.17;-0.43;-0.77;1.39;-0.77;-225.00;-460.58;134.89;1.08;61.49;69.88;-12.86 
4.265;0.98;-0.15;-0.46;-0.42;1.39;-0.49;-224.00;-464.42;131.89;1.09;61.44;69.83;-12.90 
4.294;0.98;-0.15;-0.45;-0.28;-0.42;0.00;-223.00;-462.50;132.89;1.09;61.38;69.78;-12.94 
4.324;0.98;-0.16;-0.49;-0.49;-1.88;0.35;-226.00;-463.46;131.89;1.11;61.26;69.67;-13.01 
4.355;0.97;-0.17;-0.48;-0.49;-0.42;-0.07;-221.00;-464.42;132.89;1.10;61.17;69.58;-13.05 
4.385;0.98;-0.16;-0.49;-0.77;1.74;-0.70;-220.00;-462.50;132.89;1.11;61.09;69.51;-13.08 
4.415;0.99;-0.16;-0.44;-0.63;2.50;-0.14;-222.00;-459.62;133.89;1.10;61.10;69.51;-13.11 
4.445;0.98;-0.16;-0.46;-0.07;-0.35;0.07;-221.00;-463.46;136.89;1.09;61.07;69.48;-13.14 
4.475;0.98;-0.19;-0.46;-0.70;-3.76;0.07;-225.00;-460.58;135.89;1.10;60.92;69.34;-13.19 
4.505;0.95;-0.15;-0.48;0.07;-1.25;-0.14;-224.00;-460.58;136.89;1.07;60.75;69.19;-13.24 
4.535;0.96;-0.17;-0.49;-0.35;1.60;-0.49;-221.00;-459.62;136.89;1.09;60.66;69.10;-13.27 
4.566;0.98;-0.15;-0.49;-0.90;3.27;-1.11;-224.00;-461.54;133.89;1.11;60.69;69.12;-13.28 
4.595;0.99;-0.17;-0.46;-0.21;0.90;-0.07;-224.00;-463.46;134.89;1.10;60.71;69.13;-13.30 
4.624;0.98;-0.18;-0.46;-0.56;-0.49;-0.21;-222.00;-464.42;133.89;1.10;60.66;69.07;-13.33 
4.653;0.98;-0.17;-0.46;-0.63;-0.83;-0.28;-226.00;-460.58;133.89;1.10;60.60;69.01;-13.36 
4.682;0.97;-0.16;-0.47;-0.28;-1.18;0.07;-221.00;-461.54;134.89;1.09;60.50;68.92;-13.40 
4.712;0.98;-0.18;-0.48;-0.49;-0.42;-0.14;-223.00;-463.46;135.89;1.11;60.40;68.82;-13.45 
4.742;0.98;-0.17;-0.46;-0.77;0.21;-0.42;-223.00;-462.50;137.89;1.10;60.35;68.77;-13.46 
4.772;0.97;-0.15;-0.50;-0.56;1.11;-0.42;-220.00;-463.46;136.89;1.10;60.31;68.73;-13.47 
4.802;0.98;-0.18;-0.47;-0.70;1.74;-0.63;-224.00;-463.46;135.89;1.10;60.31;68.72;-13.49 
4.832;0.98;-0.18;-0.47;-0.63;0.49;-0.28;-222.00;-464.42;139.88;1.10;60.29;68.69;-13.51 
4.863;0.98;-0.17;-0.41;-0.07;-0.90;1.04;-221.00;-462.50;137.89;1.08;60.22;68.62;-13.53 
4.893;0.99;-0.18;-0.51;0.00;-0.49;-0.35;-224.00;-461.54;138.89;1.13;60.13;68.53;-13.58 
4.923;0.94;-0.16;-0.47;-0.70;-0.28;-0.49;-219.00;-463.46;137.89;1.06;60.07;68.47;-13.61 
4.954;0.98;-0.18;-0.49;-0.63;3.20;-0.35;-222.00;-461.54;133.89;1.11;60.05;68.44;-13.62 
4.984;0.95;-0.14;-0.45;-0.35;1.60;-0.42;-223.00;-463.46;134.89;1.06;60.06;68.45;-13.64 
5.014;0.99;-0.14;-0.45;-0.56;-2.64;0.28;-226.00;-462.50;134.89;1.10;60.03;68.41;-13.67 
5.043;0.97;-0.17;-0.47;-0.42;-2.92;0.21;-222.00;-461.54;136.89;1.09;59.88;68.26;-13.70 
5.072;0.96;-0.17;-0.48;-0.14;0.21;-0.21;-219.00;-458.66;135.89;1.09;59.77;68.15;-13.73 
5.102;0.98;-0.17;-0.44;-0.49;3.55;-0.90;-219.00;-465.38;135.89;1.09;59.78;68.15;-13.72 
5.132;0.95;-0.14;-0.47;-0.70;2.02;-0.70;-220.00;-465.38;133.89;1.07;59.85;68.20;-13.71 
5.163;0.97;-0.15;-0.49;-0.21;-0.42;-0.21;-219.00;-466.34;131.89;1.10;59.85;68.19;-13.71 
5.193;0.96;-0.16;-0.49;-0.49;-1.25;0.07;-221.00;-460.58;133.89;1.09;59.79;68.12;-13.72 
5.223;0.98;-0.18;-0.46;-0.42;-0.56;-0.07;-220.00;-460.58;136.89;1.10;59.75;68.07;-13.71 
5.253;0.96;-0.19;-0.48;-0.63;-0.56;-0.35;-222.00;-464.42;135.89;1.09;59.70;68.01;-13.72 
5.283;0.97;-0.18;-0.50;-0.63;0.21;-0.35;-221.00;-464.42;138.89;1.11;59.67;67.97;-13.73 
5.313;0.98;-0.18;-0.46;-0.70;0.77;-1.18;-221.00;-463.46;138.89;1.10;59.66;67.95;-13.72 
5.343;0.98;-0.17;-0.50;-0.63;-0.07;-1.11;-223.00;-461.54;137.89;1.11;59.65;67.93;-13.71 
5.374;0.96;-0.19;-0.50;-0.83;0.28;-1.18;-219.00;-464.42;137.89;1.10;59.64;67.90;-13.71 
5.404;0.97;-0.16;-0.50;-0.56;0.07;-0.28;-220.00;-462.50;136.89;1.10;59.63;67.89;-13.70 
5.434;0.98;-0.18;-0.46;-0.14;-0.49;0.00;-221.00;-465.38;137.89;1.10;59.60;67.84;-13.73 
5.464;0.98;-0.15;-0.48;-0.21;-1.32;-0.28;-217.00;-463.46;137.89;1.10;59.55;67.78;-13.73 
5.493;0.96;-0.18;-0.50;-0.56;-0.28;-0.70;-224.00;-465.38;137.89;1.10;59.52;67.74;-13.73 
5.522;0.99;-0.17;-0.47;-0.42;0.77;-1.74;-223.00;-462.50;138.89;1.11;59.50;67.70;-13.73 
5.552;0.95;-0.15;-0.45;-0.77;3.48;-0.77;-225.00;-463.46;137.89;1.06;59.57;67.74;-13.70 
5.582;0.96;-0.14;-0.47;-0.49;0.97;-0.97;-219.00;-462.50;135.89;1.08;59.60;67.77;-13.73 
5.612;1.00;-0.16;-0.47;-0.70;-2.85;-1.11;-221.00;-461.54;137.89;1.12;59.60;67.74;-13.69 
5.642;0.98;-0.14;-0.46;-0.42;-2.43;-0.35;-218.00;-464.42;138.89;1.09;59.51;67.64;-13.68 
5.673;0.93;-0.16;-0.48;-0.21;-0.90;-0.35;-222.00;-464.42;140.88;1.06;59.44;67.56;-13.69 
5.703;0.98;-0.14;-0.49;-0.35;2.09;-1.04;-220.00;-463.46;140.88;1.10;59.46;67.55;-13.69 
5.733;0.96;-0.15;-0.48;-0.56;2.43;-0.49;-219.00;-466.34;142.88;1.08;59.52;67.59;-13.68 
5.764;0.94;-0.14;-0.50;-0.14;1.74;-0.90;-217.00;-463.46;135.89;1.07;59.57;67.62;-13.67 
5.794;0.97;-0.14;-0.43;-0.63;1.39;-0.77;-221.00;-461.54;137.89;1.07;59.60;67.63;-13.67 
5.824;0.98;-0.18;-0.46;-0.63;-0.63;-0.56;-221.00;-464.42;138.89;1.10;59.61;67.63;-13.67 
5.854;0.99;-0.18;-0.46;-0.49;-1.60;-0.49;-220.00;-467.29;136.89;1.11;59.61;67.61;-13.66 
5.883;0.95;-0.19;-0.50;-0.42;-1.04;-0.56;-222.00;-463.46;136.89;1.09;59.56;67.54;-13.66 
5.912;0.95;-0.14;-0.50;-0.42;0.07;-0.49;-219.00;-466.34;138.89;1.08;59.54;67.50;-13.65 
5.941;0.98;-0.15;-0.50;-0.56;1.25;-0.63;-222.00;-464.42;137.89;1.11;59.55;67.49;-13.64 
5.972;0.98;-0.14;-0.46;-0.49;1.74;-0.83;-221.00;-464.42;141.88;1.09;59.58;67.50;-13.64 
6.002;0.99;-0.16;-0.50;-0.28;1.25;-0.83;-221.00;-462.50;136.89;1.12;59.61;67.51;-13.61 
6.032;0.99;-0.14;-0.45;-0.56;1.60;-0.49;-218.00;-464.42;141.88;1.10;59.65;67.52;-13.59 
6.063;0.97;-0.15;-0.49;0.14;0.49;0.14;-216.00;-462.50;137.89;1.10;59.66;67.52;-13.60 
6.093;0.98;-0.18;-0.51;-0.21;-1.46;-0.07;-219.00;-461.54;141.88;1.12;59.65;67.49;-13.61 
6.123;0.98;-0.16;-0.47;-0.63;0.14;-1.11;-219.00;-463.46;140.88;1.10;59.63;67.44;-13.60 
6.153;0.99;-0.16;-0.50;-0.70;1.25;-1.32;-219.00;-465.38;138.89;1.12;59.63;67.42;-13.59 
6.184;0.95;-0.15;-0.50;-0.90;2.57;-0.83;-221.00;-462.50;141.88;1.08;59.68;67.46;-13.56 
6.214;0.98;-0.16;-0.44;-0.21;-1.18;-0.77;-219.00;-463.46;139.88;1.09;59.72;67.47;-13.55 
6.243;0.99;-0.13;-0.50;-0.56;-4.38;-0.35;-219.00;-463.46;141.88;1.12;59.67;67.40;-13.53 
6.273;0.98;-0.14;-0.48;-0.49;-3.34;0.07;-218.00;-464.42;141.88;1.10;59.55;67.27;-13.54 
6.303;0.96;-0.15;-0.51;-0.07;-0.90;-0.07;-218.00;-466.34;141.88;1.10;59.48;67.18;-13.56 
6.333;0.97;-0.14;-0.51;-0.14;1.60;0.14;-221.00;-465.38;139.88;1.10;59.46;67.14;-13.58 
6.363;0.98;-0.15;-0.50;-0.14;3.06;-0.49;-222.00;-466.34;137.89;1.11;59.50;67.16;-13.60 
6.393;0.98;-0.18;-0.50;-0.49;3.06;-0.83;-218.00;-466.34;141.88;1.11;59.57;67.21;-13.58 
6.423;0.96;-0.15;-0.44;-0.42;1.39;-0.77;-218.00;-465.38;138.89;1.07;59.65;67.27;-13.55 
6.453;1.00;-0.14;-0.50;-0.83;-0.83;-0.49;-216.00;-468.25;141.88;1.13;59.67;67.27;-13.54 
6.484;0.98;-0.15;-0.51;-0.49;-1.53;-0.42;-216.00;-464.42;140.88;1.11;59.64;67.21;-13.52 
6.514;0.98;-0.16;-0.50;0.00;-0.56;0.00;-220.00;-463.46;141.88;1.11;59.61;67.16;-13.51 
6.544;0.95;-0.12;-0.47;-0.28;1.32;-0.35;-218.00;-467.29;141.88;1.07;59.63;67.16;-13.50 
6.574;0.98;-0.17;-0.49;-0.35;2.23;-0.70;-218.00;-464.42;138.89;1.11;59.69;67.19;-13.49 
6.603;0.98;-0.16;-0.47;-0.77;1.81;-0.49;-218.00;-469.21;138.89;1.10;59.76;67.24;-13.48 
6.633;0.96;-0.14;-0.45;-0.49;0.42;-0.56;-217.00;-467.29;139.88;1.07;59.80;67.26;-13.46 
6.663;0.98;-0.14;-0.50;-0.35;-0.42;-0.28;-219.00;-466.34;136.89;1.11;59.80;67.24;-13.45 
6.693;0.99;-0.15;-0.50;-0.42;0.07;-0.07;-218.00;-464.42;139.88;1.12;59.83;67.24;-13.44 
6.723;0.98;-0.14;-0.48;-0.21;0.28;0.00;-220.00;-465.38;135.89;1.10;59.82;67.22;-13.43 
6.753;0.97;-0.14;-0.51;-0.28;-0.07;-0.07;-219.00;-466.34;137.89;1.10;59.80;67.18;-13.45 
6.784;1.00;-0.15;-0.50;-0.42;1.04;-0.35;-218.00;-468.25;140.88;1.13;59.84;67.19;-13.42 
6.814;0.98;-0.14;-0.50;-0.35;2.23;-0.77;-216.00;-463.46;140.88;1.11;59.88;67.20;-13.42 
6.844;0.95;-0.13;-0.47;-0.56;3.34;-0.49;-218.00;-468.25;135.89;1.07;59.98;67.28;-13.39 
6.874;0.98;-0.15;-0.47;-0.07;-0.42;0.63;-216.00;-467.29;137.89;1.10;60.04;67.32;-13.41 
6.904;0.99;-0.14;-0.48;-0.63;-4.17;-0.21;-219.00;-466.34;139.88;1.11;60.00;67.26;-13.41 
6.933;0.98;-0.16;-0.50;-0.07;-2.09;0.07;-216.00;-466.34;140.88;1.11;59.92;67.15;-13.41 
6.962;0.96;-0.14;-0.50;-0.14;2.57;-0.14;-217.00;-463.46;138.89;1.09;59.92;67.13;-13.41 
6.992;0.97;-0.15;-0.50;-0.14;5.22;-0.70;-215.00;-464.42;136.89;1.10;60.04;67.22;-13.40 
7.022;0.98;-0.17;-0.49;-0.14;2.43;-0.28;-217.00;-463.46;135.89;1.11;60.16;67.33;-13.38 
7.052;0.97;-0.14;-0.47;-0.07;0.21;0.07;-217.00;-467.29;133.89;1.09;60.22;67.36;-13.39 
7.083;0.94;-0.14;-0.47;-0.21;-0.42;0.07;-217.00;-466.34;138.89;1.06;60.22;67.33;-13.39 
7.113;0.96;-0.13;-0.52;-0.56;0.63;-0.07;-216.00;-466.34;137.89;1.10;60.21;67.30;-13.39 
7.143;1.00;-0.16;-0.50;-0.35;0.83;-0.28;-217.00;-466.34;140.88;1.13;60.23;67.30;-13.39 
7.173;0.97;-0.16;-0.48;-0.35;1.53;0.00;-216.00;-467.29;135.89;1.09;60.27;67.32;-13.38 
7.202;0.97;-0.16;-0.48;-0.21;1.39;-0.28;-212.00;-469.21;139.88;1.09;60.32;67.34;-13.36 
7.231;0.96;-0.14;-0.49;-0.42;1.60;-0.21;-217.00;-463.46;138.89;1.09;60.37;67.37;-13.35 
7.261;0.98;-0.14;-0.51;-0.28;1.46;0.00;-218.00;-465.38;138.89;1.11;60.43;67.40;-13.35 
7.291;0.98;-0.14;-0.46;-0.14;0.97;-0.07;-216.00;-466.34;139.88;1.09;60.47;67.42;-13.34 
7.321;0.97;-0.13;-0.48;-0.21;0.35;-0.35;-217.00;-467.29;139.88;1.09;60.49;67.42;-13.34 
7.351;0.96;-0.15;-0.49;-0.28;1.18;0.21;-217.00;-466.34;140.88;1.09;60.54;67.45;-13.34 
7.382;0.96;-0.14;-0.47;-0.21;0.97;0.00;-217.00;-466.34;133.89;1.08;60.59;67.47;-13.34 
7.412;0.98;-0.14;-0.47;-0.42;-0.07;-0.42;-216.00;-465.38;136.89;1.10;60.61;67.47;-13.35 
7.442;0.98;-0.15;-0.50;-0.49;1.25;-0.14;-220.00;-467.29;137.89;1.11;60.66;67.50;-13.33 
7.472;0.96;-0.15;-0.47;-0.07;0.35;-0.49;-220.00;-466.34;135.89;1.08;60.68;67.49;-13.33 
7.502;0.98;-0.14;-0.47;-0.83;3.20;0.00;-214.00;-466.34;137.89;1.10;60.76;67.55;-13.31 
7.531;0.91;-0.21;-0.44;-0.28;0.28;0.28;-218.00;-468.25;138.89;1.03;60.81;67.58;-13.30 
7.561;1.00;-0.14;-0.49;-0.77;-4.59;0.14;-215.00;-469.21;138.89;1.12;60.78;67.53;-13.31 
7.592;0.98;-0.15;-0.51;-0.14;-3.27;0.07;-218.00;-464.42;139.88;1.11;60.68;67.40;-13.30 
7.622;0.98;-0.15;-0.52;-0.07;1.46;0.07;-216.00;-464.42;138.89;1.12;60.65;67.34;-13.29 
7.652;0.98;-0.17;-0.50;-0.70;4.94;-0.42;-219.00;-467.29;141.88;1.11;60.73;67.40;-13.28 
7.683;1.00;-0.15;-0.46;-0.49;2.43;-0.28;-217.00;-468.25;139.88;1.11;60.87;67.51;-13.26 
7.713;0.99;-0.16;-0.46;-0.07;-1.95;0.21;-216.00;-464.42;138.89;1.10;60.90;67.52;-13.25 
7.743;0.98;-0.14;-0.50;-0.42;-1.60;-0.49;-219.00;-469.21;141.88;1.11;60.89;67.48;-13.24 
7.773;0.95;-0.16;-0.47;-0.42;0.28;-0.14;-214.00;-468.25;142.88;1.07;60.89;67.45;-13.23 
7.803;0.95;-0.14;-0.50;-0.49;0.56;-0.21;-218.00;-467.29;140.88;1.08;60.91;67.44;-13.20 
7.833;0.95;-0.14;-0.48;-0.49;0.35;0.00;-215.00;-471.13;140.88;1.07;60.94;67.45;-13.20 
7.862;0.98;-0.14;-0.50;-0.35;0.00;-0.07;-213.00;-468.25;140.88;1.11;60.98;67.47;-13.18 
7.893;0.99;-0.16;-0.47;-0.49;0.07;-0.42;-218.00;-467.29;133.89;1.11;61.00;67.46;-13.17 
7.923;0.96;-0.14;-0.54;-0.49;1.04;-0.21;-217.00;-466.34;140.88;1.11;61.04;67.47;-13.14 
7.953;0.97;-0.17;-0.48;-0.35;0.83;-0.35;-214.00;-465.38;134.89;1.10;61.08;67.49;-13.12 
7.983;0.97;-0.13;-0.50;-0.77;0.21;-0.42;-221.00;-467.29;139.88;1.10;61.12;67.50;-13.11 
8.013;0.95;-0.14;-0.47;-0.42;-0.77;-0.21;-215.00;-464.42;138.89;1.07;61.13;67.49;-13.09 
8.043;0.98;-0.17;-0.49;-0.49;-0.21;-0.28;-214.00;-466.34;137.89;1.11;61.12;67.45;-13.08 
8.073;0.98;-0.14;-0.50;-0.42;0.28;-0.28;-215.00;-466.34;138.89;1.11;61.15;67.45;-13.07 
8.104;0.98;-0.13;-0.48;-0.35;-0.35;0.07;-216.00;-468.25;139.88;1.10;61.17;67.44;-13.06 
8.134;0.99;-0.14;-0.51;-0.21;-0.56;-0.49;-217.00;-464.42;141.88;1.12;61.17;67.41;-13.05 
8.163;0.96;-0.15;-0.50;-0.97;-0.07;-0.90;-213.00;-467.29;140.88;1.09;61.22;67.43;-13.03 
8.193;0.98;-0.15;-0.51;-0.42;0.83;-0.70;-215.00;-467.29;142.88;1.11;61.24;67.42;-13.00 
8.223;0.95;-0.15;-0.46;-0.97;2.64;-0.63;-216.00;-467.29;141.88;1.07;61.31;67.47;-12.97 
8.253;0.98;-0.12;-0.46;-0.56;-1.11;-0.70;-217.00;-470.17;142.88;1.09;61.38;67.50;-12.95 
8.283;1.05;-0.12;-0.47;-0.70;-4.10;-0.63;-218.00;-467.29;138.89;1.16;61.37;67.46;-12.90 
8.313;0.98;-0.13;-0.50;-0.14;-3.06;-0.49;-215.00;-465.38;142.88;1.11;61.31;67.34;-12.87 
8.343;0.96;-0.14;-0.53;-0.07;0.63;0.21;-218.00;-468.25;143.88;1.11;61.29;67.30;-12.86 
8.373;0.96;-0.15;-0.50;-0.35;4.03;-0.28;-218.00;-463.46;140.88;1.09;61.36;67.34;-12.84 
8.404;0.98;-0.14;-0.49;-0.21;2.57;-0.56;-215.00;-467.29;140.88;1.10;61.47;67.42;-12.81 
8.434;0.97;-0.14;-0.46;-0.42;0.77;-0.14;-216.00;-468.25;143.88;1.08;61.54;67.47;-12.79 
8.464;0.97;-0.14;-0.50;-0.28;-0.28;-0.14;-214.00;-466.34;140.88;1.10;61.58;67.48;-12.77 
8.494;0.96;-0.14;-0.50;-0.28;-0.21;0.00;-216.00;-472.09;143.88;1.09;61.61;67.47;-12.75 
8.524;1.02;-0.14;-0.49;-0.49;-0.14;-0.14;-220.00;-465.38;145.88;1.14;61.62;67.46;-12.74 
8.554;0.95;-0.14;-0.51;-0.42;0.77;-0.28;-217.00;-465.38;145.88;1.09;61.66;67.46;-12.71 
8.584;0.97;-0.13;-0.50;0.07;1.46;0.35;-215.00;-465.38;142.88;1.10;61.69;67.46;-12.71 
8.614;0.97;-0.16;-0.51;-0.14;2.43;-0.42;-219.00;-465.38;141.88;1.11;61.76;67.50;-12.69 
8.644;0.98;-0.15;-0.48;-0.07;2.71;0.14;-218.00;-466.34;144.88;1.10;61.83;67.54;-12.68 
8.673;0.94;-0.11;-0.47;0.00;2.16;0.07;-216.00;-466.34;141.88;1.06;61.90;67.60;-12.67 
8.704;0.97;-0.13;-0.50;-0.35;1.46;0.07;-219.00;-465.38;143.88;1.10;61.96;67.63;-12.68 
8.734;0.97;-0.13;-0.46;0.00;0.83;0.00;-221.00;-463.46;143.88;1.08;62.01;67.65;-12.66 
8.764;0.98;-0.17;-0.51;0.14;1.32;0.14;-219.00;-466.34;141.88;1.12;62.05;67.66;-12.65 
8.794;0.97;-0.14;-0.50;-0.21;2.50;0.35;-221.00;-464.42;142.88;1.10;62.10;67.68;-12.65 
8.823;0.98;-0.14;-0.46;0.21;2.37;0.07;-215.00;-468.25;141.88;1.09;62.17;67.73;-12.65 
8.853;0.98;-0.16;-0.48;0.28;0.90;0.42;-216.00;-466.34;136.89;1.10;62.24;67.78;-12.65 
8.883;0.97;-0.14;-0.51;-0.28;1.53;-0.56;-214.00;-466.34;140.88;1.10;62.30;67.82;-12.66 
8.913;0.98;-0.12;-0.50;-0.21;1.74;-0.49;-215.00;-467.29;136.89;1.11;62.34;67.83;-12.64 
8.943;0.98;-0.14;-0.47;-0.63;4.10;0.00;-215.00;-468.25;134.89;1.10;62.44;67.91;-12.62 
8.973;0.95;-0.13;-0.44;0.00;1.39;-0.14;-212.00;-467.29;137.89;1.05;62.55;68.00;-12.61 
9.004;1.01;-0.15;-0.46;-0.63;-3.20;0.42;-217.00;-466.34;134.89;1.12;62.55;67.97;-12.60 
9.034;0.98;-0.15;-0.51;0.07;-2.71;0.49;-216.00;-467.29;140.88;1.11;62.49;67.87;-12.61 
9.063;0.96;-0.14;-0.53;0.21;3.13;0.14;-219.00;-469.21;137.89;1.11;62.48;67.83;-12.61 
9.092;1.00;-0.16;-0.48;0.14;6.47;-0.14;-215.00;-466.34;137.89;1.12;62.59;67.92;-12.61 
9.122;1.01;-0.14;-0.46;-0.07;4.80;-0.42;-216.00;-467.29;139.88;1.12;62.76;68.09;-12.60 
9.152;0.97;-0.15;-0.43;0.21;0.70;0.70;-216.00;-469.21;139.88;1.07;62.84;68.15;-12.59 
9.182;0.97;-0.18;-0.48;-0.35;-0.35;0.56;-215.00;-469.21;136.89;1.10;62.87;68.15;-12.58 
9.213;0.98;-0.14;-0.47;-0.07;-0.49;0.70;-215.00;-466.34;137.89;1.10;62.85;68.10;-12.60 
9.243;1.02;-0.14;-0.51;0.28;-0.77;0.90;-215.00;-469.21;137.89;1.15;62.83;68.06;-12.61 
9.272;1.02;-0.15;-0.56;1.04;-0.83;0.49;-215.00;-468.25;135.89;1.17;62.81;68.01;-12.63 
9.302;1.02;-0.14;-0.49;2.85;11.13;3.76;-219.00;-469.21;138.89;1.14;62.87;68.04;-12.69 
9.331;0.90;-0.12;-0.42;0.28;11.97;2.16;-214.00;-468.25;132.89;1.00;63.05;68.26;-12.78 
9.361;0.98;-0.18;-0.40;1.46;1.95;2.37;-218.00;-468.25;134.89;1.07;63.21;68.43;-12.83 
9.391;1.02;-0.17;-0.39;-0.14;-6.33;2.30;-217.00;-467.29;132.89;1.11;63.16;68.37;-12.91 
9.421;0.97;-0.12;-0.44;-2.16;-14.26;1.11;-218.00;-465.38;134.89;1.07;62.95;68.12;-12.93 
9.451;0.96;-0.18;-0.48;-0.49;-21.50;4.24;-216.00;-464.42;137.89;1.09;62.55;67.67;-12.97 
