Time(s) acc_x(g) acc_y(g) acc_z(g) gyr_x(°/s) gyr_y(°/s) gyr_z(°/s) mag_x(G) mag_y(G) mag_z(G) SVM(g) yaw(°) pitch(°) roll(°)
0.000;-0.23;0.30;0.80;-1.67;-4.10;0.90;-6.00;-79.64;-397.67;0.88;135.55;-11.95;19.84 
0.030;-0.23;0.30;0.82;-1.25;-2.57;2.99;-9.00;-80.60;-400.67;0.90;135.57;-11.83;19.83 
0.060;-0.23;0.26;0.81;-0.90;0.70;3.48;-10.00;-83.48;-395.67;0.88;135.53;-11.75;19.83 
0.090;-0.23;0.30;0.82;-1.25;1.74;5.01;-11.00;-80.60;-396.67;0.90;135.44;-11.75;19.84 
0.120;-0.22;0.26;0.82;-1.60;-1.11;6.89;-7.00;-80.60;-394.67;0.89;135.30;-11.68;19.84 
0.150;-0.26;0.26;0.82;-1.74;-1.39;5.01;-10.00;-78.68;-399.67;0.90;135.17;-11.56;19.81 
0.179;-0.26;0.29;0.84;-1.81;0.83;3.83;-8.00;-77.72;-395.67;0.93;135.09;-11.52;19.77 
0.210;-0.25;0.26;0.83;-1.39;0.14;3.69;-7.00;-79.64;-396.67;0.90;135.01;-11.49;19.73 
0.240;-0.22;0.27;0.80;-1.18;0.70;3.20;-8.00;-79.64;-394.67;0.87;134.95;-11.47;19.72 
0.270;-0.25;0.23;0.82;-0.83;0.14;3.13;-11.00;-82.52;-395.67;0.89;134.90;-11.47;19.72 
0.300;-0.26;0.26;0.83;-1.53;1.67;1.32;-9.00;-79.64;-395.67;0.91;134.87;-11.50;19.70 
0.330;-0.26;0.28;0.82;-1.53;1.74;3.55;-6.00;-76.76;-395.67;0.90;134.84;-11.54;19.69 
0.359;-0.26;0.26;0.86;-1.67;0.35;4.03;-9.00;-79.64;-393.67;0.94;134.77;-11.56;19.66 
0.389;-0.26;0.26;0.83;-1.74;-2.50;4.24;-4.00;-78.68;-395.67;0.91;134.70;-11.50;19.64 
0.419;-0.29;0.27;0.80;-1.04;-1.81;4.03;-9.00;-78.68;-397.67;0.89;134.64;-11.41;19.63 
0.449;-0.30;0.28;0.82;-1.11;2.09;3.27;-5.00;-81.56;-394.67;0.92;134.58;-11.42;19.64 
0.479;-0.23;0.26;0.78;-2.50;3.06;3.06;-9.00;-79.64;-393.67;0.85;134.53;-11.51;19.61 
0.509;-0.26;0.26;0.82;-0.77;4.80;3.48;-11.00;-78.68;-396.67;0.90;134.43;-11.60;19.61 
0.539;-0.29;0.26;0.78;0.07;7.30;0.63;-11.00;-76.76;-394.67;0.87;134.39;-11.83;19.62 
0.569;-0.30;0.26;0.78;-0.21;12.17;-1.39;-5.00;-74.84;-391.68;0.88;134.38;-12.14;19.64 
0.599;-0.31;0.29;0.80;-1.74;13.43;-1.88;-7.00;-73.88;-392.68;0.91;134.38;-12.56;19.61 
0.629;-0.28;0.29;0.82;-1.81;14.12;-1.46;-11.00;-70.05;-392.68;0.91;134.39;-13.06;19.58 
0.659;-0.33;0.30;0.78;-1.74;8.07;2.30;-9.00;-70.05;-390.68;0.90;134.33;-13.43;19.57 
0.689;-0.35;0.26;0.78;-1.39;3.97;4.73;-10.00;-65.25;-390.68;0.89;134.23;-13.60;19.58 
0.720;-0.33;0.26;0.70;-2.23;12.80;-0.90;-9.00;-65.25;-391.68;0.82;134.14;-13.90;19.59 
0.749;-0.18;0.27;0.82;-2.50;19.55;-0.28;-9.00;-60.45;-390.68;0.88;134.06;-14.48;19.48 
0.779;-0.35;0.30;0.78;-3.97;17.32;4.31;-12.00;-57.57;-389.68;0.91;133.86;-15.00;19.43 
0.810;-0.37;0.22;0.73;-4.80;8.70;1.46;-10.00;-51.82;-386.68;0.85;133.65;-15.43;19.32 
0.840;-0.38;0.24;0.74;-1.60;12.66;-3.06;-15.00;-49.90;-385.68;0.87;133.60;-15.82;19.19 
0.870;-0.26;0.25;0.74;0.63;15.72;-5.08;-15.00;-47.98;-383.68;0.82;133.64;-16.33;19.13 
0.900;-0.33;0.26;0.72;2.16;12.03;0.70;-12.00;-46.06;-380.69;0.83;133.65;-16.76;19.19 
0.930;-0.38;0.23;0.68;2.78;11.83;2.85;-11.00;-42.22;-382.68;0.81;133.55;-17.18;19.33 
0.960;-0.32;0.26;0.66;1.88;11.55;2.64;-11.00;-41.26;-380.69;0.78;133.46;-17.54;19.43 
0.990;-0.31;0.30;0.61;0.77;10.23;2.71;-13.00;-41.26;-378.69;0.75;133.36;-17.85;19.57 
1.020;-0.34;0.24;0.62;4.45;15.51;7.58;-13.00;-34.54;-379.69;0.75;133.18;-18.19;19.72 
1.049;-0.31;0.18;0.62;1.88;16.83;9.25;-9.00;-30.71;-377.69;0.72;132.81;-18.65;19.95 
1.079;-0.30;0.20;0.62;-3.06;23.72;1.04;-10.00;-24.95;-376.69;0.72;132.51;-19.21;19.91 
1.110;-0.31;0.38;0.63;4.45;36.45;5.50;-8.00;-18.23;-374.69;0.80;132.15;-20.03;20.01 
1.140;-0.37;0.34;0.74;4.17;34.02;17.18;-5.00;-7.68;-373.69;0.89;131.47;-21.01;20.48 
1.170;-0.43;0.20;0.74;-3.41;11.34;22.54;-5.00;-5.76;-370.69;0.88;130.73;-21.50;20.73 
1.200;-0.47;0.24;0.59;3.20;18.09;7.37;-2.00;0.96;-367.70;0.79;130.10;-21.86;20.81 
1.231;-0.47;0.35;0.50;10.16;24.42;12.38;-3.00;3.84;-366.70;0.77;129.76;-22.51;21.11 
1.260;-0.41;0.30;0.53;6.05;49.60;19.76;5.00;17.27;-360.70;0.73;128.86;-23.45;21.66 
1.290;-0.48;0.26;0.55;0.28;47.79;18.09;7.00;26.87;-357.70;0.77;127.63;-24.78;22.03 
1.321;-0.48;0.10;0.43;1.46;51.20;15.65;9.00;35.50;-354.71;0.65;126.31;-26.07;22.25 
1.351;-0.39;0.34;0.39;5.77;56.83;6.68;12.00;47.02;-346.71;0.65;125.14;-27.69;22.45 
1.381;-0.47;0.41;0.34;0.83;50.92;24.83;15.00;60.45;-338.72;0.71;123.84;-29.16;22.92 
1.411;-0.43;0.10;0.56;-13.91;54.68;41.25;18.00;74.84;-326.73;0.71;121.67;-30.42;23.16 
1.441;-0.33;0.13;0.75;-9.60;-27.48;20.45;23.00;75.80;-324.73;0.83;120.50;-30.03;23.34 
1.471;0.00;0.27;0.56;-19.62;-61.43;42.64;19.00;78.68;-326.73;0.62;120.76;-28.08;23.49 
1.501;-0.46;0.08;0.75;-23.30;-77.63;64.90;25.00;70.05;-333.72;0.88;119.68;-25.81;24.02 
1.532;-0.23;0.01;0.71;-64.97;-118.96;9.60;25.00;56.61;-335.72;0.75;120.00;-22.64;23.26 
1.562;-0.26;0.13;0.78;-91.41;-127.37;-12.73;4.00;40.30;-345.71;0.83;121.13;-19.89;20.97 
1.592;-0.63;0.20;1.21;-107.20;-177.11;-28.59;-18.00;15.35;-347.71;1.38;122.91;-16.04;18.00 
1.622;-0.69;0.20;0.97;-124.17;-265.60;-23.65;-55.00;-47.02;-353.71;1.21;125.34;-9.85;14.62 
1.651;-0.50;-0.17;0.48;-123.48;-320.90;-42.92;-84.00;-95.95;-353.71;0.71;127.44;-1.62;10.81 
1.681;0.00;0.22;0.23;-112.21;-354.57;-75.13;-111.00;-158.32;-339.72;0.32;129.60;7.76;7.13 
1.710;6.42;-0.97;5.90;155.48;161.11;-138.71;-126.00;-202.46;-322.73;8.77;132.73;12.98;6.17 
1.740;-1.43;3.38;2.74;202.99;-329.88;43.20;-101.00;-197.66;-330.73;4.58;131.91;8.82;16.99 
1.770;-0.86;0.54;1.68;-332.59;-590.82;208.90;-100.00;-304.17;-331.73;1.96;129.16;23.52;12.18 
1.800;-1.74;0.35;0.26;-132.03;-563.34;182.05;-159.00;-365.58;-257.79;1.79;121.12;39.04;3.09 
1.831;-1.35;0.08;0.30;-153.39;-446.82;33.18;-192.00;-414.52;-183.85;1.39;112.47;54.21;-1.52 
1.861;-0.43;-0.10;-0.06;-120.77;-425.74;-28.17;-210.00;-437.55;-104.91;0.45;105.46;66.35;-4.08 
1.891;2.87;-0.08;-1.58;-40.97;-598.89;52.87;-224.00;-439.47;6.00;3.28;93.41;80.00;-4.96 
1.920;1.30;-0.21;-1.82;-31.51;-380.45;115.55;-227.00;-418.36;70.94;2.25;75.66;79.06;-8.13 
1.950;-0.26;-0.26;-0.77;-93.98;-326.54;62.82;-233.00;-391.49;126.90;0.85;63.46;68.51;-9.83 
1.980;0.11;-0.80;-2.27;-3.55;-326.89;73.81;-229.00;-356.95;154.87;2.41;53.37;57.80;-11.62 
2.010;-0.58;-0.52;-1.64;-31.17;-14.96;-13.57;-225.00;-321.45;174.86;1.82;48.79;50.85;-12.68 
2.040;-0.26;-0.27;-1.21;-2.71;89.60;-96.07;-217.00;-333.92;179.85;1.27;50.60;52.52;-11.07 
2.070;0.54;-0.10;-0.94;-11.83;87.93;-93.29;-211.00;-365.58;180.85;1.09;54.61;55.66;-8.58 
2.099;0.81;0.10;-0.70;-18.50;83.69;-7.86;-208.00;-390.53;179.85;1.08;57.48;58.37;-6.94 
2.129;1.00;-0.02;-0.52;11.34;89.32;-12.10;-206.00;-409.72;180.85;1.13;59.63;61.34;-6.56 
2.158;0.81;-0.22;-0.62;23.30;-29.43;-14.89;-208.00;-418.36;170.86;1.04;61.20;62.67;-6.55 
2.188;0.56;-0.26;-0.86;-17.74;-45.70;-0.42;-207.00;-417.40;172.86;1.06;60.59;61.40;-6.55 
2.219;0.46;-0.26;-1.09;-13.36;6.26;-15.86;-206.00;-411.64;175.85;1.21;59.81;60.45;-6.41 
2.248;0.70;-0.12;-1.09;-2.85;51.34;-36.10;-197.00;-420.28;172.86;1.30;61.03;61.24;-5.57 
2.278;0.97;0.02;-0.96;5.91;72.28;-21.77;-197.00;-431.79;165.86;1.36;63.09;63.09;-4.81 
2.307;0.98;0.06;-0.65;14.54;76.24;-2.92;-195.00;-441.39;156.87;1.18;65.37;65.48;-4.49 
2.336;0.94;-0.05;-0.51;3.62;61.15;9.74;-198.00;-442.35;152.87;1.07;66.96;67.56;-4.69 
2.366;0.96;-0.21;-0.48;7.72;43.83;1.11;-199.00;-448.10;143.88;1.09;68.13;69.26;-4.98 
2.396;0.94;-0.21;-0.49;1.67;24.42;-1.04;-202.00;-449.06;137.89;1.08;68.94;70.29;-5.17 
2.427;0.94;-0.07;-0.58;-5.08;18.99;-3.27;-199.00;-450.98;132.89;1.11;69.40;70.89;-5.23 
2.457;0.90;0.00;-0.67;5.22;28.38;-0.42;-204.00;-453.86;128.89;1.12;70.05;71.57;-5.13 
2.487;0.90;-0.02;-0.64;11.62;36.80;-3.48;-201.00;-458.66;127.89;1.10;70.97;72.59;-5.20 
2.518;0.96;-0.07;-0.68;21.15;48.07;7.03;-202.00;-458.66;123.90;1.18;72.08;73.78;-5.38 
2.548;0.95;-0.05;-0.62;15.79;57.53;4.80;-211.00;-461.54;107.91;1.14;73.11;75.02;-5.73 
2.578;0.96;-0.06;-0.54;24.77;72.49;9.88;-207.00;-458.66;100.92;1.10;74.41;76.56;-6.07 
2.608;0.95;-0.10;-0.45;26.99;77.63;14.89;-217.00;-465.38;83.93;1.06;75.85;78.22;-6.60 
2.639;1.02;-0.16;-0.38;24.63;78.75;22.12;-215.00;-467.29;70.94;1.10;77.27;79.71;-7.24 
2.669;0.95;-0.24;-0.29;26.43;80.21;26.92;-222.00;-465.38;47.96;1.02;78.45;80.57;-8.15 
2.699;1.04;-0.26;-0.27;21.57;75.27;18.92;-227.00;-462.50;37.97;1.11;79.43;80.69;-9.00 
2.729;0.98;-0.24;-0.23;16.28;63.30;21.08;-231.00;-460.58;26.98;1.03;80.39;80.34;-9.66 
2.758;1.01;-0.18;-0.22;10.02;65.81;9.39;-231.00;-459.62;13.99;1.05;81.14;79.64;-10.24 
2.787;0.97;-0.18;-0.15;14.54;81.95;2.50;-236.00;-459.62;4.00;1.00;82.45;79.01;-10.40 
2.816;1.00;-0.26;-0.05;23.37;89.53;7.17;-237.00;-455.78;-12.99;1.03;84.07;77.86;-10.52 
2.846;0.77;-0.34;-0.05;24.70;74.92;12.66;-234.00;-455.78;-24.98;0.84;85.41;76.13;-10.88 
2.876;0.85;-0.47;0.13;-14.68;135.10;5.01;-241.00;-453.86;-38.97;0.98;86.99;73.67;-11.40 
2.906;0.80;-0.41;0.16;-19.76;109.29;-31.58;-242.00;-450.02;-56.95;0.91;89.80;70.78;-11.53 
2.935;1.03;-0.29;0.37;-6.19;92.80;-31.51;-234.00;-451.94;-70.94;1.13;92.76;68.87;-10.86 
2.965;1.10;-0.19;0.66;-7.51;87.65;-33.88;-234.00;-454.82;-78.93;1.30;95.78;66.76;-10.21 
2.995;0.91;-0.22;0.74;-2.37;-18.99;-3.06;-223.00;-452.90;-89.93;1.19;97.52;65.58;-9.58 
3.025;1.02;-0.26;0.36;-24.49;-99.34;-11.06;-227.00;-457.70;-81.93;1.11;96.47;67.23;-9.55 
3.054;1.14;-0.22;-0.07;-19.55;-107.20;-10.23;-229.00;-463.46;-62.95;1.16;94.16;70.31;-9.58 
3.084;1.04;-0.13;-0.31;-10.09;-79.79;-11.27;-224.00;-469.21;-43.96;1.09;91.99;73.13;-9.41 
3.115;1.02;-0.07;-0.46;-5.57;-35.41;-8.28;-225.00;-474.01;-33.97;1.12;90.47;75.21;-9.13 
3.145;0.99;-0.08;-0.38;1.32;10.57;-8.63;-222.00;-475.93;-28.98;1.06;90.01;76.11;-8.86 
3.175;1.05;-0.06;-0.22;1.39;53.84;-9.67;-221.00;-474.97;-30.97;1.07;90.80;75.91;-8.51 
3.205;1.02;-0.02;0.02;4.59;68.59;-0.90;-221.00;-474.01;-45.96;1.02;92.31;74.71;-8.28 
3.234;1.02;-0.07;0.26;5.91;55.23;2.92;-223.00;-472.09;-50.96;1.05;93.90;73.08;-8.19 
3.264;1.00;-0.14;0.36;5.98;11.76;11.55;-220.00;-470.17;-60.95;1.07;94.68;71.93;-8.28 
3.294;0.94;-0.18;0.23;-0.35;-22.40;11.48;-218.00;-467.29;-59.95;0.98;94.24;71.86;-8.58 
3.325;0.99;-0.26;0.06;-3.20;-28.31;9.53;-222.00;-468.25;-55.95;1.03;93.13;72.46;-8.96 
3.355;0.99;-0.32;0.00;-3.90;-18.71;3.76;-222.00;-467.29;-51.96;1.04;92.04;73.08;-9.32 
3.385;0.99;-0.29;-0.04;-2.57;-4.66;-4.87;-223.00;-467.29;-47.96;1.03;91.42;73.47;-9.51 
3.415;1.03;-0.25;0.00;-2.30;1.81;-7.03;-223.00;-466.34;-50.96;1.06;91.33;73.72;-9.43 
3.445;1.01;-0.19;0.03;-2.85;0.07;-5.01;-223.00;-469.21;-48.96;1.03;91.43;73.87;-9.29 
3.475;1.02;-0.17;0.02;-2.30;-3.62;-2.16;-224.00;-470.17;-48.96;1.03;91.35;74.09;-9.22 
3.505;1.02;-0.17;0.01;-1.81;-4.87;-1.67;-223.00;-468.25;-46.96;1.03;91.29;74.23;-9.18 
3.536;1.02;-0.14;-0.04;-0.63;-1.95;-2.16;-224.00;-472.09;-48.96;1.03;91.22;74.35;-9.14 
3.566;1.02;-0.13;-0.02;0.42;2.09;-2.09;-220.00;-472.09;-45.96;1.03;91.25;74.40;-9.08 
3.596;1.01;-0.13;0.01;0.70;4.03;-1.04;-224.00;-471.13;-49.96;1.02;91.32;74.36;-9.05 
3.626;1.03;-0.18;0.02;0.42;2.57;0.63;-220.00;-472.09;-41.97;1.05;91.29;74.39;-9.04 
3.656;1.00;-0.17;0.06;-0.70;-0.83;0.00;-221.00;-472.09;-45.96;1.02;91.18;74.45;-9.07 
3.686;1.00;-0.18;0.07;-1.25;-3.55;0.00;-219.00;-472.09;-45.96;1.02;90.99;74.56;-9.12 
3.716;1.03;-0.22;0.06;-1.60;-6.05;-0.70;-222.00;-472.09;-43.96;1.05;90.74;74.73;-9.17 
3.746;1.03;-0.22;0.00;-2.09;-7.65;-1.60;-220.00;-470.17;-43.96;1.05;90.43;74.98;-9.21 
3.775;1.05;-0.22;0.00;-1.39;-4.59;-1.88;-222.00;-473.05;-40.97;1.07;90.27;75.13;-9.22 
3.805;1.02;-0.18;-0.02;-1.11;-1.11;-2.92;-223.00;-470.17;-38.97;1.04;90.25;75.21;-9.17 
3.836;1.02;-0.18;0.00;-0.70;0.83;-2.30;-222.00;-473.05;-42.96;1.04;90.28;75.25;-9.12 
3.866;1.03;-0.17;0.00;-0.70;0.42;-1.95;-220.00;-473.05;-39.97;1.04;90.31;75.27;-9.09 
3.896;1.02;-0.17;0.01;-0.56;-0.97;-1.88;-221.00;-474.01;-45.96;1.03;90.32;75.29;-9.06 
3.926;1.02;-0.14;0.00;-1.18;-2.71;-1.25;-219.00;-474.01;-41.97;1.03;90.19;75.43;-9.06 
3.956;1.02;-0.14;0.01;-1.04;-4.24;-1.04;-220.00;-474.97;-38.97;1.03;90.02;75.60;-9.05 
3.986;1.02;-0.15;0.00;-1.88;-5.43;-0.21;-219.00;-474.97;-41.97;1.03;89.89;75.70;-9.06 
4.015;1.02;-0.18;0.00;-1.04;-3.69;-0.14;-222.00;-475.93;-39.97;1.04;89.68;75.88;-9.08 
4.045;1.03;-0.19;-0.02;-1.04;-2.09;-1.39;-219.00;-476.89;-36.97;1.05;89.47;76.05;-9.10 
4.075;1.02;-0.18;0.00;-0.70;-1.04;-1.81;-221.00;-474.97;-37.97;1.04;89.42;76.10;-9.10 
4.105;1.02;-0.16;0.00;-0.63;-0.83;-1.81;-219.00;-474.01;-36.97;1.03;89.43;76.11;-9.08 
4.135;1.01;-0.15;0.00;-0.97;-1.18;-1.60;-218.00;-474.01;-38.97;1.02;89.43;76.13;-9.06 
4.165;1.03;-0.18;0.01;-0.90;-1.88;-1.88;-218.00;-477.85;-35.97;1.05;89.39;76.18;-9.05 
4.195;1.02;-0.18;0.00;-0.97;-2.99;-1.74;-219.00;-478.81;-36.97;1.04;89.37;76.23;-9.02 
4.225;1.02;-0.17;0.00;-0.70;-2.71;-1.46;-217.00;-478.81;-36.97;1.03;89.22;76.39;-9.01 
4.255;1.02;-0.17;0.01;-1.32;-3.34;-0.77;-223.00;-478.81;-36.97;1.03;89.10;76.47;-9.03 
4.285;1.06;-0.18;0.00;-0.70;-1.67;-0.77;-217.00;-477.85;-35.97;1.08;89.02;76.52;-9.04 
4.314;1.02;-0.15;-0.04;-0.83;-1.53;-0.56;-221.00;-477.85;-30.97;1.03;88.85;76.65;-9.06 
4.344;1.02;-0.18;-0.02;-1.18;-2.71;-1.46;-216.00;-476.89;-35.97;1.04;88.83;76.67;-9.05 
4.374;1.02;-0.14;0.00;-0.83;-4.17;-1.74;-219.00;-478.81;-32.97;1.03;88.75;76.75;-9.04 
4.404;1.02;-0.17;-0.04;-1.18;-5.36;-0.63;-220.00;-479.77;-35.97;1.03;88.54;76.95;-9.03 
4.435;1.02;-0.17;-0.05;-0.97;-3.55;-1.25;-218.00;-479.77;-29.98;1.04;88.31;77.16;-9.04 
4.465;1.04;-0.17;-0.05;-0.77;-1.88;-0.83;-220.00;-477.85;-28.98;1.05;88.23;77.22;-9.05 
4.494;1.02;-0.18;-0.05;-0.35;0.35;-0.56;-217.00;-475.93;-29.98;1.04;88.10;77.32;-9.04 
4.523;1.03;-0.17;-0.02;-0.63;0.70;-0.90;-219.00;-476.89;-27.98;1.04;87.98;77.39;-9.07 
4.553;1.02;-0.18;-0.02;-0.70;0.14;-0.70;-222.00;-482.65;-29.98;1.04;87.96;77.36;-9.09 
4.583;1.02;-0.16;-0.03;-0.70;-1.18;-0.97;-219.00;-476.89;-26.98;1.03;87.94;77.38;-9.08 
4.613;0.99;-0.18;-0.06;-0.77;-1.60;-0.77;-219.00;-478.81;-25.98;1.01;87.91;77.38;-9.09 
4.643;1.05;-0.17;-0.03;-0.63;-1.11;-0.70;-216.00;-479.77;-25.98;1.06;87.74;77.51;-9.11 
4.673;1.02;-0.18;0.00;-0.35;-0.07;-0.42;-217.00;-479.77;-25.98;1.04;87.61;77.59;-9.12 
4.702;1.02;-0.16;-0.06;-0.21;1.11;0.07;-217.00;-477.85;-28.98;1.03;87.50;77.65;-9.14 
4.733;1.02;-0.16;0.00;0.00;1.46;-0.14;-222.00;-475.93;-24.98;1.03;87.38;77.69;-9.18 
4.763;1.02;-0.15;0.00;-0.21;1.18;0.42;-219.00;-481.69;-25.98;1.03;87.29;77.71;-9.21 
4.793;1.02;-0.15;-0.04;-0.21;0.77;0.00;-217.00;-478.81;-27.98;1.03;87.17;77.76;-9.24 
4.822;1.04;-0.16;-0.02;-0.21;1.25;0.63;-219.00;-478.81;-27.98;1.05;87.05;77.79;-9.27 
4.852;1.02;-0.15;-0.04;0.21;3.48;0.35;-221.00;-480.73;-27.98;1.03;86.95;77.79;-9.32 
4.882;1.00;-0.16;0.02;-0.07;2.43;0.77;-220.00;-480.73;-32.97;1.01;86.90;77.76;-9.36 
4.912;1.02;-0.17;-0.02;-0.63;-1.04;0.00;-217.00;-481.69;-25.98;1.03;86.82;77.77;-9.39 
4.943;1.03;-0.18;-0.04;-0.49;-1.46;0.49;-217.00;-475.93;-30.97;1.05;86.74;77.73;-9.45 
4.973;1.02;-0.17;-0.05;0.07;2.92;0.42;-216.00;-479.77;-28.98;1.04;86.58;77.77;-9.51 
5.003;1.02;-0.15;-0.03;0.42;5.77;0.07;-218.00;-476.89;-27.98;1.03;86.53;77.72;-9.56 
5.033;1.02;-0.15;-0.04;0.56;4.03;0.90;-218.00;-480.73;-30.97;1.03;86.49;77.66;-9.61 
5.063;1.03;-0.16;0.00;0.00;2.30;0.83;-218.00;-478.81;-28.98;1.04;86.50;77.55;-9.67 
5.093;1.00;-0.18;-0.04;0.21;2.37;1.04;-219.00;-480.73;-30.97;1.02;86.39;77.54;-9.73 
5.123;1.02;-0.18;-0.05;0.21;2.85;0.90;-217.00;-479.77;-29.98;1.04;86.32;77.52;-9.77 
5.153;1.04;-0.14;-0.05;0.07;2.99;1.39;-218.00;-476.89;-30.97;1.05;86.32;77.40;-9.83 
5.183;1.05;-0.17;-0.03;0.14;3.62;1.25;-219.00;-479.77;-32.97;1.06;86.34;77.26;-9.90 
5.213;1.02;-0.15;-0.05;0.63;4.24;0.77;-217.00;-477.85;-32.97;1.03;86.28;77.20;-9.96 
5.244;1.02;-0.17;0.00;0.35;5.08;1.18;-218.00;-479.77;-30.97;1.03;86.23;77.10;-10.04 
5.274;1.02;-0.19;0.00;0.42;4.38;1.39;-220.00;-480.73;-34.97;1.04;86.27;76.97;-10.09 
5.304;1.05;-0.18;0.00;0.42;2.78;1.39;-219.00;-476.89;-36.97;1.07;86.25;76.88;-10.15 
5.334;1.03;-0.17;-0.06;0.07;1.95;0.97;-219.00;-478.81;-33.97;1.05;86.24;76.77;-10.22 
5.364;1.02;-0.14;-0.02;0.21;2.78;1.39;-219.00;-477.85;-36.97;1.03;86.07;76.75;-10.31 
5.394;1.05;-0.18;-0.02;0.49;6.33;0.77;-221.00;-476.89;-38.97;1.07;86.01;76.70;-10.37 
5.424;1.00;-0.18;0.00;0.07;4.73;0.90;-218.00;-477.85;-37.97;1.02;86.07;76.55;-10.42 
5.453;1.04;-0.15;0.00;-0.14;0.35;1.60;-216.00;-474.97;-35.97;1.05;86.07;76.45;-10.48 
5.483;1.03;-0.18;-0.03;-0.35;-0.97;1.60;-219.00;-473.05;-34.97;1.05;85.89;76.46;-10.56 
5.513;1.02;-0.17;0.00;0.07;2.37;-0.07;-220.00;-478.81;-35.97;1.03;85.75;76.46;-10.62 
5.544;1.02;-0.17;0.00;0.07;4.59;0.21;-220.00;-472.09;-36.97;1.03;85.82;76.35;-10.65 
5.574;1.02;-0.18;0.00;0.35;4.17;1.53;-216.00;-476.89;-37.97;1.04;85.86;76.21;-10.71 
5.603;1.02;-0.15;0.00;0.00;3.27;0.83;-222.00;-475.93;-38.97;1.03;85.84;76.14;-10.75 
5.633;1.02;-0.16;0.07;-0.14;2.71;0.14;-219.00;-478.81;-37.97;1.03;85.83;76.11;-10.77 
5.662;1.02;-0.17;0.00;-0.28;0.90;0.63;-220.00;-474.97;-37.97;1.03;85.77;76.10;-10.80 
5.692;1.02;-0.16;0.00;-0.28;-0.21;0.90;-221.00;-476.89;-37.97;1.03;85.71;76.05;-10.86 
5.722;1.01;-0.18;0.00;-0.42;0.42;0.28;-222.00;-474.01;-39.97;1.03;85.59;76.10;-10.89 
5.752;1.02;-0.18;0.00;-0.70;0.83;-0.56;-219.00;-474.97;-37.97;1.04;85.59;76.04;-10.92 
5.781;1.02;-0.20;0.00;-0.77;-0.70;-1.04;-221.00;-474.97;-39.97;1.04;85.53;76.08;-10.92 
5.811;1.01;-0.17;0.02;-1.11;-2.43;-1.11;-221.00;-474.01;-38.97;1.02;85.45;76.17;-10.90 
5.842;1.02;-0.18;0.02;-1.25;-4.45;-1.39;-220.00;-477.85;-36.97;1.04;85.34;76.30;-10.88 
5.872;1.02;-0.18;0.00;-1.04;-4.45;-1.04;-218.00;-475.93;-36.97;1.04;85.17;76.46;-10.87 
5.901;1.03;-0.18;0.00;-0.77;-2.50;-0.83;-221.00;-478.81;-36.97;1.05;84.99;76.59;-10.87 
5.932;1.02;-0.18;-0.02;-0.42;-0.97;-0.63;-217.00;-478.81;-34.97;1.04;84.93;76.62;-10.89 
5.962;1.04;-0.18;0.00;-0.21;2.99;-0.63;-216.00;-475.93;-34.97;1.06;84.85;76.69;-10.87 
5.992;1.00;-0.18;0.02;-0.49;1.53;-0.70;-218.00;-478.81;-35.97;1.02;84.89;76.61;-10.90 
6.022;1.06;-0.13;0.04;-1.11;-3.27;-1.18;-220.00;-478.81;-35.97;1.07;84.86;76.66;-10.88 
6.053;1.03;-0.17;0.00;-1.25;-7.10;-0.56;-221.00;-477.85;-34.97;1.04;84.73;76.74;-10.89 
6.083;1.04;-0.17;-0.06;-1.18;-5.01;-0.90;-216.00;-480.73;-37.97;1.06;84.48;76.90;-10.91 
6.113;1.02;-0.17;-0.04;-0.90;-1.25;-1.60;-217.00;-477.85;-30.97;1.03;84.34;77.04;-10.89 
6.144;1.02;-0.18;-0.02;-0.70;0.70;-1.25;-218.00;-481.69;-32.97;1.04;84.28;77.13;-10.86 
6.174;1.02;-0.18;0.00;-0.35;-0.14;-1.11;-219.00;-477.85;-33.97;1.04;84.24;77.16;-10.85 
6.204;1.03;-0.16;0.00;-0.56;-0.70;-0.49;-219.00;-478.81;-31.97;1.04;84.17;77.24;-10.83 
6.234;1.02;-0.18;-0.02;-0.90;-1.39;-0.49;-218.00;-476.89;-30.97;1.04;84.08;77.31;-10.83 
6.263;1.01;-0.19;-0.05;-0.63;-1.74;-0.83;-219.00;-478.81;-30.97;1.03;83.99;77.37;-10.83 
6.293;1.04;-0.16;-0.05;-0.63;-2.16;-0.35;-220.00;-479.77;-25.98;1.05;83.90;77.44;-10.83 
6.323;1.02;-0.17;0.00;-0.77;-1.67;-0.63;-219.00;-478.81;-29.98;1.03;83.83;77.44;-10.85 
6.354;1.02;-0.18;-0.03;-0.70;-1.18;-0.97;-219.00;-479.77;-31.97;1.04;83.75;77.51;-10.84 
6.383;1.04;-0.18;-0.04;-0.63;-0.90;-1.32;-217.00;-476.89;-29.98;1.06;83.72;77.52;-10.85 
6.413;1.03;-0.16;-0.03;-0.77;-1.46;-1.04;-217.00;-483.61;-26.98;1.04;83.62;77.58;-10.85 
6.444;1.02;-0.13;-0.03;-0.49;-1.25;-0.70;-217.00;-476.89;-30.97;1.03;83.53;77.65;-10.84 
6.474;1.02;-0.18;-0.04;-0.97;-1.11;-1.11;-217.00;-480.73;-28.98;1.04;83.45;77.73;-10.82 
6.504;1.02;-0.19;-0.03;-0.83;-1.25;-1.04;-219.00;-481.69;-26.98;1.04;83.38;77.78;-10.81 
6.533;1.02;-0.15;-0.03;-0.83;-2.02;-1.32;-218.00;-476.89;-29.98;1.03;83.31;77.84;-10.81 
6.562;1.03;-0.17;-0.06;-0.70;-1.67;-1.04;-217.00;-478.81;-24.98;1.05;83.19;77.92;-10.80 
6.592;1.02;-0.15;-0.05;-0.35;0.28;-0.56;-215.00;-485.53;-24.98;1.03;83.12;77.98;-10.79 
6.622;1.02;-0.17;-0.02;-0.83;-0.56;-1.04;-216.00;-480.73;-23.98;1.03;83.07;78.02;-10.78 
6.653;1.00;-0.15;-0.06;-0.97;-2.43;-1.11;-217.00;-480.73;-23.98;1.01;83.04;78.03;-10.79 
6.683;1.03;-0.16;-0.06;-1.25;-2.99;-0.90;-215.00;-478.81;-27.98;1.04;82.92;78.13;-10.77 
6.713;1.02;-0.18;-0.06;-0.97;-2.43;-0.97;-218.00;-479.77;-24.98;1.04;82.81;78.21;-10.76 
6.743;1.05;-0.17;-0.06;-0.49;-0.63;-0.70;-217.00;-483.61;-23.98;1.07;82.70;78.26;-10.76 
6.773;1.03;-0.17;-0.04;-0.28;0.35;-0.63;-215.00;-478.81;-22.98;1.04;82.65;78.30;-10.76 
6.802;1.02;-0.17;-0.04;-0.56;1.25;-0.97;-216.00;-481.69;-23.98;1.03;82.60;78.32;-10.76 
6.831;1.02;-0.15;-0.06;-0.56;0.28;-0.63;-216.00;-483.61;-25.98;1.03;82.57;78.34;-10.75 
6.860;1.02;-0.15;-0.05;-0.49;-0.56;-0.63;-217.00;-482.65;-25.98;1.03;82.54;78.38;-10.73 
6.890;1.02;-0.15;-0.06;-0.63;-1.39;-0.70;-217.00;-479.77;-27.98;1.03;82.48;78.44;-10.72 
6.920;1.04;-0.17;-0.04;-0.70;-1.32;-0.35;-216.00;-484.57;-23.98;1.05;82.41;78.47;-10.72 
6.951;1.02;-0.15;-0.06;-0.49;-0.63;-0.56;-217.00;-483.61;-24.98;1.03;82.34;78.50;-10.72 
6.981;1.02;-0.14;-0.06;-0.63;0.70;-0.70;-214.00;-482.65;-22.98;1.03;82.29;78.52;-10.72 
7.011;1.03;-0.15;-0.06;-0.42;0.63;-0.56;-219.00;-477.85;-21.98;1.04;82.24;78.53;-10.73 
7.041;1.02;-0.16;-0.05;-0.70;0.35;-0.77;-217.00;-477.85;-21.98;1.03;82.23;78.58;-10.70 
7.071;1.02;-0.14;-0.05;-0.42;-0.07;-0.49;-220.00;-483.61;-23.98;1.03;82.21;78.59;-10.69 
7.101;1.02;-0.17;-0.07;-0.56;-0.14;-0.63;-217.00;-481.69;-18.98;1.04;82.17;78.62;-10.69 
7.131;1.04;-0.15;-0.04;-0.35;0.28;-0.14;-215.00;-480.73;-19.98;1.05;82.11;78.64;-10.70 
7.162;1.01;-0.17;-0.06;-0.63;0.63;-0.21;-216.00;-484.57;-23.98;1.03;82.05;78.65;-10.71 
7.192;1.02;-0.14;-0.05;-0.56;0.63;-0.07;-218.00;-481.69;-23.98;1.03;82.03;78.66;-10.70 
7.222;1.03;-0.15;-0.06;0.14;1.81;0.14;-217.00;-479.77;-21.98;1.04;81.99;78.66;-10.72 
7.253;1.04;-0.17;-0.03;0.42;3.48;0.77;-217.00;-481.69;-22.98;1.05;81.97;78.62;-10.75 
7.282;1.02;-0.14;0.00;-0.14;1.60;-0.49;-216.00;-482.65;-22.98;1.03;81.95;78.59;-10.78 
7.312;1.02;-0.16;-0.05;-0.42;-1.53;0.14;-217.00;-483.61;-18.98;1.03;81.90;78.60;-10.78 
7.342;1.05;-0.18;-0.06;-0.35;-0.63;0.42;-214.00;-481.69;-23.98;1.07;81.82;78.61;-10.80 
7.372;1.03;-0.16;-0.05;0.28;3.48;0.14;-215.00;-481.69;-21.98;1.04;81.76;78.60;-10.83 
7.402;1.04;-0.18;-0.06;0.56;4.66;0.42;-217.00;-485.53;-19.98;1.06;81.78;78.58;-10.83 
7.432;1.03;-0.16;-0.03;0.21;3.20;0.35;-215.00;-483.61;-28.98;1.04;81.80;78.53;-10.86 
7.463;1.03;-0.17;-0.08;-0.07;1.74;0.90;-216.00;-484.57;-23.98;1.05;81.77;78.48;-10.90 
7.492;1.02;-0.14;-0.06;0.07;2.37;0.90;-216.00;-477.85;-26.98;1.03;81.74;78.44;-10.94 
7.522;1.02;-0.18;-0.02;0.21;3.13;0.49;-214.00;-480.73;-26.98;1.04;81.72;78.40;-10.97 
7.553;1.04;-0.17;-0.08;0.21;2.99;0.77;-219.00;-482.65;-24.98;1.06;81.72;78.36;-10.99 
7.583;1.04;-0.16;-0.06;0.28;2.92;0.90;-214.00;-483.61;-26.98;1.05;81.71;78.31;-11.03 
7.613;1.02;-0.14;-0.03;0.49;3.62;1.04;-218.00;-478.81;-24.98;1.03;81.68;78.27;-11.06 
7.643;1.02;-0.16;-0.06;0.63;4.38;0.83;-216.00;-484.57;-27.98;1.03;81.69;78.20;-11.11 
7.674;1.02;-0.17;-0.03;0.42;4.59;1.04;-215.00;-477.85;-25.98;1.03;81.72;78.14;-11.14 
7.704;1.02;-0.15;0.00;0.07;3.83;0.90;-216.00;-480.73;-27.98;1.03;81.73;78.07;-11.18 
7.733;1.01;-0.16;-0.04;0.35;2.85;1.04;-215.00;-478.81;-30.97;1.02;81.72;78.02;-11.21 
7.764;1.03;-0.16;-0.02;0.14;3.13;1.11;-215.00;-477.85;-27.98;1.04;81.69;77.97;-11.25 
7.794;1.02;-0.16;-0.04;0.14;3.69;0.90;-218.00;-482.65;-26.98;1.03;81.71;77.87;-11.31 
7.824;1.02;-0.16;-0.04;0.42;3.20;0.97;-219.00;-480.73;-30.97;1.03;81.72;77.82;-11.34 
7.854;1.03;-0.16;-0.05;0.14;2.71;1.04;-216.00;-480.73;-32.97;1.04;81.70;77.76;-11.39 
7.884;1.02;-0.17;-0.03;0.21;3.69;1.11;-219.00;-480.73;-33.97;1.03;81.66;77.71;-11.43 
7.914;1.03;-0.17;-0.02;0.35;6.33;0.63;-219.00;-480.73;-30.97;1.04;81.71;77.60;-11.48 
7.944;0.98;-0.16;0.00;0.00;3.69;0.70;-216.00;-476.89;-31.97;0.99;81.76;77.54;-11.49 
7.975;1.02;-0.18;0.00;-0.42;-1.11;1.11;-218.00;-477.85;-34.97;1.04;81.75;77.46;-11.54 
8.005;1.02;-0.18;-0.04;-0.28;-1.46;0.77;-216.00;-475.93;-32.97;1.04;81.60;77.45;-11.60 
8.035;1.02;-0.16;-0.06;-0.14;3.27;0.21;-218.00;-478.81;-36.97;1.03;81.53;77.44;-11.64 
8.065;1.02;-0.16;-0.02;0.63;5.70;0.42;-218.00;-477.85;-35.97;1.03;81.56;77.43;-11.63 
8.095;1.02;-0.15;0.00;0.35;4.66;0.83;-220.00;-475.93;-33.97;1.03;81.63;77.31;-11.68 
8.125;1.03;-0.18;0.00;0.21;2.85;0.35;-218.00;-478.81;-31.97;1.05;81.63;77.24;-11.72 
8.155;1.02;-0.17;-0.02;-0.28;1.81;0.07;-217.00;-476.89;-37.97;1.03;81.63;77.15;-11.77 
8.186;1.02;-0.15;0.00;-0.49;0.70;0.49;-220.00;-474.01;-31.97;1.03;81.63;77.07;-11.82 
8.216;1.01;-0.18;0.00;-0.21;-0.56;0.56;-218.00;-477.85;-33.97;1.03;81.57;77.10;-11.83 
8.246;1.02;-0.17;0.01;-0.77;-0.42;-0.42;-219.00;-477.85;-36.97;1.03;81.53;77.05;-11.87 
8.276;0.99;-0.18;0.02;-0.77;-0.70;-1.11;-219.00;-477.85;-35.97;1.01;81.51;77.04;-11.88 
8.306;1.02;-0.17;0.01;-0.97;-2.23;-1.11;-219.00;-480.73;-34.97;1.03;81.49;77.04;-11.89 
8.336;1.02;-0.18;0.00;-1.18;-3.55;-0.56;-221.00;-479.77;-33.97;1.04;81.42;77.11;-11.87 
8.366;1.02;-0.18;-0.02;-1.18;-2.99;-0.77;-220.00;-478.81;-31.97;1.04;81.36;77.12;-11.88 
8.396;1.05;-0.16;-0.06;-1.11;-1.53;-1.25;-221.00;-476.89;-28.98;1.06;81.29;77.20;-11.86 
8.426;1.03;-0.16;0.00;-0.77;-1.18;-0.97;-219.00;-479.77;-33.97;1.04;81.27;77.28;-11.82 
8.456;1.02;-0.18;-0.03;-0.83;-1.67;-1.18;-218.00;-479.77;-28.98;1.04;81.24;77.27;-11.83 
8.486;1.02;-0.15;-0.02;-1.11;-2.37;-0.83;-218.00;-475.93;-30.97;1.03;81.18;77.35;-11.80 
8.516;1.02;-0.17;-0.05;-0.97;-3.48;-0.83;-216.00;-477.85;-27.98;1.04;81.11;77.43;-11.77 
8.546;1.02;-0.15;-0.04;-0.83;-3.41;-1.11;-218.00;-477.85;-29.98;1.03;81.04;77.54;-11.72 
8.577;1.02;-0.17;-0.04;-0.63;-2.16;-0.77;-221.00;-478.81;-27.98;1.03;80.95;77.62;-11.70 
8.607;1.04;-0.15;0.00;-0.42;0.70;-0.90;-216.00;-481.69;-30.97;1.05;80.92;77.67;-11.68 
8.637;1.04;-0.13;0.00;-1.11;-0.63;-0.83;-218.00;-480.73;-25.98;1.05;80.92;77.71;-11.64 
8.667;1.02;-0.17;0.00;-1.46;-4.03;-1.46;-217.00;-482.65;-29.98;1.03;80.88;77.78;-11.61 
8.698;1.04;-0.17;-0.04;-1.18;-6.19;-0.42;-215.00;-480.73;-25.98;1.05;80.79;77.87;-11.58 
8.728;1.05;-0.18;-0.09;-0.83;-3.62;-0.77;-217.00;-478.81;-27.98;1.07;80.67;77.93;-11.58 
8.758;1.04;-0.18;-0.04;-0.63;-0.14;-1.32;-216.00;-480.73;-20.98;1.06;80.61;78.00;-11.55 
8.789;1.03;-0.17;-0.02;-0.42;1.04;-0.97;-221.00;-483.61;-22.98;1.04;80.61;78.04;-11.52 
8.819;1.02;-0.14;0.00;-0.49;-0.14;-0.77;-217.00;-480.73;-20.98;1.03;80.64;78.09;-11.47 
8.848;1.04;-0.16;-0.04;-0.70;-1.32;-0.42;-220.00;-480.73;-26.98;1.05;80.62;78.12;-11.46 
8.878;1.03;-0.18;-0.06;-0.83;-1.74;-0.97;-220.00;-482.65;-23.98;1.05;80.59;78.14;-11.45 
8.908;1.05;-0.16;-0.06;-0.77;-2.02;-0.49;-215.00;-479.77;-20.98;1.06;80.56;78.15;-11.45 
8.938;1.02;-0.16;-0.03;-0.70;-1.74;-0.77;-216.00;-480.73;-24.98;1.03;80.52;78.20;-11.43 
8.967;1.03;-0.17;-0.05;-0.97;-1.04;-0.56;-217.00;-481.69;-24.98;1.05;80.49;78.25;-11.40 
8.997;1.02;-0.14;-0.06;-0.42;-0.21;-0.83;-213.00;-483.61;-24.98;1.03;80.47;78.28;-11.38 
9.027;1.02;-0.17;-0.08;-0.63;0.28;-1.04;-216.00;-486.49;-23.98;1.04;80.46;78.32;-11.35 
9.057;1.02;-0.14;-0.06;-0.35;0.14;-0.70;-215.00;-480.73;-19.98;1.03;80.46;78.30;-11.36 
9.088;1.02;-0.17;-0.06;-0.49;0.00;-0.56;-217.00;-482.65;-22.98;1.04;80.47;78.35;-11.33 
9.118;1.04;-0.17;-0.08;-0.42;-0.56;-0.63;-217.00;-486.49;-21.98;1.06;80.46;78.33;-11.34 
9.148;1.06;-0.14;-0.05;-0.56;-0.28;-0.49;-214.00;-484.57;-24.98;1.07;80.45;78.38;-11.31 
9.178;1.02;-0.16;-0.06;-0.35;0.28;-0.56;-217.00;-480.73;-23.98;1.03;80.43;78.40;-11.29 
9.208;1.05;-0.14;-0.03;-0.49;0.63;-0.49;-213.00;-482.65;-20.98;1.06;80.46;78.44;-11.26 
9.238;1.02;-0.17;-0.06;-0.63;0.28;-0.56;-216.00;-483.61;-24.98;1.04;80.47;78.46;-11.24 
9.268;0.99;-0.17;-0.09;-0.70;0.00;-0.42;-216.00;-484.57;-18.98;1.01;80.45;78.48;-11.23 
9.299;1.02;-0.14;-0.09;-0.49;0.14;-0.42;-213.00;-484.57;-23.98;1.03;80.43;78.51;-11.21 
9.329;1.04;-0.17;-0.08;-0.14;1.53;-0.21;-213.00;-482.65;-21.98;1.06;80.44;78.54;-11.19 
9.358;1.01;-0.14;-0.04;-0.56;0.14;-0.14;-214.00;-482.65;-19.98;1.02;80.45;78.54;-11.18 
9.387;1.02;-0.16;-0.06;-0.90;-0.14;-0.97;-217.00;-484.57;-21.98;1.03;80.44;78.58;-11.15 
9.417;1.10;-0.15;-0.05;0.63;0.28;4.52;-215.00;-482.65;-21.98;1.11;80.40;78.55;-11.19 
9.447;1.06;-0.14;-0.09;1.81;5.70;10.30;-217.00;-483.61;-18.98;1.07;80.18;78.32;-11.42 
9.477;0.98;-0.18;0.02;-2.78;4.24;1.74;-214.00;-480.73;-20.98;1.00;80.10;78.11;-11.60 
9.507;1.06;-0.18;0.01;-3.48;-11.55;6.54;-220.00;-481.69;-20.98;1.08;79.94;78.00;-11.72 
9.537;0.95;-0.17;-0.07;-5.15;-13.77;6.40;-220.00;-482.65;-14.99;0.97;79.48;77.87;-11.94 
9.567;1.05;-0.22;-0.16;-4.52;-4.03;-1.39;-220.00;-479.77;-20.98;1.08;79.16;77.84;-12.03 
9.598;1.05;-0.15;-0.10;-3.34;12.38;-4.52;-225.00;-474.97;-12.99;1.07;79.22;77.93;-11.95 
9.628;0.93;-0.11;-0.02;-7.17;20.66;-8.70;-222.00;-480.73;-14.99;0.94;79.69;78.07;-11.74 
9.657;0.99;-0.14;0.00;-9.81;14.05;-0.97;-224.00;-479.77;-13.99;1.00;80.18;78.13;-11.56 
9.687;1.06;-0.18;-0.03;-5.57;9.32;10.78;-222.00;-478.81;-17.99;1.08;80.25;77.88;-11.73 
9.716;0.98;-0.24;-0.04;-4.24;-4.94;11.48;-223.00;-477.85;-13.99;1.01;79.84;77.50;-12.13 
9.745;1.11;-0.18;-0.17;-1.88;-10.64;13.36;-226.00;-474.01;-17.99;1.14;79.13;77.18;-12.57 
9.775;1.08;-0.25;-0.26;8.97;18.99;18.50;-227.00;-472.09;-11.99;1.14;78.74;76.77;-12.97 
9.805;0.95;-0.49;-0.17;13.50;35.41;-0.83;-229.00;-463.46;-23.98;1.08;78.58;76.12;-13.49 
9.835;1.13;-0.10;-0.23;13.29;45.01;-29.50;-227.00;-463.46;-24.98;1.16;79.57;76.14;-13.13 
9.865;1.13;0.12;-0.22;15.72;56.14;-6.05;-225.00;-463.46;-37.97;1.16;81.13;76.47;-12.25 
9.896;1.08;-0.18;-0.10;25.11;62.05;12.45;-219.00;-459.62;-51.96;1.10;81.99;75.64;-12.26 
9.926;1.06;-0.14;0.02;32.63;78.12;6.47;-216.00;-449.06;-68.94;1.07;82.86;74.31;-12.39 
