Time(s) acc_x(g) acc_y(g) acc_z(g) gyr_x(°/s) gyr_y(°/s) gyr_z(°/s) mag_x(G) mag_y(G) mag_z(G) SVM(g) yaw(°) pitch(°) roll(°)
0.000;-0.46;0.27;0.64;21.29;5.08;-27.41;-0.99;-67.20;-319.00;0.83;171.51;-42.87;26.65 
0.031;-0.46;0.26;0.78;20.80;1.95;-26.71;-1.98;-69.09;-320.00;0.94;172.92;-43.31;26.34 
0.060;-0.51;0.22;0.82;20.73;-12.31;-26.99;-3.97;-70.98;-323.00;0.99;174.21;-43.45;26.02 
0.089;-0.54;0.15;0.78;21.22;-25.60;-32.77;-6.94;-79.50;-322.00;0.96;175.65;-43.39;25.59 
0.119;-0.48;0.19;0.67;21.91;-26.30;-38.96;-5.95;-82.34;-328.00;0.85;177.31;-43.27;25.04 
0.148;-0.48;0.22;0.64;22.75;-17.60;-41.60;-8.93;-88.96;-336.00;0.83;179.14;-43.30;24.44 
0.177;-0.46;0.25;0.72;26.02;-6.75;-44.87;-11.90;-94.64;-337.00;0.89;-179.06;-43.59;23.88 
0.207;-0.49;0.18;0.84;24.21;-11.55;-48.42;-13.89;-101.27;-338.00;0.99;-177.26;-43.93;23.22 
0.237;-0.49;0.17;0.88;22.40;-17.60;-54.68;-12.89;-102.21;-343.00;1.02;-175.32;-44.21;22.34 
0.267;-0.46;0.19;0.83;23.30;-24.42;-59.83;-17.85;-112.62;-344.00;0.97;-173.35;-44.33;21.34 
0.297;-0.42;0.26;0.74;20.94;-25.46;-57.60;-21.82;-120.20;-350.00;0.89;-171.44;-44.29;20.37 
0.328;-0.45;0.27;0.71;19.90;-16.77;-51.69;-24.80;-128.71;-357.00;0.88;-169.68;-44.24;19.48 
0.358;-0.42;0.23;0.77;15.79;-12.24;-48.63;-30.75;-136.29;-356.00;0.91;-168.12;-44.27;18.62 
0.388;-0.43;0.23;0.81;17.04;-11.06;-43.20;-29.76;-139.13;-359.00;0.95;-166.79;-44.32;17.88 
0.419;-0.43;0.22;0.79;14.89;-14.96;-38.47;-32.73;-146.70;-361.00;0.93;-165.67;-44.18;17.19 
0.448;-0.40;0.31;0.72;11.27;-11.41;-29.84;-35.71;-151.43;-361.00;0.88;-164.83;-43.96;16.66 
0.478;-0.38;0.35;0.67;8.14;-6.96;-14.40;-31.74;-157.11;-367.00;0.85;-164.46;-43.68;16.45 
0.508;-0.35;0.20;0.72;4.94;2.50;-7.79;-33.72;-156.16;-367.00;0.83;-164.47;-43.44;16.40 
0.538;-0.45;0.18;0.81;-0.49;3.83;-14.05;-34.72;-157.11;-365.00;0.94;-164.55;-43.38;16.08 
0.568;-0.35;0.26;0.78;2.78;-2.37;-11.20;-35.71;-159.00;-367.00;0.89;-164.59;-43.30;15.76 
0.598;-0.42;0.20;0.81;8.00;-7.93;-5.15;-33.72;-160.89;-370.00;0.93;-164.78;-42.91;15.63 
0.629;-0.47;0.08;0.82;14.89;-4.24;-6.68;-35.71;-162.79;-371.00;0.95;-164.87;-42.52;15.67 
0.659;-0.42;0.09;0.83;14.26;-10.37;-23.65;-31.74;-165.63;-371.00;0.93;-164.57;-42.23;15.46 
0.689;-0.46;0.15;0.74;18.02;-13.70;-28.94;-28.76;-167.52;-374.00;0.88;-163.93;-41.91;15.11 
0.719;-0.45;0.21;0.74;23.86;-10.02;-31.03;-28.76;-171.30;-377.00;0.89;-163.06;-41.67;14.82 
0.749;-0.46;0.31;0.67;27.20;-5.98;-26.85;-31.74;-176.98;-379.00;0.87;-162.08;-41.54;14.74 
0.779;-0.42;0.29;0.66;33.04;-5.15;-19.06;-22.81;-177.93;-381.00;0.83;-161.24;-41.38;14.90 
0.809;-0.46;0.23;0.76;35.13;-2.64;-11.97;-18.85;-180.77;-389.00;0.92;-160.51;-41.17;15.34 
0.840;-0.63;0.20;0.90;25.32;-1.04;-21.15;-14.88;-183.61;-389.00;1.12;-159.83;-41.10;15.61 
0.870;-0.44;0.30;0.87;18.37;-21.08;-22.47;-6.94;-186.45;-392.00;1.02;-159.13;-40.92;15.46 
0.900;-0.44;0.43;0.62;15.10;-38.05;-17.18;-6.94;-193.07;-391.00;0.87;-158.90;-40.01;15.44 
0.931;-0.44;0.36;0.51;13.50;-11.41;-3.34;-2.98;-201.59;-397.00;0.76;-158.99;-39.11;15.76 
0.961;-0.50;0.26;0.62;7.79;8.35;-6.61;-1.98;-198.75;-396.00;0.84;-159.03;-39.00;15.94 
0.991;-0.50;0.35;0.72;6.47;10.64;-6.19;-2.98;-200.64;-401.00;0.94;-159.02;-39.20;15.95 
1.021;-0.42;0.40;0.81;7.03;9.88;0.28;-0.99;-202.54;-397.00;1.00;-159.15;-39.32;16.09 
1.051;-0.38;0.37;0.86;5.98;5.91;2.99;0.99;-196.86;-400.00;1.01;-159.48;-39.26;16.32 
1.081;-0.36;0.34;0.82;7.58;4.17;4.03;0.99;-194.02;-399.00;0.96;-159.88;-39.11;16.54 
1.111;-0.36;0.27;0.77;7.58;-2.57;1.11;5.95;-194.02;-397.00;0.89;-160.29;-38.80;16.73 
1.141;-0.33;0.18;0.67;1.74;-9.53;-8.49;6.94;-194.02;-401.00;0.77;-160.62;-38.37;16.77 
1.170;-0.38;0.17;0.62;-13.08;-10.16;-25.18;2.98;-198.75;-399.00;0.75;-160.77;-37.97;16.25 
1.200;-0.55;0.27;0.73;-22.61;5.43;-35.20;-5.95;-202.54;-399.00;0.95;-160.66;-38.00;15.19 
1.230;-0.64;0.51;0.82;-4.38;23.51;-24.49;-7.94;-199.70;-395.00;1.16;-160.27;-38.60;14.19 
1.260;-0.39;0.37;0.82;7.86;4.59;2.37;-9.92;-196.86;-395.00;0.98;-160.26;-38.99;14.21 
1.289;-0.46;0.10;0.68;6.19;-10.37;-5.84;-9.92;-197.80;-394.00;0.83;-160.63;-38.60;14.31 
1.318;-0.46;0.10;0.66;5.84;6.05;-24.42;-4.96;-200.64;-398.00;0.81;-160.46;-38.50;13.99 
1.347;-0.45;0.21;0.78;10.64;12.87;-32.21;-8.93;-202.54;-397.00;0.92;-159.78;-38.91;13.51 
1.377;-0.46;0.23;0.84;14.47;2.43;-29.70;-9.92;-200.64;-396.00;0.98;-159.02;-39.22;13.12 
1.407;-0.46;0.27;0.78;12.80;-9.60;-28.59;-5.95;-202.54;-396.00;0.94;-158.38;-39.10;12.82 
1.438;-0.42;0.33;0.67;10.09;-5.50;-25.25;-7.94;-203.48;-395.00;0.86;-157.88;-38.85;12.58 
1.468;-0.44;0.33;0.69;7.93;6.96;-19.48;-3.97;-207.27;-402.00;0.88;-157.49;-38.86;12.43 
1.497;-0.46;0.33;0.72;6.68;10.16;-13.63;-5.95;-204.43;-398.00;0.92;-157.24;-39.07;12.32 
1.527;-0.54;0.30;0.76;4.24;3.76;-7.30;-4.96;-204.43;-399.00;0.98;-157.22;-39.16;12.27 
1.556;-0.54;0.30;0.72;3.48;0.28;-3.48;-4.96;-203.48;-398.00;0.95;-157.41;-39.08;12.27 
1.586;-0.54;0.28;0.70;2.37;3.97;1.53;-4.96;-204.43;-397.00;0.93;-157.73;-39.00;12.33 
1.616;-0.58;0.30;0.70;1.81;7.79;6.89;-4.96;-205.38;-400.00;0.96;-158.18;-38.99;12.47 
1.646;-0.54;0.28;0.72;0.21;7.51;10.09;-0.99;-202.54;-401.00;0.94;-158.80;-39.02;12.70 
1.676;-0.52;0.26;0.76;-0.35;3.69;11.48;-0.99;-201.59;-400.00;0.96;-159.49;-38.96;12.87 
1.706;-0.50;0.27;0.72;-0.35;2.57;13.43;-0.99;-198.75;-399.00;0.92;-160.27;-38.78;13.10 
1.737;-0.53;0.30;0.70;0.77;3.20;15.37;1.98;-197.80;-399.00;0.93;-160.88;-38.54;13.48 
1.766;-0.53;0.26;0.70;0.00;3.69;13.57;0.00;-197.80;-396.00;0.92;-161.42;-38.37;13.90 
1.796;-0.52;0.26;0.71;-1.18;1.18;11.06;2.98;-195.91;-395.00;0.92;-162.09;-38.21;14.10 
1.827;-0.51;0.29;0.72;-1.18;-2.71;9.53;4.96;-194.02;-398.00;0.93;-162.84;-37.94;14.26 
1.857;-0.52;0.28;0.67;-2.09;-2.92;7.37;8.93;-196.86;-398.00;0.89;-163.54;-37.63;14.37 
1.887;-0.49;0.26;0.70;-2.09;-1.74;5.36;4.96;-195.91;-398.00;0.89;-164.15;-37.39;14.42 
1.917;-0.50;0.26;0.70;-2.23;-2.02;2.64;5.95;-198.75;-396.00;0.90;-164.70;-37.14;14.41 
1.946;-0.56;0.26;0.76;-1.74;-2.64;-0.14;2.98;-195.91;-396.00;0.98;-165.17;-36.93;14.36 
1.975;-0.56;0.26;0.74;-1.32;-7.65;-0.70;4.96;-196.86;-399.00;0.96;-165.54;-36.70;14.27 
2.005;-0.53;0.27;0.73;-0.35;-16.97;0.56;4.96;-199.70;-396.00;0.94;-165.97;-36.27;14.20 
2.036;-0.51;0.29;0.63;-0.56;-18.57;2.23;3.97;-206.32;-398.00;0.86;-166.47;-35.60;14.21 
2.066;-0.51;0.32;0.63;-3.62;-9.88;2.37;2.98;-204.43;-401.00;0.87;-166.98;-35.08;14.23 
2.096;-0.53;0.33;0.68;-4.45;-6.05;4.45;1.98;-207.27;-402.00;0.92;-167.49;-34.79;14.22 
2.126;-0.47;0.31;0.68;-4.31;-11.97;10.09;1.98;-212.00;-399.00;0.88;-168.12;-34.43;14.27 
2.156;-0.45;0.28;0.69;-4.52;-18.57;14.54;0.99;-212.95;-400.00;0.87;-168.99;-33.72;14.39 
2.186;-0.50;0.29;0.66;-3.97;-16.35;15.65;1.98;-216.73;-402.00;0.88;-169.88;-32.99;14.57 
2.216;-0.49;0.27;0.67;-2.78;-15.17;18.71;0.99;-220.52;-401.00;0.87;-170.78;-32.35;14.76 
2.247;-0.40;0.30;0.62;-5.43;-10.57;21.57;0.00;-221.46;-403.00;0.80;-171.80;-31.66;15.05 
2.277;-0.49;0.29;0.65;-9.88;5.57;18.78;1.98;-222.41;-403.00;0.86;-172.86;-31.28;15.20 
2.307;-0.50;0.26;0.70;-12.45;11.55;17.60;-0.99;-220.52;-404.00;0.90;-173.81;-31.34;15.20 
2.338;-0.46;0.26;0.73;-14.96;-2.43;18.16;-2.98;-217.68;-401.00;0.90;-174.86;-31.28;15.12 
2.368;-0.44;0.21;0.65;-16.07;-15.65;19.20;-2.98;-217.68;-401.00;0.81;-176.03;-30.74;14.99 
2.398;-0.43;0.15;0.59;-13.98;-14.82;15.51;-3.97;-217.68;-400.00;0.75;-177.07;-30.10;14.80 
2.428;-0.40;0.14;0.55;-11.69;-9.25;9.32;-8.93;-224.30;-399.00;0.69;-177.92;-29.60;14.58 
2.458;-0.37;0.17;0.56;-14.75;-5.15;3.13;-13.89;-222.41;-400.00;0.69;-178.59;-29.32;14.29 
2.488;-0.34;0.18;0.54;-18.09;-2.37;-3.27;-14.88;-225.25;-396.00;0.66;-179.12;-29.17;13.86 
2.518;-0.38;0.26;0.57;-14.26;1.18;-4.24;-21.82;-223.36;-393.00;0.73;-179.51;-29.17;13.40 
2.549;-0.34;0.25;0.65;-8.97;-3.62;3.97;-21.82;-225.25;-392.00;0.77;-179.92;-29.09;13.15 
2.579;-0.40;0.23;0.69;-12.03;-18.64;7.10;-27.77;-229.98;-391.00;0.83;179.46;-28.65;12.99 
2.609;-0.39;0.26;0.82;-12.17;-36.31;12.80;-29.76;-231.88;-394.00;0.94;178.75;-27.77;12.80 
2.638;-0.40;0.23;0.75;-10.85;-64.14;14.68;-32.73;-238.50;-391.00;0.88;177.94;-26.13;12.70 
2.668;-0.42;0.20;0.54;-1.81;-79.37;14.26;-32.73;-252.70;-394.00;0.71;177.25;-23.94;12.66 
2.698;-0.40;0.11;0.32;-5.63;-96.49;16.35;-33.72;-258.38;-398.00;0.52;176.70;-21.42;12.80 
2.728;-0.26;0.15;0.22;-27.97;-69.15;-3.97;-43.64;-286.77;-400.00;0.37;176.18;-18.93;12.32 
2.759;-0.23;0.14;0.37;-27.20;-13.43;9.95;-47.61;-294.34;-392.00;0.46;175.53;-17.83;11.84 
2.789;-0.28;0.06;0.40;-34.43;-13.91;1.39;-58.52;-294.34;-395.00;0.49;174.80;-17.63;10.93 
2.819;-0.26;0.00;0.31;-22.05;-15.10;-9.46;-62.49;-300.02;-386.00;0.40;174.33;-17.22;10.13 
2.850;-0.33;0.17;0.72;-27.41;5.22;-41.81;-75.38;-300.96;-385.00;0.81;174.69;-17.57;9.11 
2.880;-0.14;0.33;0.72;1.95;-68.10;4.03;-79.35;-308.54;-379.00;0.80;175.15;-16.47;8.27 
2.910;0.00;0.19;0.65;55.30;-75.97;59.06;-73.40;-317.05;-385.00;0.68;174.20;-14.00;9.66 
2.940;0.08;0.14;0.83;32.56;-107.76;36.80;-63.48;-326.52;-388.00;0.85;172.97;-11.11;11.42 
2.970;0.17;0.26;0.62;22.75;-133.22;56.90;-56.54;-357.75;-392.00;0.69;171.87;-6.71;12.47 
3.000;0.26;-0.03;0.47;24.97;-169.32;62.33;-53.56;-374.79;-391.00;0.54;169.97;-1.80;13.09 
3.029;3.33;0.36;4.03;42.85;69.63;27.27;-53.56;-399.39;-394.00;5.24;168.27;3.44;13.71 
3.060;-2.84;2.10;6.95;228.87;-333.70;93.08;-36.70;-366.27;-404.00;7.80;164.15;3.37;16.14 
3.090;0.62;0.62;1.10;-31.03;-847.51;160.90;0.99;-508.23;-379.00;1.41;160.15;22.14;18.47 
3.120;-0.42;0.08;0.08;1.25;-596.73;222.96;-34.72;-615.18;-285.00;0.43;149.18;45.43;13.88 
3.150;-1.42;0.55;0.23;-55.30;-278.75;44.38;-64.47;-656.82;-219.00;1.54;139.78;56.92;10.71 
3.180;-1.02;0.14;0.02;-67.27;-307.06;46.47;-79.35;-682.38;-158.00;1.03;135.43;65.08;9.01 
3.210;-0.36;-0.47;-2.05;-180.59;-284.17;157.36;-117.04;-691.84;-69.00;2.13;125.07;73.91;4.74 
3.240;1.58;-0.35;-1.58;-33.74;124.45;-111.93;-136.88;-686.16;-33.00;2.26;123.22;77.58;1.10 
3.271;2.60;0.71;-0.53;154.23;-105.11;-163.83;-94.23;-704.14;-51.00;2.75;127.68;74.76;9.11 
3.301;1.02;0.94;-0.42;141.57;-137.81;202.99;-77.37;-711.71;-43.00;1.45;114.49;78.59;8.39 
3.331;0.64;0.25;-0.18;71.23;-150.26;69.36;-115.06;-697.52;-15.00;0.71;100.38;84.41;4.84 
3.362;1.03;-0.23;-0.42;10.37;-124.31;85.98;-121.01;-694.68;-1.00;1.14;89.07;86.89;2.34 
3.392;1.22;-0.30;-0.71;29.98;-141.36;52.59;-141.84;-684.27;29.00;1.44;79.29;83.74;-0.30 
3.422;0.82;-0.09;-0.66;7.17;-95.72;45.91;-148.78;-676.70;51.00;1.06;71.46;79.55;-2.11 
3.452;0.76;-0.03;-0.75;-27.90;-56.35;39.65;-164.65;-671.02;77.00;1.07;66.04;76.71;-3.56 
3.482;0.64;-0.10;-0.66;-4.66;-25.53;48.42;-169.61;-662.50;88.00;0.92;61.84;74.80;-4.91 
3.512;0.68;-0.20;-0.77;11.69;-21.22;21.29;-177.55;-655.88;88.00;1.05;59.19;73.30;-6.25 
3.542;0.95;-0.31;-0.92;-0.07;9.74;6.75;-181.51;-657.77;93.00;1.36;58.04;72.59;-6.98 
3.573;1.00;-0.43;-0.94;7.37;44.52;-7.17;-178.54;-654.93;88.00;1.44;58.54;72.95;-7.31 
3.603;0.88;-0.30;-0.86;-2.78;92.59;-30.54;-181.51;-657.77;82.00;1.27;61.29;74.67;-7.12 
3.633;0.94;-0.14;-0.66;-9.81;152.28;-45.77;-171.60;-668.18;60.00;1.16;66.58;77.88;-6.18 
3.663;0.94;0.00;-0.40;-1.39;191.58;-43.83;-161.68;-672.91;29.00;1.02;75.76;82.65;-4.93 
3.693;1.20;0.14;0.12;14.54;210.23;-51.90;-151.76;-677.64;-19.00;1.21;87.57;86.28;-3.69 
3.723;1.06;0.21;0.51;20.03;125.36;-23.65;-142.83;-677.64;-54.00;1.19;99.04;83.29;-2.42 
3.753;0.86;0.18;0.62;-1.46;14.96;-6.82;-137.87;-676.70;-71.00;1.08;103.32;81.18;-1.95 
3.784;0.92;0.13;0.54;-1.25;5.22;-15.44;-137.87;-678.59;-70.00;1.07;104.84;80.51;-1.68 
3.814;1.02;0.18;0.24;-3.48;-62.05;-10.16;-134.90;-680.48;-66.00;1.06;104.18;81.24;-1.27 
3.843;1.06;0.20;-0.07;-4.52;-62.05;8.63;-131.92;-682.38;-55.00;1.08;101.08;83.10;-1.26 
3.874;1.04;0.09;-0.26;-5.43;-41.39;17.04;-136.88;-681.43;-47.00;1.08;97.53;84.70;-1.77 
3.904;1.06;-0.02;-0.30;-0.77;-16.77;11.27;-139.86;-682.38;-45.00;1.10;94.86;85.53;-2.36 
3.934;1.02;-0.05;-0.26;0.77;-1.81;0.90;-141.84;-681.43;-39.00;1.05;93.73;85.66;-2.73 
3.964;1.06;0.00;-0.23;0.90;-0.42;-5.08;-142.83;-678.59;-38.00;1.08;93.59;85.62;-2.82 
3.994;1.06;0.01;-0.23;-0.21;-0.14;-2.85;-136.88;-680.48;-38.00;1.08;93.26;85.75;-2.83 
4.024;1.08;0.00;-0.22;-0.77;5.77;-5.08;-142.83;-683.32;-38.00;1.10;93.31;85.68;-2.88 
4.054;1.06;0.05;-0.18;-0.77;10.50;-7.51;-139.86;-684.27;-39.00;1.08;93.88;85.47;-2.85 
4.085;1.05;0.10;-0.13;-0.90;11.83;-5.01;-136.88;-682.38;-40.00;1.06;94.41;85.37;-2.72 
4.115;1.03;0.07;-0.04;-1.18;6.40;-1.74;-133.90;-685.21;-39.00;1.03;94.86;85.22;-2.68 
4.145;1.02;0.08;-0.09;-0.97;-2.99;-0.77;-135.89;-682.38;-44.00;1.03;94.82;85.19;-2.73 
4.175;1.02;0.07;-0.14;0.07;-4.03;0.56;-136.88;-686.16;-39.00;1.03;94.39;85.37;-2.74 
4.204;1.06;0.08;-0.16;0.35;2.37;1.39;-134.90;-684.27;-39.00;1.07;93.98;85.45;-2.84 
4.234;1.02;0.06;-0.11;0.49;3.06;0.83;-137.87;-683.32;-40.00;1.03;93.76;85.42;-2.96 
4.264;1.03;0.05;-0.16;0.00;0.97;1.04;-136.88;-681.43;-43.00;1.04;93.55;85.40;-3.06 
4.295;1.04;0.06;-0.16;-0.14;1.25;0.14;-139.86;-683.32;-42.00;1.05;93.21;85.41;-3.18 
4.325;1.04;0.04;-0.12;0.21;4.45;-0.63;-136.88;-684.27;-40.00;1.05;93.01;85.41;-3.25 
4.355;1.06;0.04;-0.14;-0.14;2.57;-0.83;-137.87;-681.43;-45.00;1.07;93.00;85.34;-3.31 
4.386;1.03;0.06;-0.12;-0.42;0.21;0.28;-138.86;-682.38;-43.00;1.04;92.83;85.35;-3.37 
4.416;1.02;0.05;-0.10;-0.14;2.02;-0.21;-133.90;-681.43;-42.00;1.03;92.50;85.37;-3.46 
4.446;1.02;0.05;-0.12;0.35;3.90;-0.42;-136.88;-684.27;-41.00;1.03;92.38;85.34;-3.53 
4.476;1.05;0.05;-0.11;0.83;2.43;-0.35;-136.88;-683.32;-46.00;1.06;92.33;85.29;-3.59 
4.506;1.05;0.05;-0.11;0.77;-0.07;-0.07;-133.90;-682.38;-47.00;1.06;92.13;85.28;-3.66 
4.536;1.05;0.04;-0.11;0.70;-0.63;0.28;-138.86;-685.21;-42.00;1.06;91.82;85.29;-3.75 
4.565;1.04;0.02;-0.13;1.39;0.35;-1.11;-137.87;-681.43;-44.00;1.05;91.54;85.30;-3.82 
4.595;1.03;0.05;-0.11;1.60;1.04;-2.64;-133.90;-682.38;-45.00;1.04;91.37;85.33;-3.84 
4.625;1.02;0.02;-0.10;0.63;-1.60;-4.80;-134.90;-683.32;-46.00;1.03;91.25;85.42;-3.79 
4.655;1.05;0.07;-0.12;0.35;-3.97;-5.57;-132.91;-684.27;-45.00;1.06;91.05;85.59;-3.69 
4.686;1.05;0.07;-0.14;0.83;-2.99;-3.13;-133.90;-682.38;-42.00;1.06;90.76;85.78;-3.60 
4.716;1.04;0.08;-0.12;0.63;-1.53;-2.71;-135.89;-685.21;-42.00;1.05;90.49;85.92;-3.54 
4.746;1.06;0.08;-0.11;0.70;-0.90;-2.43;-130.93;-686.16;-43.00;1.07;90.30;86.01;-3.51 
4.776;1.04;0.10;-0.13;0.70;-1.18;-0.90;-130.93;-685.21;-41.00;1.05;90.13;86.07;-3.50 
4.807;1.03;0.04;-0.15;0.70;-1.18;-0.07;-135.89;-683.32;-44.00;1.04;89.96;85.97;-3.61 
4.837;1.05;0.06;-0.15;0.70;0.14;0.00;-130.93;-685.21;-46.00;1.06;89.69;85.98;-3.66 
4.867;1.06;0.05;-0.10;0.35;0.42;0.00;-131.92;-684.27;-43.00;1.07;89.52;85.97;-3.71 
4.898;1.04;0.08;-0.11;0.00;1.39;0.07;-131.92;-688.05;-41.00;1.05;89.36;85.94;-3.76 
4.928;1.04;0.07;-0.15;-0.49;1.53;0.56;-131.92;-686.16;-40.00;1.05;89.26;85.91;-3.80 
4.957;1.03;0.06;-0.14;-0.49;1.18;0.90;-130.93;-685.21;-41.00;1.04;89.16;85.84;-3.89 
4.987;1.02;0.09;-0.14;-0.49;1.39;0.56;-130.93;-685.21;-47.00;1.03;89.01;85.77;-3.98 
5.017;1.05;0.06;-0.15;-0.77;1.53;0.77;-129.94;-684.27;-42.00;1.06;88.87;85.72;-4.04 
5.047;1.06;0.08;-0.12;-0.77;1.32;0.83;-132.91;-685.21;-46.00;1.07;88.75;85.65;-4.13 
5.077;1.04;0.06;-0.12;-0.49;0.83;0.00;-129.94;-686.16;-44.00;1.05;88.69;85.60;-4.17 
5.108;1.03;0.06;-0.13;-0.21;0.42;0.70;-132.91;-685.21;-44.00;1.04;88.56;85.55;-4.24 
5.138;1.04;0.09;-0.16;-0.49;2.16;0.00;-128.94;-684.27;-42.00;1.06;88.45;85.52;-4.29 
5.167;1.06;0.05;-0.12;-0.42;3.69;-0.21;-130.93;-685.21;-45.00;1.07;88.45;85.47;-4.33 
5.198;1.06;0.08;-0.10;-0.42;2.09;-0.49;-130.93;-683.32;-44.00;1.07;88.48;85.46;-4.33 
5.228;1.07;0.06;-0.13;-0.35;1.11;-0.28;-134.90;-682.38;-45.00;1.08;88.42;85.45;-4.35 
5.258;1.06;0.07;-0.15;-0.21;1.32;-0.49;-130.93;-684.27;-46.00;1.07;88.33;85.44;-4.38 
5.288;1.05;0.06;-0.10;0.00;1.11;-0.49;-132.91;-685.21;-45.00;1.06;88.26;85.43;-4.40 
5.319;1.03;0.06;-0.14;-0.28;0.07;-0.14;-135.89;-685.21;-44.00;1.04;88.18;85.40;-4.44 
5.349;1.03;0.08;-0.11;-0.07;0.21;0.21;-130.93;-683.32;-46.00;1.04;88.06;85.40;-4.45 
5.378;1.04;0.06;-0.15;-0.14;0.97;0.07;-132.91;-683.32;-46.00;1.05;87.97;85.38;-4.47 
5.409;1.02;0.06;-0.14;-0.14;0.49;0.14;-132.91;-686.16;-45.00;1.03;87.87;85.38;-4.49 
5.439;1.06;0.07;-0.11;0.07;-0.21;0.21;-131.92;-688.05;-43.00;1.07;87.73;85.35;-4.54 
5.469;1.05;0.06;-0.14;0.00;0.42;0.00;-134.90;-686.16;-46.00;1.06;87.61;85.32;-4.57 
5.499;1.05;0.06;-0.10;0.07;0.35;0.21;-131.92;-683.32;-43.00;1.06;87.53;85.30;-4.60 
5.528;1.02;0.07;-0.14;0.00;-0.35;0.35;-134.90;-682.38;-42.00;1.03;87.51;85.30;-4.60 
5.558;1.02;0.09;-0.14;-0.28;-0.21;0.35;-129.94;-684.27;-43.00;1.03;87.32;85.27;-4.65 
5.588;1.03;0.08;-0.10;0.00;-0.56;-0.21;-132.91;-684.27;-47.00;1.04;87.19;85.26;-4.67 
5.619;1.03;0.06;-0.11;0.00;-1.74;0.97;-130.93;-684.27;-43.00;1.04;86.98;85.23;-4.71 
5.649;1.03;0.07;-0.15;-0.14;-0.07;0.14;-135.89;-683.32;-41.00;1.04;86.75;85.21;-4.75 
5.679;1.04;0.09;-0.13;0.14;1.18;0.00;-133.90;-683.32;-44.00;1.05;86.63;85.21;-4.76 
5.709;1.05;0.05;-0.14;0.00;-0.63;0.21;-129.94;-685.21;-44.00;1.06;86.56;85.20;-4.77 
5.739;1.05;0.07;-0.16;-0.28;0.07;0.00;-133.90;-685.21;-43.00;1.06;86.41;85.20;-4.78 
5.769;1.03;0.06;-0.12;-0.28;0.56;0.07;-133.90;-684.27;-46.00;1.04;86.34;85.18;-4.80 
5.799;1.04;0.07;-0.14;-0.49;0.56;0.00;-133.90;-684.27;-44.00;1.05;86.23;85.16;-4.83 
5.829;1.02;0.05;-0.10;-0.07;0.35;-0.07;-132.91;-687.11;-42.00;1.03;86.14;85.15;-4.84 
5.859;1.04;0.06;-0.12;-0.14;0.56;-0.21;-133.90;-684.27;-42.00;1.05;86.04;85.15;-4.85 
5.889;1.04;0.08;-0.13;-0.14;0.70;-0.07;-133.90;-685.21;-45.00;1.05;85.95;85.13;-4.86 
5.920;1.06;0.08;-0.10;-0.07;0.83;-0.14;-133.90;-686.16;-43.00;1.07;85.92;85.12;-4.87 
5.950;1.04;0.06;-0.10;-0.42;0.70;-0.07;-130.93;-686.16;-43.00;1.05;85.90;85.13;-4.87 
5.980;1.04;0.07;-0.13;-0.21;0.35;-0.07;-133.90;-683.32;-44.00;1.05;85.81;85.13;-4.87 
6.010;1.04;0.07;-0.16;0.35;0.77;-0.21;-130.93;-685.21;-43.00;1.05;85.76;85.14;-4.86 
6.039;1.05;0.05;-0.13;0.14;1.53;-0.21;-128.94;-686.16;-44.00;1.06;85.74;85.13;-4.87 
6.069;1.04;0.06;-0.13;0.07;1.11;-0.21;-134.90;-683.32;-43.00;1.05;85.75;85.13;-4.86 
6.099;1.03;0.07;-0.11;0.00;1.18;0.14;-130.93;-684.27;-46.00;1.04;85.79;85.14;-4.86 
6.130;1.05;0.06;-0.13;0.07;-0.63;0.63;-132.91;-686.16;-44.00;1.06;85.79;85.15;-4.85 
6.160;1.05;0.06;-0.14;-0.14;0.21;0.00;-136.88;-685.21;-42.00;1.06;85.66;85.13;-4.87 
6.190;1.05;0.06;-0.13;0.42;2.57;-0.90;-131.92;-684.27;-44.00;1.06;85.68;85.15;-4.85 
6.220;1.03;0.09;-0.13;0.21;0.35;-0.35;-130.93;-684.27;-45.00;1.04;85.73;85.17;-4.83 
6.249;1.03;0.07;-0.14;0.35;-0.07;-0.28;-132.91;-685.21;-46.00;1.04;85.67;85.17;-4.83 
6.279;1.02;0.06;-0.10;0.63;1.18;-0.28;-131.92;-685.21;-43.00;1.03;85.64;85.18;-4.82 
6.309;1.02;0.05;-0.12;0.70;0.97;-0.21;-136.88;-683.32;-44.00;1.03;85.67;85.19;-4.81 
6.339;1.06;0.09;-0.16;0.21;0.97;-0.28;-131.92;-684.27;-45.00;1.08;85.72;85.20;-4.80 
6.369;1.05;0.06;-0.13;0.28;0.63;0.07;-133.90;-685.21;-45.00;1.06;85.74;85.20;-4.80 
6.399;1.06;0.07;-0.14;0.21;0.42;-0.14;-130.93;-685.21;-45.00;1.07;85.72;85.21;-4.79 
6.430;1.02;0.07;-0.14;0.07;0.35;0.07;-132.91;-687.11;-44.00;1.03;85.69;85.20;-4.80 
6.460;1.04;0.06;-0.15;-0.49;-0.14;0.42;-133.90;-684.27;-42.00;1.05;85.67;85.21;-4.79 
6.489;1.04;0.04;-0.14;-0.28;0.63;0.49;-132.91;-686.16;-46.00;1.05;85.59;85.19;-4.81 
6.520;1.05;0.06;-0.14;-0.28;1.60;0.28;-134.90;-682.38;-45.00;1.06;85.57;85.17;-4.83 
6.550;1.04;0.08;-0.11;-0.42;-0.63;0.63;-130.93;-685.21;-46.00;1.05;85.62;85.19;-4.81 
6.580;1.03;0.06;-0.14;0.00;-0.56;0.83;-135.89;-687.11;-44.00;1.04;85.53;85.18;-4.82 
6.610;1.05;0.06;-0.13;-0.14;0.49;0.21;-135.89;-683.32;-44.00;1.06;85.46;85.18;-4.82 
6.640;1.03;0.07;-0.14;-0.21;1.39;0.00;-133.90;-685.21;-44.00;1.04;85.48;85.18;-4.82 
6.670;1.05;0.07;-0.10;0.21;-0.83;0.42;-131.92;-686.16;-46.00;1.06;85.57;85.18;-4.82 
6.700;1.04;0.05;-0.14;-0.14;-1.25;0.70;-133.90;-682.38;-47.00;1.05;85.46;85.18;-4.82 
6.730;1.06;0.07;-0.14;-0.14;1.60;-0.49;-134.90;-681.43;-45.00;1.07;85.37;85.17;-4.83 
6.759;1.06;0.07;-0.10;-0.07;1.74;-0.14;-132.91;-685.21;-47.00;1.07;85.41;85.18;-4.82 
6.789;1.09;0.07;-0.12;0.21;-0.83;-1.11;-134.90;-683.32;-46.00;1.10;85.43;85.20;-4.80 
6.820;1.24;0.10;-0.09;2.71;-7.51;0.00;-132.91;-683.32;-44.00;1.25;85.37;85.26;-4.73 
6.850;0.91;0.09;0.00;0.35;-34.78;16.28;-132.91;-686.16;-42.00;0.91;84.16;84.93;-5.02 
6.880;0.80;-0.05;-0.30;-1.74;-33.18;9.11;-134.90;-683.32;-36.00;0.86;81.71;84.15;-5.58 
6.910;1.08;0.01;-0.34;0.14;9.67;-9.18;-139.86;-683.32;-29.00;1.13;80.79;83.95;-5.61 
6.941;1.02;0.09;-0.10;0.63;24.77;-1.39;-137.87;-684.27;-35.00;1.03;82.03;84.33;-5.42 
6.971;1.08;0.07;0.00;0.00;2.23;0.70;-136.88;-686.16;-38.00;1.08;82.95;84.40;-5.49 
7.001;1.08;0.09;-0.11;0.49;-14.19;4.24;-136.88;-686.16;-36.00;1.09;82.65;84.34;-5.52 
7.032;1.08;0.03;-0.19;-0.21;-4.87;3.69;-137.87;-682.38;-35.00;1.10;81.87;84.13;-5.64 
7.062;1.06;0.04;-0.16;0.14;-2.09;2.92;-136.88;-685.21;-33.00;1.07;81.60;84.01;-5.73 
7.092;1.00;0.04;-0.21;-0.70;-4.52;2.92;-140.85;-685.21;-30.00;1.02;81.24;83.90;-5.80 
7.122;1.08;0.02;-0.18;-0.49;2.09;-1.53;-136.88;-683.32;-30.00;1.10;81.07;83.86;-5.82 
7.151;1.02;0.06;-0.14;-0.28;1.74;0.14;-140.85;-683.32;-30.00;1.03;81.22;83.92;-5.77 
7.180;1.02;0.00;-0.16;-0.28;-0.70;-0.63;-139.86;-682.38;-29.00;1.03;81.29;83.95;-5.74 
7.210;1.05;0.06;-0.17;0.07;0.00;-0.63;-133.90;-683.32;-33.00;1.07;81.33;84.00;-5.69 
7.241;0.98;0.05;-0.16;-0.14;0.21;0.42;-142.83;-680.48;-32.00;0.99;81.31;84.03;-5.64 
7.271;1.06;0.05;-0.17;0.49;4.31;-2.16;-137.87;-681.43;-31.00;1.07;81.40;84.07;-5.61 
7.301;1.10;0.06;-0.14;0.77;2.71;-0.70;-137.87;-686.16;-35.00;1.11;81.66;84.18;-5.53 
7.332;1.03;0.03;-0.14;-0.35;-2.92;1.39;-137.87;-682.38;-33.00;1.04;81.71;84.21;-5.50 
7.362;1.04;0.02;-0.16;-0.42;-1.32;0.07;-138.86;-683.32;-30.00;1.05;81.54;84.17;-5.51 
7.392;1.04;0.01;-0.18;0.35;2.57;-0.49;-138.86;-685.21;-32.00;1.06;81.51;84.18;-5.50 
7.421;1.03;0.04;-0.18;0.63;3.41;-1.88;-138.86;-680.48;-34.00;1.05;81.70;84.24;-5.46 
7.451;1.03;0.06;-0.14;0.07;3.83;-0.90;-136.88;-683.32;-34.00;1.04;81.95;84.35;-5.38 
7.481;1.04;0.06;-0.19;0.83;3.27;-1.74;-137.87;-683.32;-33.00;1.06;82.19;84.42;-5.34 
7.511;1.03;0.08;-0.18;0.63;2.30;-2.02;-136.88;-686.16;-34.00;1.05;82.42;84.53;-5.25 
7.542;1.06;0.09;-0.14;0.35;0.97;-0.35;-138.86;-684.27;-36.00;1.07;82.62;84.62;-5.18 
7.572;1.04;0.06;-0.14;0.00;0.21;-0.77;-136.88;-686.16;-37.00;1.05;82.68;84.66;-5.14 
7.602;1.06;0.04;-0.15;0.14;0.63;-1.46;-139.86;-684.27;-35.00;1.07;82.77;84.73;-5.07 
7.632;1.03;0.06;-0.13;0.35;-2.50;0.77;-136.88;-684.27;-35.00;1.04;82.83;84.77;-5.03 
7.662;1.02;0.04;-0.18;0.07;-4.94;0.90;-135.89;-683.32;-35.00;1.04;82.56;84.72;-5.04 
7.691;1.02;0.03;-0.17;0.56;1.11;-1.18;-136.88;-682.38;-35.00;1.03;82.39;84.68;-5.04 
7.721;1.04;0.04;-0.18;0.49;2.92;-1.67;-135.89;-684.27;-33.00;1.06;82.55;84.76;-4.98 
7.752;1.06;0.06;-0.16;0.35;1.53;-2.09;-136.88;-683.32;-37.00;1.07;82.78;84.86;-4.90 
7.782;1.06;0.09;-0.16;0.21;-0.90;-0.07;-135.89;-684.27;-34.00;1.08;82.95;84.97;-4.80 
7.812;1.05;0.04;-0.19;0.00;-2.30;0.21;-134.90;-685.21;-35.00;1.07;82.88;84.96;-4.80 
7.843;1.06;0.04;-0.16;0.07;-2.57;1.60;-134.90;-687.11;-34.00;1.07;82.73;84.93;-4.81 
7.873;1.04;0.06;-0.18;-0.21;-2.99;0.83;-130.93;-684.27;-33.00;1.06;82.56;84.88;-4.83 
7.903;1.02;0.06;-0.20;-0.14;1.18;0.28;-132.91;-683.32;-32.00;1.04;82.42;84.84;-4.84 
7.932;1.03;0.03;-0.16;-0.21;3.20;-0.42;-131.92;-684.27;-34.00;1.04;82.54;84.89;-4.81 
7.961;1.04;0.06;-0.14;-0.21;2.37;-0.35;-134.90;-683.32;-36.00;1.05;82.68;84.94;-4.78 
7.991;1.04;0.05;-0.17;-0.49;3.13;-0.35;-135.89;-684.27;-35.00;1.05;82.83;84.97;-4.77 
8.021;1.14;0.09;-0.14;0.07;2.02;-1.46;-134.90;-684.27;-36.00;1.15;83.05;85.06;-4.71 
8.052;1.02;0.08;-0.11;0.00;-6.96;3.62;-135.89;-685.21;-35.00;1.03;83.00;85.05;-4.71 
8.082;1.02;0.03;-0.23;-0.56;-6.33;0.90;-133.90;-684.27;-29.00;1.05;82.48;84.89;-4.79 
8.112;1.02;0.04;-0.18;-0.07;4.45;-0.90;-132.91;-685.21;-31.00;1.04;82.33;84.86;-4.79 
8.142;1.02;0.06;-0.14;-0.21;3.13;-1.04;-137.87;-685.21;-32.00;1.03;82.61;84.96;-4.74 
8.172;1.02;0.04;-0.19;-0.35;0.42;0.49;-134.90;-683.32;-34.00;1.04;82.83;85.05;-4.67 
8.202;1.05;0.07;-0.18;-0.07;2.37;-0.56;-136.88;-685.21;-33.00;1.07;82.91;85.09;-4.63 
8.232;1.10;0.07;-0.15;0.21;-0.77;-0.21;-135.89;-683.32;-35.00;1.11;83.09;85.18;-4.56 
8.263;1.02;0.06;-0.15;0.70;-9.74;3.97;-132.91;-682.38;-28.00;1.03;82.85;85.10;-4.60 
8.293;1.01;0.02;-0.23;-0.35;-3.83;0.21;-137.87;-686.16;-34.00;1.04;82.33;84.94;-4.67 
8.323;1.02;0.04;-0.18;-0.63;5.36;-0.83;-140.85;-683.32;-27.00;1.04;82.37;84.98;-4.63 
8.354;1.02;0.05;-0.15;-0.14;2.50;-1.18;-137.87;-684.27;-33.00;1.03;82.69;85.09;-4.57 
8.384;1.06;0.05;-0.22;-0.42;1.95;-0.56;-138.86;-685.21;-31.00;1.08;82.84;85.16;-4.51 
8.414;1.09;0.06;-0.18;-0.70;3.90;-1.04;-134.90;-687.11;-33.00;1.11;83.02;85.23;-4.48 
8.443;1.06;0.06;-0.17;-0.28;2.43;-0.56;-135.89;-685.21;-33.00;1.08;83.24;85.31;-4.42 
8.472;1.07;0.08;-0.16;-0.07;-0.56;-0.14;-137.87;-682.38;-34.00;1.08;83.36;85.35;-4.39 
8.502;1.04;0.06;-0.11;0.14;-7.51;4.03;-139.86;-683.32;-36.00;1.05;83.26;85.32;-4.41 
8.532;1.01;0.02;-0.20;0.07;-6.05;1.67;-135.89;-686.16;-31.00;1.03;82.75;85.15;-4.51 
8.563;1.01;0.05;-0.20;0.28;5.84;-1.60;-138.86;-683.32;-30.00;1.03;82.68;85.14;-4.50 
8.593;1.06;0.05;-0.15;-0.07;4.52;-1.60;-135.89;-685.21;-28.00;1.07;83.05;85.26;-4.44 
8.623;1.06;0.05;-0.21;-0.35;2.23;-0.35;-134.90;-684.27;-35.00;1.08;83.27;85.35;-4.37 
8.654;1.02;0.03;-0.18;0.00;3.55;-0.56;-133.90;-683.32;-33.00;1.04;83.45;85.42;-4.33 
8.683;1.03;0.08;-0.16;-0.28;4.31;-1.53;-137.87;-686.16;-33.00;1.05;83.69;85.50;-4.29 
8.712;1.06;0.07;-0.17;0.00;2.50;-1.25;-136.88;-686.16;-36.00;1.08;83.95;85.60;-4.22 
8.742;1.08;0.07;-0.10;0.14;-4.03;2.50;-134.90;-685.21;-31.00;1.09;84.05;85.64;-4.18 
8.772;1.02;0.02;-0.19;-0.07;-11.69;3.55;-137.87;-684.27;-32.00;1.04;83.53;85.48;-4.27 
8.802;1.01;0.03;-0.22;0.00;-1.04;0.21;-134.90;-684.27;-31.00;1.03;82.94;85.32;-4.32 
8.832;1.02;0.04;-0.18;0.21;7.30;-2.57;-136.88;-683.32;-30.00;1.04;83.13;85.39;-4.28 
8.863;1.06;0.06;-0.15;0.07;2.92;-1.11;-133.90;-685.21;-33.00;1.07;83.55;85.55;-4.18 
8.893;1.06;0.05;-0.22;-0.21;1.32;-0.70;-136.88;-681.43;-34.00;1.08;83.69;85.61;-4.13 
8.922;1.06;0.06;-0.18;-0.49;2.37;-0.56;-133.90;-686.16;-31.00;1.08;83.82;85.66;-4.10 
8.953;1.04;0.04;-0.20;-0.49;1.95;-0.70;-135.89;-683.32;-37.00;1.06;83.96;85.73;-4.05 
8.983;1.05;0.07;-0.16;-0.42;3.90;-1.18;-134.90;-684.27;-33.00;1.06;84.16;85.81;-3.99 
9.013;1.06;0.06;-0.14;-0.07;2.64;-0.42;-135.89;-685.21;-33.00;1.07;84.44;85.88;-3.95 
9.043;1.05;0.07;-0.14;0.21;-4.80;2.02;-136.88;-685.21;-35.00;1.06;84.51;85.92;-3.93 
9.074;1.02;0.06;-0.19;0.35;-8.07;1.95;-136.88;-685.21;-30.00;1.04;84.11;85.81;-3.97 
9.104;1.01;0.06;-0.22;0.28;0.14;-0.70;-138.86;-687.11;-31.00;1.04;83.80;85.73;-4.00 
9.134;1.04;0.06;-0.16;0.35;3.97;-1.53;-134.90;-685.21;-32.00;1.05;83.96;85.78;-3.98 
9.164;1.04;0.06;-0.15;0.14;1.32;-0.77;-136.88;-681.43;-33.00;1.05;84.17;85.85;-3.93 
9.194;1.05;0.06;-0.15;0.07;0.56;-0.28;-135.89;-685.21;-30.00;1.06;84.27;85.90;-3.90 
9.224;1.05;0.06;-0.15;-0.56;1.60;0.07;-137.87;-682.38;-32.00;1.06;84.39;85.94;-3.87 
9.254;1.04;0.06;-0.16;-0.49;1.53;-0.42;-134.90;-687.11;-31.00;1.05;84.48;85.97;-3.86 
9.284;1.03;0.07;-0.15;0.00;0.14;0.00;-136.88;-685.21;-32.00;1.04;84.57;86.01;-3.82 
9.314;1.03;0.03;-0.16;0.28;-3.62;0.63;-132.91;-684.27;-34.00;1.04;84.48;85.99;-3.83 
9.344;1.02;0.06;-0.14;0.42;-0.28;0.00;-137.87;-686.16;-35.00;1.03;84.40;85.98;-3.82 
9.374;1.02;0.08;-0.18;0.21;0.14;-1.32;-136.88;-685.21;-33.00;1.04;84.43;86.01;-3.79 
9.404;1.06;0.06;-0.21;0.42;0.77;0.21;-135.89;-682.38;-32.00;1.08;84.45;86.03;-3.77 
9.434;1.04;0.06;-0.18;-0.21;1.95;-0.42;-135.89;-686.16;-32.00;1.06;84.56;86.07;-3.73 
9.465;1.03;0.07;-0.17;-0.42;2.64;-0.28;-134.90;-685.21;-32.00;1.05;84.71;86.12;-3.71 
9.495;1.04;0.06;-0.17;-0.49;2.02;-0.90;-135.89;-687.11;-31.00;1.06;84.85;86.17;-3.67 
9.525;1.04;0.06;-0.17;-0.42;2.99;-0.63;-134.90;-684.27;-31.00;1.06;84.97;86.23;-3.63 
9.555;1.03;0.05;-0.18;-0.70;2.99;-0.35;-136.88;-686.16;-33.00;1.05;85.15;86.29;-3.59 
9.584;1.04;0.06;-0.18;-0.28;3.20;-0.77;-135.89;-685.21;-34.00;1.06;85.33;86.34;-3.56 
9.613;1.05;0.06;-0.14;-0.21;3.76;-0.63;-131.92;-683.32;-35.00;1.06;85.56;86.40;-3.52 
9.643;1.04;0.06;-0.18;-0.42;2.78;0.00;-134.90;-685.21;-35.00;1.06;85.80;86.46;-3.48 
9.674;1.11;0.06;-0.12;-0.35;2.43;0.70;-136.88;-684.27;-37.00;1.12;85.93;86.48;-3.47 
9.704;1.02;0.07;-0.14;-1.04;2.92;0.21;-134.90;-683.32;-34.00;1.03;86.03;86.49;-3.48 
9.734;1.03;0.06;-0.15;-0.83;3.41;0.07;-134.90;-689.95;-34.00;1.04;86.17;86.49;-3.49 
9.764;1.05;0.05;-0.14;-0.97;3.48;0.07;-134.90;-686.16;-35.00;1.06;86.34;86.51;-3.48 
9.793;1.05;0.07;-0.16;-0.56;2.30;0.07;-133.90;-686.16;-40.00;1.06;86.51;86.54;-3.45 
9.823;1.03;0.05;-0.19;0.35;2.37;-0.49;-135.89;-683.32;-40.00;1.05;86.63;86.55;-3.44 
9.853;1.04;0.04;-0.14;0.14;2.16;-0.56;-135.89;-683.32;-40.00;1.05;86.80;86.59;-3.41 
9.883;1.05;0.06;-0.16;-0.07;0.90;-0.07;-133.90;-681.43;-37.00;1.06;86.91;86.62;-3.38 
9.913;1.02;0.06;-0.16;-0.49;-1.25;0.49;-134.90;-681.43;-39.00;1.03;86.96;86.64;-3.36 
9.943;1.04;0.05;-0.16;-0.49;-1.11;0.56;-134.90;-684.27;-39.00;1.05;86.88;86.63;-3.37 
9.974;1.06;0.05;-0.16;-0.21;0.49;0.00;-136.88;-684.27;-37.00;1.07;86.86;86.64;-3.36 
10.004;1.06;0.06;-0.15;-0.35;0.35;0.07;-133.90;-682.38;-39.00;1.07;86.92;86.65;-3.35 
10.033;1.05;0.06;-0.13;-0.49;-0.49;0.42;-134.90;-683.32;-39.00;1.06;86.90;86.65;-3.35 
10.063;1.06;0.08;-0.14;-0.35;-0.56;0.28;-134.90;-684.27;-40.00;1.07;86.91;86.65;-3.35 
10.093;1.03;0.06;-0.15;-0.21;-0.56;0.49;-135.89;-683.32;-38.00;1.04;86.85;86.64;-3.36 
10.123;1.05;0.03;-0.17;-0.35;0.14;-0.35;-134.90;-683.32;-37.00;1.06;86.80;86.62;-3.37 
10.153;1.04;0.06;-0.14;-0.21;0.07;-0.21;-136.88;-684.27;-37.00;1.05;86.83;86.64;-3.35 
10.184;1.02;0.06;-0.19;-0.28;-1.39;0.28;-136.88;-681.43;-38.00;1.04;86.79;86.67;-3.33 
10.214;1.03;0.05;-0.17;-0.28;-0.77;0.28;-137.87;-685.21;-35.00;1.05;86.75;86.68;-3.32 
10.243;1.02;0.06;-0.16;-0.42;0.63;-0.28;-134.90;-683.32;-33.00;1.03;86.75;86.68;-3.31 
10.274;1.05;0.05;-0.13;-0.21;0.90;-1.25;-136.88;-685.21;-35.00;1.06;86.83;86.71;-3.28 
10.304;1.05;0.06;-0.18;0.70;0.28;-0.56;-134.90;-683.32;-34.00;1.07;86.86;86.75;-3.24 
10.334;1.04;0.06;-0.16;-0.21;1.04;-0.49;-134.90;-686.16;-37.00;1.05;86.90;86.79;-3.20 
10.364;1.06;0.06;-0.15;-0.63;1.04;0.07;-135.89;-682.38;-37.00;1.07;86.96;86.82;-3.17 
10.394;1.04;0.03;-0.13;-0.49;0.28;0.49;-131.92;-685.21;-40.00;1.05;86.95;86.83;-3.17 
10.424;1.02;0.06;-0.11;-0.77;1.39;0.49;-135.89;-680.48;-36.00;1.03;87.02;86.84;-3.15 
10.454;1.02;0.04;-0.16;-0.49;-0.28;0.14;-136.88;-683.32;-37.00;1.03;87.08;86.86;-3.14 
10.485;1.04;0.05;-0.17;-0.07;0.97;0.00;-135.89;-684.27;-36.00;1.05;87.09;86.86;-3.13 
10.515;1.04;0.03;-0.16;-0.07;1.67;0.35;-135.89;-682.38;-38.00;1.05;87.13;86.86;-3.14 
10.545;1.06;0.04;-0.15;-0.14;0.77;0.14;-136.88;-685.21;-37.00;1.07;87.17;86.87;-3.13 
10.575;1.05;0.06;-0.14;-0.42;0.97;0.07;-133.90;-685.21;-37.00;1.06;87.19;86.87;-3.13 
10.605;1.02;0.05;-0.17;0.00;0.90;-0.35;-135.89;-684.27;-36.00;1.04;87.23;86.87;-3.13 
10.635;1.02;0.03;-0.15;-0.07;0.21;-0.56;-137.87;-685.21;-40.00;1.03;87.30;86.92;-3.08 
10.664;1.06;0.06;-0.15;0.56;-0.42;-1.88;-135.89;-682.38;-35.00;1.07;87.33;86.97;-3.03 
10.693;1.02;0.06;-0.18;1.04;1.81;-0.56;-136.88;-686.16;-36.00;1.04;87.38;87.02;-2.98 
10.723;0.95;0.07;-0.16;-0.56;6.05;-1.39;-137.87;-684.27;-40.00;0.97;87.58;87.04;-2.96 
10.753;1.11;0.06;-0.14;-2.30;3.48;-1.95;-130.93;-683.32;-38.00;1.12;87.92;87.10;-2.89 
10.784;0.99;0.09;-0.15;-2.30;1.74;6.96;-134.90;-684.27;-37.00;1.01;88.01;87.04;-2.94 
10.814;1.02;0.04;-0.12;-5.98;1.81;4.52;-133.90;-682.38;-38.00;1.03;87.94;86.84;-3.13 
10.844;1.06;0.05;-0.13;-2.71;-5.36;1.95;-138.86;-684.27;-37.00;1.07;87.88;86.82;-3.15 
10.874;1.07;0.05;-0.17;3.55;-2.37;0.90;-136.88;-682.38;-38.00;1.08;87.72;86.82;-3.17 
10.904;1.06;0.06;-0.17;1.60;-5.01;3.13;-134.90;-682.38;-36.00;1.08;87.50;86.80;-3.19 
10.934;1.02;0.01;-0.14;-0.21;-0.97;6.47;-139.86;-681.43;-36.00;1.03;87.28;86.69;-3.31 
10.964;1.03;0.01;-0.15;1.74;-2.92;2.71;-136.88;-685.21;-36.00;1.04;87.02;86.54;-3.45 
10.994;1.02;0.02;-0.18;0.49;-5.50;1.53;-137.87;-682.38;-35.00;1.04;86.83;86.42;-3.58 
11.024;1.03;0.00;-0.18;-0.97;-4.80;1.25;-138.86;-683.32;-32.00;1.05;86.59;86.30;-3.70 
