Time(s) acc_x(g) acc_y(g) acc_z(g) gyr_x(°/s) gyr_y(°/s) gyr_z(°/s) mag_x(G) mag_y(G) mag_z(G) SVM(g) yaw(°) pitch(°) roll(°)
0.000;0.32;0.41;0.80;0.63;2.92;2.09;28.76;-485.52;-392.00;0.95;145.20;23.20;23.53 
0.030;0.34;0.37;0.78;0.70;1.95;3.76;26.78;-487.41;-396.00;0.93;145.11;23.17;23.54 
0.059;0.34;0.37;0.75;0.07;3.55;2.78;29.76;-486.46;-394.00;0.90;145.00;23.18;23.54 
0.089;0.29;0.36;0.71;0.00;3.41;2.64;25.79;-482.68;-393.00;0.85;144.91;23.15;23.50 
0.119;0.31;0.38;0.78;0.28;0.97;3.06;30.75;-484.57;-395.00;0.92;144.81;23.16;23.48 
0.149;0.32;0.38;0.77;0.07;0.28;2.02;25.79;-482.68;-396.00;0.92;144.70;23.22;23.48 
0.179;0.34;0.38;0.77;-0.21;1.25;0.28;24.80;-485.52;-394.00;0.92;144.66;23.23;23.48 
0.209;0.33;0.41;0.78;0.07;-0.56;1.11;27.77;-484.57;-393.00;0.94;144.64;23.24;23.50 
0.240;0.30;0.40;0.77;0.49;-1.88;1.95;25.79;-483.63;-394.00;0.92;144.59;23.31;23.54 
0.270;0.31;0.38;0.76;0.77;-1.46;2.99;23.81;-480.79;-397.00;0.90;144.50;23.41;23.55 
0.299;0.34;0.36;0.77;1.18;0.70;2.92;25.79;-485.52;-393.00;0.92;144.40;23.46;23.57 
0.328;0.30;0.38;0.77;0.97;-0.77;2.85;27.77;-482.68;-396.00;0.91;144.31;23.52;23.58 
0.358;0.32;0.36;0.78;0.00;1.11;1.67;25.79;-484.57;-394.00;0.92;144.23;23.54;23.56 
0.388;0.32;0.35;0.78;-0.63;2.37;0.42;25.79;-483.63;-392.00;0.91;144.19;23.52;23.55 
0.418;0.34;0.37;0.77;-0.49;1.74;-0.63;25.79;-483.63;-395.00;0.92;144.20;23.47;23.56 
0.448;0.31;0.39;0.80;-0.56;0.83;-1.04;26.78;-484.57;-394.00;0.94;144.23;23.42;23.59 
0.478;0.33;0.42;0.80;0.49;-1.39;0.21;22.81;-481.73;-394.00;0.96;144.27;23.40;23.64 
0.508;0.30;0.41;0.80;1.39;-3.48;1.53;23.81;-484.57;-394.00;0.95;144.24;23.47;23.69 
0.539;0.34;0.37;0.78;1.18;-5.70;0.90;25.79;-485.52;-391.00;0.93;144.18;23.61;23.73 
0.568;0.34;0.39;0.78;-0.14;-6.68;0.00;27.77;-486.46;-395.00;0.94;144.15;23.77;23.76 
0.598;0.34;0.41;0.82;-5.01;-4.73;-0.28;24.80;-487.41;-391.00;0.98;144.12;23.94;23.69 
0.628;0.34;0.44;0.78;-2.37;-10.37;-0.63;22.81;-489.30;-387.00;0.96;144.16;24.12;23.64 
0.658;0.36;0.43;0.70;1.39;-12.24;5.15;24.80;-491.20;-389.00;0.90;144.08;24.49;23.67 
0.688;0.37;0.38;0.68;0.70;-6.54;5.43;25.79;-494.98;-389.00;0.86;143.85;24.88;23.67 
0.718;0.44;0.30;0.72;-2.30;-6.75;0.35;19.84;-494.98;-388.00;0.90;143.69;25.17;23.56 
0.749;0.39;0.35;0.74;-2.71;-6.96;-5.22;23.81;-495.93;-385.00;0.91;143.69;25.44;23.49 
0.779;0.33;0.45;0.73;-2.02;0.21;-0.90;25.79;-498.77;-388.00;0.92;143.81;25.52;23.55 
0.809;0.31;0.39;0.78;-0.07;0.28;5.77;22.81;-499.71;-388.00;0.93;143.78;25.47;23.54 
0.840;0.26;0.39;0.78;-1.18;-8.56;4.66;20.83;-499.71;-383.00;0.91;143.63;25.58;23.51 
0.869;0.27;0.43;0.72;-2.64;-9.04;4.45;19.84;-498.77;-387.00;0.88;143.53;25.82;23.42 
0.898;0.23;0.37;0.72;-2.99;-2.99;4.31;22.81;-503.50;-384.00;0.84;143.42;25.99;23.34 
0.928;0.26;0.32;0.71;-4.03;4.38;-3.41;21.82;-500.66;-382.00;0.82;143.40;25.90;23.24 
0.958;0.21;0.38;0.68;-2.57;3.62;-6.47;16.86;-500.66;-383.00;0.81;143.62;25.64;23.23 
0.988;0.26;0.40;0.66;3.41;5.91;-2.37;15.87;-499.71;-384.00;0.81;143.82;25.35;23.36 
1.018;0.23;0.42;0.66;0.63;7.72;4.10;20.83;-496.88;-379.00;0.82;143.87;25.15;23.56 
1.049;0.15;0.35;0.68;-1.18;23.17;5.91;15.87;-495.93;-385.00;0.78;143.82;24.69;23.57 
1.079;0.17;0.29;0.69;-1.11;20.10;0.14;17.85;-493.09;-385.00;0.77;143.80;23.98;23.49 
1.109;0.21;0.29;0.66;-3.48;16.97;-7.03;16.86;-489.30;-385.00;0.75;143.97;23.34;23.44 
1.140;0.15;0.31;0.64;-2.64;24.14;-7.03;17.85;-485.52;-389.00;0.73;144.31;22.58;23.51 
1.170;0.14;0.33;0.67;-0.56;29.63;-5.91;13.89;-481.73;-391.00;0.76;144.60;21.63;23.63 
1.200;0.20;0.27;0.70;2.92;21.70;-3.62;15.87;-474.16;-394.00;0.78;144.86;20.73;23.77 
1.230;0.18;0.20;0.66;4.10;-0.14;-3.55;17.85;-468.48;-393.00;0.71;144.97;20.26;23.84 
1.261;0.10;0.18;0.47;1.81;-3.90;-12.38;14.88;-469.43;-394.00;0.51;145.17;20.20;23.95 
1.291;0.04;0.26;0.49;-3.62;33.46;-27.69;17.85;-468.48;-393.00;0.56;145.87;19.52;24.20 
1.321;0.06;0.37;0.54;3.27;57.32;-31.44;17.85;-463.75;-394.00;0.66;146.92;17.66;24.58 
1.352;0.06;0.33;0.63;8.14;39.79;-13.29;20.83;-451.45;-397.00;0.71;147.75;15.82;25.15 
1.382;0.04;0.24;0.67;5.01;35.27;-11.34;23.81;-447.66;-401.00;0.71;148.14;14.64;25.51 
1.412;0.07;0.19;0.70;0.35;46.96;-30.47;24.80;-440.09;-402.00;0.73;148.69;13.24;25.59 
1.442;0.06;0.25;0.82;7.03;56.28;-46.89;21.82;-425.89;-408.00;0.86;149.87;11.12;25.90 
1.472;0.00;0.34;0.90;-16.77;35.20;-42.43;26.78;-418.32;-411.00;0.96;151.19;9.06;26.07 
1.501;0.02;0.38;0.76;-17.60;-1.95;-43.83;23.81;-415.48;-408.00;0.85;152.46;8.02;25.75 
1.531;-0.07;0.30;0.66;-1.53;-7.51;-27.76;19.84;-417.38;-408.00;0.73;153.59;7.70;25.67 
1.562;-0.05;0.41;0.54;-14.40;5.36;-27.83;15.87;-422.11;-406.00;0.68;154.37;7.41;25.66 
1.592;-0.06;0.51;0.66;-28.38;-27.55;10.16;10.91;-420.21;-403.00;0.84;155.14;6.69;25.36 
1.622;0.03;0.26;0.62;6.12;-60.45;33.32;6.94;-426.84;-402.00;0.67;154.48;8.09;25.03 
1.652;0.14;0.43;0.66;2.64;-99.41;31.23;2.98;-438.20;-399.00;0.80;153.59;10.32;24.85 
1.682;0.45;0.32;0.51;35.34;-125.29;49.04;0.00;-455.23;-390.00;0.75;152.38;14.25;25.28 
1.712;0.41;0.45;0.78;47.37;-154.30;54.68;5.95;-488.36;-384.00;0.99;150.59;18.78;26.01 
1.742;0.02;0.51;1.02;74.64;-209.95;47.10;9.92;-515.80;-372.00;1.14;148.69;24.01;26.95 
1.773;0.38;0.51;0.70;52.59;-356.52;101.43;16.86;-550.82;-349.00;0.95;145.70;31.73;27.66 
1.803;3.88;1.59;2.16;40.00;-127.86;69.08;6.94;-601.93;-307.00;4.72;139.37;43.03;26.40 
1.833;1.30;3.51;4.53;78.05;434.43;251.90;-5.95;-516.75;-369.00;5.88;138.36;27.16;24.36 
1.864;0.98;0.84;2.05;113.18;-999.17;204.24;-1.98;-553.66;-345.00;2.42;129.69;40.47;22.71 
1.894;-1.16;-0.26;-0.14;-195.83;-963.90;318.47;-27.77;-672.91;-197.00;1.20;115.33;67.46;16.94 
1.924;-1.34;0.32;-0.17;-165.91;-578.37;399.17;-103.16;-683.32;-210.00;1.39;91.45;81.46;6.09 
1.954;-1.20;-0.06;-0.96;-59.55;-501.70;186.78;-193.42;-624.64;145.00;1.54;67.96;67.35;-2.63 
1.984;0.31;-0.84;-2.10;-60.66;-343.93;13.84;-200.36;-579.21;214.00;2.28;55.65;53.62;-4.14 
2.013;1.64;-0.26;-1.98;-11.48;9.60;14.19;-200.36;-551.77;249.00;2.58;51.53;47.23;-3.99 
2.043;1.38;0.70;-0.63;48.49;-74.71;-13.57;-201.35;-554.61;248.00;1.67;51.75;47.83;-4.37 
2.074;0.88;-0.06;-0.99;93.57;-232.14;9.32;-207.30;-537.57;253.00;1.33;51.72;43.49;-5.63 
2.104;0.14;-0.49;-1.51;21.70;-303.03;105.11;-220.20;-498.77;271.00;1.59;47.54;35.67;-8.23 
2.134;-0.87;-0.48;-1.74;-14.54;-320.70;91.27;-231.11;-450.50;289.00;2.00;42.91;25.85;-10.07 
2.164;-0.85;-0.20;-1.13;3.34;-141.36;71.72;-226.15;-402.23;306.00;1.43;39.43;17.48;-10.65 
2.194;-0.10;-0.42;-1.13;21.01;202.09;-24.21;-231.11;-388.98;305.00;1.21;38.83;18.23;-11.22 
2.223;0.00;-0.24;-0.56;13.57;177.53;-72.77;-232.10;-422.11;292.00;0.61;41.34;24.80;-11.26 
2.253;0.44;-0.33;-0.86;-24.56;-3.41;-18.30;-229.12;-445.77;288.00;1.02;43.61;27.98;-10.58 
2.283;0.52;-0.35;-1.38;3.27;-7.44;17.95;-229.12;-443.88;293.00;1.52;43.50;28.07;-10.32 
2.313;0.26;-0.44;-1.21;-7.65;36.17;-13.22;-227.14;-441.98;292.00;1.31;43.84;28.90;-10.46 
2.343;0.45;-0.30;-1.18;-25.04;70.26;-34.16;-224.17;-459.96;290.00;1.30;45.10;30.92;-9.70 
2.374;0.54;-0.17;-0.95;-19.41;57.04;-29.08;-218.21;-471.32;289.00;1.11;46.85;33.82;-8.52 
2.404;0.65;-0.06;-0.77;-18.85;42.64;-12.38;-213.25;-480.79;286.00;1.01;48.37;36.40;-7.57 
2.434;0.80;-0.03;-0.84;-16.35;15.72;0.35;-213.25;-489.30;287.00;1.16;49.07;37.84;-6.87 
2.464;0.74;-0.06;-0.92;0.63;-1.18;8.63;-210.28;-489.30;286.00;1.18;49.37;38.54;-6.65 
2.493;0.71;-0.18;-0.96;-3.27;3.41;1.60;-210.28;-487.41;284.00;1.21;49.54;39.02;-6.78 
2.523;0.66;-0.09;-0.94;-13.77;7.72;-9.88;-211.27;-488.36;286.00;1.15;49.98;39.62;-6.44 
2.553;0.66;-0.03;-0.90;-5.98;6.54;-3.76;-210.28;-490.25;286.00;1.12;50.56;40.30;-5.97 
2.584;0.61;-0.10;-0.93;-0.49;-8.28;3.48;-208.30;-489.30;288.00;1.12;50.90;40.73;-5.84 
2.614;0.53;-0.14;-1.01;1.60;-18.23;6.33;-206.31;-489.30;290.00;1.15;50.91;40.67;-5.94 
2.644;0.48;-0.12;-1.06;1.53;-18.92;4.73;-209.29;-486.46;289.00;1.17;50.81;40.32;-6.06 
2.675;0.45;-0.14;-1.09;3.62;-10.71;3.06;-209.29;-481.73;288.00;1.19;50.78;40.06;-6.21 
2.705;0.42;-0.14;-1.05;0.83;-1.04;-0.63;-211.27;-478.89;292.00;1.14;50.92;40.06;-6.31 
2.734;0.46;-0.16;-1.02;-1.74;6.47;-3.06;-206.31;-478.89;292.00;1.13;51.21;40.34;-6.27 
2.764;0.53;-0.14;-1.04;-0.56;8.07;-2.64;-208.30;-480.79;289.00;1.18;51.60;40.82;-6.21 
2.794;0.57;-0.15;-1.02;-0.28;4.87;-0.63;-210.28;-483.63;290.00;1.18;51.98;41.31;-6.17 
2.824;0.55;-0.13;-0.99;-0.35;4.03;-0.28;-208.30;-482.68;286.00;1.14;52.29;41.71;-6.15 
2.854;0.56;-0.13;-0.98;-0.07;3.34;-0.70;-209.29;-484.57;290.00;1.14;52.59;42.09;-6.13 
2.884;0.54;-0.14;-1.02;0.28;-0.21;-0.56;-208.30;-482.68;287.00;1.16;52.87;42.40;-6.14 
2.914;0.54;-0.14;-1.05;-0.21;-1.60;-0.21;-208.30;-482.68;289.00;1.19;53.10;42.62;-6.16 
2.944;0.53;-0.14;-1.00;-1.04;-0.21;-0.14;-209.29;-484.57;290.00;1.14;53.30;42.79;-6.16 
2.975;0.51;-0.12;-1.02;-1.60;0.90;-0.97;-207.30;-482.68;291.00;1.15;53.52;43.00;-6.12 
3.005;0.50;-0.10;-1.02;-0.56;0.56;0.28;-209.29;-483.63;290.00;1.14;53.75;43.24;-6.09 
3.035;0.51;-0.13;-1.02;-1.60;0.14;-0.35;-206.31;-481.73;293.00;1.15;53.95;43.44;-6.09 
3.065;0.52;-0.11;-1.00;-0.77;1.25;-0.42;-209.29;-484.57;289.00;1.13;54.16;43.65;-6.07 
3.096;0.53;-0.14;-1.02;-0.83;3.27;-1.32;-208.30;-483.63;291.00;1.16;54.40;43.90;-6.06 
3.126;0.53;-0.12;-0.96;-1.18;1.67;-0.90;-207.30;-483.63;291.00;1.10;54.65;44.17;-6.03 
3.156;0.54;-0.14;-0.99;-0.70;0.90;-0.90;-207.30;-484.57;291.00;1.14;54.90;44.40;-5.99 
3.186;0.52;-0.12;-0.99;-0.35;0.35;-0.63;-207.30;-483.63;290.00;1.12;55.12;44.60;-5.96 
3.216;0.53;-0.11;-1.02;-0.56;1.67;-0.63;-207.30;-485.52;292.00;1.15;55.32;44.79;-5.96 
3.246;0.53;-0.12;-1.02;-0.77;1.11;-0.35;-206.31;-485.52;292.00;1.16;55.54;45.00;-5.94 
3.276;0.53;-0.14;-0.97;-0.42;-0.49;-0.14;-206.31;-482.68;291.00;1.11;55.71;45.15;-5.96 
3.306;0.51;-0.14;-1.02;0.07;0.49;-0.28;-207.30;-484.57;291.00;1.15;55.88;45.30;-5.99 
3.335;0.54;-0.13;-1.02;-0.21;1.18;-0.83;-208.30;-486.46;290.00;1.16;56.07;45.46;-5.99 
3.365;0.54;-0.12;-1.01;-0.49;-0.35;-0.83;-208.30;-486.46;292.00;1.15;56.25;45.61;-5.98 
3.396;0.54;-0.13;-1.01;0.00;-0.21;-0.42;-208.30;-485.52;291.00;1.15;56.42;45.73;-5.98 
3.426;0.52;-0.12;-1.01;-0.14;-0.07;0.00;-206.31;-483.63;288.00;1.14;56.58;45.82;-6.00 
3.456;0.52;-0.13;-1.02;-0.21;0.42;-0.35;-206.31;-482.68;290.00;1.15;56.73;45.94;-6.01 
3.486;0.54;-0.12;-1.02;-0.63;0.35;-0.49;-208.30;-483.63;290.00;1.16;56.90;46.06;-6.01 
3.516;0.52;-0.13;-1.00;-1.11;-0.07;-0.49;-208.30;-484.57;295.00;1.13;57.04;46.17;-6.01 
3.546;0.53;-0.13;-0.97;-0.83;0.00;-0.49;-208.30;-487.41;291.00;1.11;57.19;46.26;-6.00 
3.576;0.54;-0.14;-1.01;-1.39;0.63;-0.63;-206.31;-484.57;292.00;1.15;57.34;46.37;-6.01 
3.606;0.51;-0.13;-0.98;-1.67;0.70;-1.04;-209.29;-481.73;290.00;1.11;57.50;46.50;-6.00 
3.635;0.51;-0.12;-1.02;-1.11;0.83;-0.56;-208.30;-485.52;291.00;1.15;57.66;46.61;-5.98 
3.665;0.54;-0.12;-0.98;-0.77;0.21;-0.49;-211.27;-485.52;293.00;1.13;57.82;46.73;-5.95 
3.696;0.57;-0.10;-0.98;-0.90;0.42;-0.28;-205.32;-484.57;294.00;1.14;57.97;46.81;-5.94 
3.726;0.53;-0.12;-1.02;-0.49;0.35;-0.49;-207.30;-487.41;294.00;1.16;58.11;46.90;-5.94 
3.756;0.52;-0.12;-1.02;-0.77;0.28;-0.42;-205.32;-485.52;288.00;1.15;58.25;47.00;-5.94 
3.785;0.54;-0.12;-0.99;-1.25;0.07;-0.56;-206.31;-484.57;290.00;1.13;58.40;47.10;-5.93 
3.815;0.52;-0.12;-1.00;-0.77;-0.14;-0.21;-206.31;-487.41;292.00;1.13;58.52;47.17;-5.94 
3.845;0.54;-0.13;-1.02;-0.56;0.14;-0.35;-207.30;-483.63;292.00;1.16;58.65;47.23;-5.94 
3.875;0.50;-0.12;-1.03;-0.63;1.04;-0.07;-206.31;-484.57;291.00;1.15;58.77;47.30;-5.96 
3.906;0.52;-0.13;-1.01;-0.35;0.70;-0.14;-205.32;-484.57;290.00;1.14;58.90;47.38;-5.97 
3.935;0.53;-0.13;-1.00;-0.35;0.83;-0.56;-206.31;-486.46;293.00;1.14;59.03;47.47;-5.99 
3.965;0.52;-0.12;-1.01;-0.56;0.49;-0.35;-207.30;-485.52;292.00;1.14;59.15;47.54;-6.01 
3.996;0.50;-0.12;-1.01;-0.83;0.07;-0.35;-202.34;-483.63;295.00;1.13;59.26;47.60;-6.01 
4.026;0.54;-0.13;-1.02;-0.56;0.35;-0.14;-204.33;-486.46;293.00;1.16;59.37;47.66;-6.02 
4.056;0.52;-0.10;-0.98;-0.56;1.39;-0.28;-201.35;-485.52;293.00;1.11;59.51;47.74;-6.00 
4.086;0.54;-0.10;-1.00;-1.04;0.83;-0.21;-205.32;-484.57;294.00;1.14;59.62;47.82;-6.01 
4.115;0.51;-0.13;-1.01;-0.35;-0.21;0.07;-205.32;-484.57;294.00;1.14;59.72;47.86;-6.03 
4.145;0.50;-0.12;-1.02;-0.42;0.14;0.14;-205.32;-481.73;294.00;1.14;59.81;47.88;-6.03 
4.175;0.51;-0.11;-1.02;-0.49;2.16;-0.42;-203.34;-483.63;296.00;1.15;59.92;47.94;-6.05 
4.206;0.56;-0.10;-1.02;-0.49;1.18;-0.42;-203.34;-486.46;294.00;1.17;60.07;48.03;-6.03 
4.236;0.52;-0.11;-1.02;-0.21;-0.21;0.07;-203.34;-489.30;296.00;1.15;60.18;48.08;-6.03 
4.265;0.52;-0.13;-1.02;-0.21;0.90;-0.07;-208.30;-485.52;293.00;1.15;60.28;48.11;-6.05 
4.296;0.52;-0.10;-1.02;-0.56;1.25;0.07;-204.33;-487.41;293.00;1.15;60.39;48.17;-6.06 
4.326;0.53;-0.13;-0.99;-0.77;0.35;-0.21;-203.34;-485.52;294.00;1.13;60.50;48.22;-6.06 
4.356;0.51;-0.14;-1.02;-0.83;0.90;-0.21;-204.33;-486.46;296.00;1.15;60.61;48.27;-6.06 
4.386;0.52;-0.11;-0.99;-0.70;0.70;-0.42;-203.34;-486.46;294.00;1.12;60.72;48.32;-6.06 
4.415;0.53;-0.12;-1.02;-0.49;1.04;0.00;-208.30;-485.52;296.00;1.16;60.83;48.36;-6.06 
4.445;0.52;-0.13;-1.01;-0.42;0.90;-0.14;-206.31;-482.68;294.00;1.14;60.93;48.39;-6.06 
4.475;0.53;-0.13;-0.99;-0.14;0.77;-0.14;-203.34;-485.52;293.00;1.13;61.03;48.43;-6.08 
4.506;0.52;-0.12;-1.04;-0.14;1.04;-0.14;-204.33;-485.52;293.00;1.17;61.13;48.47;-6.10 
4.536;0.54;-0.12;-1.02;-0.07;1.18;-0.35;-207.30;-482.68;295.00;1.16;61.24;48.51;-6.11 
4.566;0.54;-0.12;-0.98;-0.21;1.04;0.07;-204.33;-486.46;296.00;1.13;61.35;48.55;-6.12 
4.595;0.54;-0.13;-1.02;-0.14;0.70;0.00;-201.35;-485.52;296.00;1.16;61.45;48.59;-6.14 
4.625;0.52;-0.13;-1.06;-0.14;0.35;0.35;-204.33;-486.46;292.00;1.19;61.53;48.60;-6.17 
4.655;0.53;-0.11;-0.99;-0.49;0.35;0.00;-206.31;-483.63;292.00;1.13;61.62;48.63;-6.19 
4.685;0.54;-0.12;-1.02;-0.07;0.63;0.28;-203.34;-482.68;294.00;1.16;61.71;48.65;-6.21 
4.714;0.55;-0.10;-1.00;0.07;0.90;0.00;-204.33;-486.46;293.00;1.15;61.80;48.68;-6.23 
4.744;0.52;-0.13;-1.01;-0.63;1.46;0.00;-202.34;-487.41;296.00;1.14;61.89;48.71;-6.24 
4.774;0.51;-0.11;-1.01;-0.14;0.42;0.00;-203.34;-484.57;292.00;1.14;62.00;48.75;-6.25 
4.805;0.50;-0.12;-1.02;-0.21;0.14;0.14;-202.34;-485.52;294.00;1.14;62.07;48.74;-6.27 
4.834;0.51;-0.10;-0.98;0.00;1.32;-0.07;-206.31;-483.63;291.00;1.11;62.17;48.75;-6.28 
4.864;0.52;-0.14;-1.00;-0.14;1.67;0.00;-205.32;-482.68;292.00;1.14;62.27;48.79;-6.29 
4.895;0.53;-0.13;-0.98;0.00;0.42;-0.07;-204.33;-486.46;293.00;1.12;62.37;48.81;-6.29 
4.925;0.53;-0.11;-1.01;0.14;0.70;0.00;-203.34;-487.41;294.00;1.15;62.46;48.81;-6.30 
4.955;0.54;-0.12;-1.02;-0.14;0.97;0.21;-203.34;-485.52;292.00;1.16;62.55;48.83;-6.33 
4.985;0.53;-0.11;-1.02;-0.35;0.77;-0.14;-204.33;-482.68;295.00;1.15;62.63;48.84;-6.34 
5.016;0.51;-0.10;-1.01;-0.21;0.90;-0.14;-204.33;-486.46;291.00;1.14;62.73;48.85;-6.34 
5.046;0.53;-0.13;-1.01;-0.35;0.42;0.07;-204.33;-485.52;293.00;1.15;62.82;48.85;-6.34 
5.075;0.53;-0.12;-1.02;-0.28;1.04;-0.14;-208.30;-483.63;295.00;1.16;62.91;48.85;-6.34 
5.105;0.52;-0.14;-1.02;-0.42;1.11;-0.14;-202.34;-485.52;294.00;1.15;63.01;48.86;-6.34 
5.135;0.52;-0.11;-0.98;-0.35;0.35;-0.14;-205.32;-485.52;293.00;1.11;63.10;48.87;-6.35 
5.165;0.51;-0.11;-1.01;-0.49;0.49;0.07;-206.31;-484.57;295.00;1.14;63.18;48.85;-6.36 
5.195;0.53;-0.11;-1.02;-0.56;0.83;-0.42;-204.33;-487.41;294.00;1.15;63.27;48.86;-6.36 
5.225;0.49;-0.12;-1.04;-0.63;1.18;-0.49;-202.34;-487.41;292.00;1.16;63.38;48.88;-6.35 
5.255;0.52;-0.13;-1.02;0.00;0.49;0.00;-203.34;-486.46;293.00;1.15;63.48;48.88;-6.34 
5.285;0.52;-0.13;-1.00;-0.49;0.70;-0.14;-202.34;-486.46;294.00;1.13;63.58;48.88;-6.34 
5.316;0.52;-0.10;-0.98;-0.42;1.04;-0.14;-207.30;-485.52;291.00;1.11;63.68;48.88;-6.33 
5.346;0.53;-0.12;-1.01;-0.21;0.83;0.07;-204.33;-483.63;291.00;1.15;63.79;48.89;-6.33 
5.376;0.51;-0.12;-1.02;-0.56;0.07;-0.07;-204.33;-487.41;292.00;1.15;63.87;48.87;-6.32 
5.406;0.53;-0.12;-1.02;-0.70;0.77;-0.07;-205.32;-488.36;293.00;1.16;63.96;48.87;-6.33 
5.436;0.52;-0.10;-1.02;-0.28;0.00;0.00;-206.31;-487.41;291.00;1.15;64.05;48.86;-6.34 
5.466;0.55;-0.12;-1.02;-0.63;-0.35;-0.35;-205.32;-484.57;292.00;1.17;64.13;48.82;-6.35 
5.496;0.53;-0.11;-1.00;-0.42;1.11;-0.14;-206.31;-484.57;296.00;1.14;64.22;48.83;-6.35 
5.526;0.54;-0.13;-1.02;-0.56;1.53;-0.42;-202.34;-485.52;293.00;1.16;64.33;48.85;-6.34 
5.555;0.52;-0.12;-1.00;-0.28;0.42;-0.07;-205.32;-485.52;294.00;1.13;64.43;48.86;-6.33 
5.585;0.52;-0.13;-1.01;-0.42;0.00;0.00;-207.30;-485.52;293.00;1.14;64.50;48.83;-6.34 
5.616;0.52;-0.11;-1.02;-0.49;0.49;0.07;-206.31;-484.57;291.00;1.15;64.59;48.81;-6.33 
5.646;0.56;-0.13;-0.99;-0.49;0.97;-0.28;-204.33;-486.46;296.00;1.14;64.70;48.82;-6.32 
5.676;0.54;-0.13;-1.01;-0.63;0.56;-0.14;-204.33;-484.57;295.00;1.15;64.78;48.81;-6.33 
5.705;0.52;-0.12;-1.02;-0.35;0.56;-0.28;-205.32;-486.46;295.00;1.15;64.88;48.79;-6.32 
5.735;0.51;-0.12;-1.00;-0.35;0.77;-0.28;-202.34;-484.57;294.00;1.13;64.98;48.80;-6.30 
5.765;0.50;-0.14;-0.97;-0.28;0.70;0.14;-203.34;-488.36;295.00;1.10;65.06;48.77;-6.31 
5.795;0.52;-0.12;-1.00;-0.07;1.11;-0.21;-204.33;-485.52;294.00;1.13;65.16;48.76;-6.29 
5.826;0.52;-0.11;-1.00;-0.21;1.04;-0.21;-206.31;-485.52;294.00;1.13;65.27;48.77;-6.28 
5.856;0.51;-0.11;-0.99;-0.42;1.32;-0.83;-205.32;-486.46;293.00;1.12;65.38;48.78;-6.27 
5.885;0.53;-0.12;-0.98;-0.35;0.63;0.00;-203.34;-486.46;296.00;1.12;65.49;48.78;-6.24 
5.916;0.52;-0.10;-1.00;-0.35;0.42;0.21;-203.34;-486.46;294.00;1.13;65.59;48.76;-6.24 
5.946;0.51;-0.10;-1.00;-0.49;0.83;-0.14;-204.33;-485.52;292.00;1.13;65.68;48.74;-6.24 
5.976;0.51;-0.09;-1.02;-0.14;0.83;0.14;-203.34;-488.36;292.00;1.14;65.76;48.73;-6.25 
6.006;0.53;-0.10;-1.00;-0.42;0.77;0.14;-200.36;-486.46;296.00;1.14;65.85;48.72;-6.25 
6.036;0.54;-0.11;-1.02;0.07;0.21;0.28;-204.33;-485.52;292.00;1.16;65.95;48.71;-6.25 
6.065;0.57;-0.13;-1.01;-0.28;0.49;0.07;-207.30;-486.46;293.00;1.17;66.03;48.67;-6.26 
6.095;0.53;-0.10;-1.02;-0.56;0.97;0.00;-202.34;-488.36;296.00;1.15;66.10;48.64;-6.27 
6.126;0.54;-0.10;-0.98;0.07;-0.56;0.35;-205.32;-485.52;297.00;1.12;66.20;48.62;-6.26 
6.156;0.54;-0.13;-1.01;-0.07;-0.49;0.63;-205.32;-482.68;294.00;1.15;66.26;48.55;-6.29 
6.186;0.52;-0.14;-0.99;-0.42;1.81;-0.49;-204.33;-482.68;295.00;1.13;66.34;48.52;-6.30 
6.217;0.53;-0.10;-1.02;-0.42;2.09;-0.28;-204.33;-487.41;292.00;1.15;66.45;48.55;-6.28 
6.246;0.53;-0.11;-1.01;0.14;0.21;0.56;-200.36;-484.57;294.00;1.15;66.55;48.54;-6.28 
6.276;0.53;-0.12;-1.02;0.07;0.21;0.35;-204.33;-487.41;292.00;1.16;66.64;48.51;-6.28 
6.306;0.50;-0.10;-1.03;0.00;0.42;0.42;-203.34;-484.57;292.00;1.15;66.71;48.46;-6.29 
6.336;0.52;-0.14;-1.01;0.07;0.77;0.07;-205.32;-486.46;293.00;1.14;66.81;48.44;-6.29 
6.366;0.54;-0.13;-1.03;-0.21;0.63;0.07;-205.32;-483.63;295.00;1.17;66.91;48.42;-6.27 
6.395;0.54;-0.11;-1.02;0.14;0.49;0.28;-204.33;-484.57;291.00;1.16;66.99;48.38;-6.28 
6.426;0.54;-0.14;-1.00;0.07;0.97;0.35;-208.30;-484.57;291.00;1.15;67.09;48.35;-6.28 
6.456;0.52;-0.14;-1.00;-0.49;1.25;0.00;-208.30;-485.52;294.00;1.14;67.19;48.37;-6.27 
6.486;0.48;-0.13;-1.04;-0.14;0.83;-0.21;-204.33;-485.52;294.00;1.15;67.29;48.36;-6.27 
6.516;0.52;-0.14;-1.01;-0.07;0.21;0.14;-202.34;-483.63;293.00;1.14;67.38;48.33;-6.26 
6.546;0.52;-0.12;-0.99;-0.28;0.56;0.21;-204.33;-484.57;292.00;1.12;67.49;48.31;-6.25 
6.575;0.52;-0.14;-1.02;-0.35;0.83;-0.35;-205.32;-483.63;293.00;1.15;67.58;48.30;-6.24 
6.605;0.53;-0.14;-1.02;0.07;0.14;-0.14;-201.35;-484.57;293.00;1.16;67.68;48.28;-6.23 
6.635;0.51;-0.12;-1.02;-0.14;0.77;0.07;-204.33;-486.46;291.00;1.15;67.79;48.26;-6.23 
6.665;0.53;-0.10;-0.99;-0.14;0.83;-0.07;-202.34;-484.57;292.00;1.13;67.88;48.24;-6.24 
6.695;0.53;-0.11;-1.02;-0.14;0.28;-0.07;-205.32;-486.46;290.00;1.15;67.98;48.20;-6.22 
6.726;0.54;-0.10;-1.02;0.00;0.83;0.35;-202.34;-484.57;291.00;1.16;68.07;48.17;-6.21 
6.756;0.53;-0.11;-1.02;-0.35;-0.56;0.21;-205.32;-484.57;293.00;1.15;68.17;48.14;-6.21 
6.786;0.54;-0.14;-0.99;-0.14;0.42;0.07;-204.33;-483.63;292.00;1.14;68.27;48.11;-6.20 
6.816;0.54;-0.12;-1.02;0.00;0.21;0.21;-204.33;-483.63;294.00;1.16;68.37;48.08;-6.19 
6.846;0.51;-0.13;-1.02;0.00;-0.77;0.42;-205.32;-485.52;293.00;1.15;68.45;48.01;-6.19 
6.876;0.52;-0.11;-1.03;-0.49;1.39;-0.63;-205.32;-482.68;295.00;1.16;68.55;47.98;-6.18 
6.905;0.54;-0.14;-1.00;-0.35;2.09;-0.63;-204.33;-483.63;291.00;1.15;68.68;47.99;-6.15 
6.934;0.51;-0.11;-1.02;-0.49;0.49;-0.14;-203.34;-485.52;293.00;1.15;68.79;48.00;-6.14 
6.964;0.53;-0.13;-1.01;-0.21;0.35;0.00;-204.33;-488.36;293.00;1.15;68.89;47.97;-6.13 
6.994;0.50;-0.12;-1.02;-0.14;1.11;-0.28;-208.30;-484.57;294.00;1.14;69.00;47.96;-6.11 
7.025;0.54;-0.12;-1.02;-0.28;1.32;-0.28;-206.31;-483.63;294.00;1.16;69.12;47.96;-6.10 
7.055;0.54;-0.12;-1.02;-0.49;0.70;-0.14;-204.33;-483.63;293.00;1.16;69.23;47.94;-6.07 
7.084;0.51;-0.11;-1.02;-0.49;0.63;-0.28;-203.34;-487.41;294.00;1.15;69.35;47.93;-6.05 
7.113;0.53;-0.11;-1.02;-0.63;1.11;-0.35;-207.30;-483.63;292.00;1.15;69.47;47.94;-6.03 
7.143;0.51;-0.10;-1.01;0.00;0.63;0.14;-203.34;-485.52;293.00;1.14;69.59;47.92;-6.00 
7.173;0.51;-0.12;-1.02;-0.49;0.63;-0.28;-206.31;-485.52;295.00;1.15;69.70;47.90;-5.97 
7.203;0.51;-0.13;-0.99;-0.49;0.90;-0.14;-202.34;-485.52;295.00;1.12;69.82;47.88;-5.95 
7.234;0.54;-0.11;-1.02;0.00;0.49;-0.35;-207.30;-483.63;294.00;1.16;69.94;47.87;-5.93 
7.263;0.52;-0.14;-1.02;-0.21;0.77;-0.14;-206.31;-487.41;293.00;1.15;70.05;47.83;-5.91 
7.293;0.54;-0.13;-0.98;-0.42;0.63;-0.35;-201.35;-486.46;293.00;1.13;70.16;47.81;-5.88 
7.324;0.53;-0.13;-1.00;-0.28;0.56;0.00;-203.34;-485.52;292.00;1.14;70.27;47.78;-5.88 
7.354;0.51;-0.11;-0.99;-0.28;0.35;0.00;-203.34;-485.52;292.00;1.12;70.41;47.75;-5.83 
7.384;0.51;-0.11;-0.96;-0.63;0.56;-0.07;-205.32;-488.36;292.00;1.09;70.52;47.72;-5.81 
7.413;0.50;-0.11;-1.00;-0.35;0.77;-0.35;-205.32;-485.52;295.00;1.12;70.63;47.69;-5.79 
7.443;0.54;-0.12;-0.98;0.14;0.97;0.21;-209.29;-486.46;293.00;1.13;70.75;47.66;-5.78 
7.473;0.53;-0.10;-1.02;-0.28;-0.49;0.07;-205.32;-484.57;293.00;1.15;70.86;47.62;-5.76 
7.503;0.55;-0.11;-1.01;-0.63;0.97;0.07;-204.33;-483.63;295.00;1.16;70.97;47.58;-5.73 
7.534;0.52;-0.10;-1.01;-0.07;0.07;-0.14;-205.32;-487.41;293.00;1.14;71.09;47.55;-5.70 
7.563;0.52;-0.13;-1.02;-0.42;-0.14;0.21;-204.33;-484.57;294.00;1.15;71.20;47.50;-5.69 
7.593;0.50;-0.10;-1.02;-0.83;1.32;-0.56;-201.35;-484.57;293.00;1.14;71.32;47.46;-5.65 
7.624;0.53;-0.14;-1.00;-0.77;2.09;-0.49;-204.33;-485.52;294.00;1.14;71.47;47.46;-5.60 
7.654;0.55;-0.12;-1.00;-0.28;0.28;-0.14;-201.35;-484.57;290.00;1.15;71.60;47.47;-5.57 
7.684;0.54;-0.11;-0.98;-0.07;-0.35;0.14;-203.34;-484.57;294.00;1.12;71.70;47.42;-5.56 
7.713;0.51;-0.12;-1.02;-0.28;0.63;-0.21;-202.34;-486.46;295.00;1.15;71.81;47.38;-5.55 
