Time(s) acc_x(g) acc_y(g) acc_z(g) gyr_x(°/s) gyr_y(°/s) gyr_z(°/s) mag_x(G) mag_y(G) mag_z(G) SVM(g) yaw(°) pitch(°) roll(°)
0.000;-0.22;0.00;0.90;-2.64;1.60;-6.19;-98.01;-178.60;-390.00;0.93;152.24;-9.06;2.45 
0.030;-0.19;0.00;0.90;-6.75;0.77;-7.17;-99.00;-175.73;-389.00;0.92;152.41;-9.06;2.34 
0.060;-0.14;-0.04;0.93;-10.78;0.63;-9.18;-99.00;-178.60;-385.00;0.94;152.61;-9.09;2.02 
0.091;-0.10;-0.03;0.90;-12.45;1.46;-8.21;-103.95;-176.69;-388.00;0.91;152.85;-9.09;1.65 
0.121;-0.08;-0.06;0.88;-13.01;4.38;-6.54;-105.93;-177.64;-384.00;0.89;153.05;-9.11;1.18 
0.151;-0.10;-0.03;0.88;-11.13;7.23;-5.77;-108.90;-175.73;-385.00;0.89;153.19;-9.22;0.77 
0.181;-0.13;-0.03;0.89;-9.81;9.74;-5.29;-110.88;-175.73;-381.00;0.90;153.31;-9.38;0.43 
0.211;-0.17;-0.05;0.91;-9.67;9.88;-1.39;-114.84;-174.78;-383.00;0.93;153.35;-9.64;0.10 
0.241;-0.10;0.00;0.90;-7.86;8.07;0.97;-115.83;-174.78;-382.00;0.91;153.33;-9.90;-0.18 
0.271;-0.17;0.00;0.90;-3.76;0.00;8.00;-115.83;-170.96;-377.00;0.92;153.21;-9.97;-0.29 
0.300;-0.15;-0.05;0.82;-0.70;-1.04;13.01;-119.79;-172.87;-378.00;0.84;152.89;-9.92;-0.31 
0.329;-0.16;-0.04;0.78;3.69;3.55;16.28;-116.82;-170.96;-381.00;0.80;152.48;-9.95;-0.20 
0.358;-0.24;-0.11;0.77;7.37;8.14;17.18;-114.84;-169.05;-379.00;0.81;152.02;-10.12;-0.01 
0.388;-0.33;-0.18;0.84;7.10;17.04;9.81;-113.85;-166.18;-379.00;0.92;151.62;-10.57;0.17 
0.417;-0.38;-0.17;0.89;0.14;25.95;0.28;-112.86;-158.54;-384.00;0.98;151.42;-11.31;0.20 
0.447;-0.38;-0.06;0.98;-9.11;27.90;-5.15;-113.85;-156.63;-380.00;1.05;151.43;-12.25;0.01 
0.478;-0.33;0.01;0.94;-10.78;12.10;2.02;-114.84;-149.95;-384.00;1.00;151.38;-13.03;-0.31 
0.508;-0.26;0.05;0.83;-5.15;0.49;15.93;-119.79;-149.95;-379.00;0.87;151.05;-13.26;-0.43 
0.538;-0.25;0.00;0.73;-2.02;1.18;23.10;-118.80;-146.13;-379.00;0.77;150.48;-13.31;-0.33 
0.568;-0.23;-0.12;0.71;-0.97;14.05;25.32;-117.81;-140.40;-379.00;0.76;149.74;-13.49;-0.23 
0.598;-0.31;-0.22;0.76;-1.88;32.28;15.93;-121.77;-134.67;-378.00;0.85;149.01;-14.26;-0.22 
0.628;-0.39;-0.20;0.84;-3.69;34.16;7.17;-117.81;-127.98;-376.00;0.95;148.54;-15.37;-0.35 
0.658;-0.42;-0.14;0.90;-1.39;27.69;4.31;-118.80;-124.16;-375.00;1.00;148.24;-16.43;-0.49 
0.689;-0.43;-0.07;0.92;0.14;15.10;2.92;-119.79;-116.52;-377.00;1.02;148.07;-17.22;-0.53 
0.719;-0.42;-0.03;0.82;-0.35;1.81;6.54;-116.82;-115.56;-376.00;0.92;147.90;-17.59;-0.47 
0.749;-0.39;-0.04;0.70;-1.95;5.91;6.26;-118.80;-113.65;-375.00;0.80;147.70;-17.78;-0.43 
0.779;-0.32;-0.06;0.65;-5.91;14.40;-0.77;-119.79;-114.61;-376.00;0.73;147.57;-18.22;-0.55 
0.809;-0.34;-0.07;0.64;-12.66;10.64;2.64;-122.76;-111.74;-374.00;0.73;147.46;-18.76;-0.81 
0.839;-0.36;-0.07;0.58;-12.45;13.84;3.90;-126.72;-107.92;-374.00;0.69;147.19;-19.21;-1.17 
0.869;-0.36;-0.08;0.61;-6.05;24.21;-3.13;-125.73;-104.10;-368.00;0.71;147.03;-19.94;-1.50 
0.900;-0.36;-0.05;0.60;-1.53;18.16;-2.78;-130.68;-102.19;-367.00;0.70;146.98;-20.76;-1.64 
0.930;-0.35;-0.06;0.57;-3.90;7.10;-7.03;-128.70;-100.28;-368.00;0.67;147.04;-21.33;-1.77 
0.960;-0.26;-0.06;0.62;-8.83;-0.90;-13.29;-138.60;-99.33;-365.00;0.67;147.32;-21.44;-2.04 
0.991;-0.29;-0.06;0.58;-7.10;-12.87;-20.38;-137.61;-106.97;-368.00;0.65;147.86;-21.22;-2.53 
1.021;-0.22;-0.06;0.60;4.03;-20.73;-12.73;-140.58;-109.83;-366.00;0.64;148.41;-20.79;-2.73 
1.051;-0.20;0.07;0.51;5.29;-31.79;-13.70;-138.60;-113.65;-365.00;0.55;149.01;-19.97;-2.70 
1.081;-0.18;0.11;0.52;15.10;-36.73;-2.30;-140.58;-125.11;-368.00;0.56;149.46;-18.97;-2.25 
1.112;-0.22;0.08;0.57;20.80;-39.93;-2.16;-134.64;-128.94;-367.00;0.62;149.81;-17.73;-1.60 
1.142;-0.15;0.01;0.69;19.83;-42.02;2.43;-137.61;-138.49;-370.00;0.71;150.16;-16.53;-0.87 
1.172;-0.22;-0.09;0.73;13.70;-64.63;0.42;-131.67;-148.99;-375.00;0.77;150.37;-14.96;-0.33 
1.203;-0.27;-0.12;0.74;9.67;-72.97;-14.61;-130.68;-159.50;-376.00;0.80;150.91;-12.87;-0.16 
1.232;-0.16;-0.17;0.83;19.76;-83.48;-15.65;-130.68;-172.87;-377.00;0.86;151.63;-10.66;0.07 
1.262;-0.30;-0.08;0.75;23.03;-97.39;-17.32;-128.70;-184.33;-379.00;0.81;152.37;-8.06;0.43 
1.292;-0.26;-0.02;0.89;29.08;-98.99;-19.27;-125.73;-201.52;-378.00;0.93;153.11;-5.36;1.02 
1.322;-0.21;0.00;1.03;12.31;-139.48;-24.49;-122.76;-237.81;-377.00;1.05;154.01;-1.88;1.76 
1.352;-0.15;-0.08;1.14;-11.55;-129.04;-6.05;-120.78;-257.87;-374.00;1.15;154.58;2.09;1.70 
1.382;-0.14;-0.03;0.99;-1.81;-147.27;-6.89;-125.73;-276.02;-365.00;1.00;154.67;5.71;1.38 
1.413;0.03;0.06;1.15;28.52;-175.37;0.83;-123.75;-300.85;-359.00;1.15;154.57;10.65;1.97 
1.442;0.00;-0.09;0.90;33.32;-169.04;11.69;-123.75;-336.19;-342.00;0.90;153.72;16.02;2.90 
1.472;0.06;-0.10;0.68;22.82;-142.12;17.11;-119.79;-358.15;-329.00;0.69;152.44;20.68;3.55 
1.503;0.12;-0.31;0.76;15.72;-130.37;11.34;-120.78;-373.43;-314.00;0.83;151.25;24.59;3.66 
1.533;1.63;0.06;2.54;59.90;-86.96;3.41;-121.77;-385.85;-298.00;3.02;149.85;28.40;4.11 
1.563;1.63;0.38;3.45;159.51;-288.42;-75.20;-101.97;-401.13;-286.00;3.83;148.58;31.24;6.84 
1.593;-0.28;0.99;0.69;116.52;-478.26;57.04;-66.33;-462.26;-245.00;1.24;143.42;43.44;12.53 
1.624;-0.10;-0.94;0.26;67.83;-306.57;-42.78;-74.25;-495.68;-182.00;0.98;134.94;54.78;13.14 
1.654;0.59;0.00;-0.32;48.35;-350.68;-97.81;-50.49;-528.16;-129.00;0.67;129.31;63.17;16.67 
1.684;0.66;0.26;-0.86;60.45;-287.10;-41.74;-26.73;-548.21;-42.00;1.11;121.18;68.58;18.34 
1.715;1.66;0.78;-1.48;97.95;-231.30;-52.31;-15.84;-548.21;11.00;2.36;112.11;69.55;20.41 
1.745;1.05;0.79;-1.42;62.26;-119.51;14.89;-15.84;-543.44;46.00;1.93;104.96;68.68;20.64 
1.774;1.02;0.45;-1.02;36.66;-21.50;12.24;-20.79;-540.57;64.00;1.51;101.06;68.32;19.91 
1.804;0.78;0.33;-0.74;-7.51;-9.39;-19.76;-22.77;-542.48;69.00;1.12;100.36;68.25;19.71 
1.834;0.66;0.25;-0.51;-1.46;1.39;-18.50;-12.87;-545.35;73.00;0.87;100.39;67.28;20.44 
1.864;0.61;0.03;-0.37;3.69;33.25;-11.13;-4.95;-546.30;69.00;0.71;101.08;67.31;20.60 
1.893;0.59;0.10;-0.40;2.37;7.79;-9.67;-7.92;-547.26;63.00;0.72;101.76;67.46;20.66 
1.923;0.72;0.22;-0.60;-2.71;-3.83;-0.35;-7.92;-549.17;62.00;0.96;101.61;67.46;20.59 
1.953;0.99;0.46;-0.82;-24.83;19.83;-2.99;-8.91;-550.12;60.00;1.37;101.52;67.48;20.56 
1.983;1.14;0.62;-0.78;-35.34;78.61;-23.30;-3.96;-549.17;55.00;1.51;103.36;67.63;21.01 
2.014;1.10;0.53;-0.41;-25.32;115.13;-21.50;0.99;-554.90;37.00;1.29;107.35;67.75;21.78 
2.043;1.02;0.53;-0.07;-18.92;105.67;-17.53;6.93;-559.67;6.00;1.15;111.68;67.65;22.34 
2.073;1.04;0.51;0.09;-17.39;58.23;-16.90;14.85;-559.67;-8.00;1.16;115.03;67.12;22.80 
2.103;0.90;0.40;0.00;-23.03;28.52;-16.35;17.82;-564.45;-15.00;0.98;117.14;66.52;23.19 
2.132;0.95;0.34;-0.15;-27.20;29.98;-19.34;19.80;-560.63;-22.00;1.02;118.76;65.94;23.56 
2.162;0.92;0.53;-0.12;-26.43;51.13;-17.53;24.75;-560.63;-25.00;1.07;120.57;65.27;23.92 
2.192;0.93;0.57;-0.03;-26.43;63.65;-13.43;31.68;-562.54;-39.00;1.09;122.96;64.34;24.29 
2.223;0.78;0.54;0.07;-21.08;53.22;-7.58;35.64;-562.54;-52.00;0.95;125.46;63.28;24.55 
2.253;0.82;0.52;0.19;-11.27;72.56;-17.18;31.68;-561.58;-59.00;0.99;127.25;62.45;24.59 
2.283;1.42;0.69;0.57;-17.25;45.22;-4.59;36.63;-559.67;-72.00;1.68;129.56;61.20;24.76 
2.314;0.78;0.64;0.54;3.69;-33.04;36.38;33.66;-558.72;-80.00;1.14;129.60;61.37;24.15 
2.344;0.81;0.36;0.10;5.15;-48.42;19.69;25.74;-558.72;-67.00;0.89;127.70;62.75;23.34 
2.374;0.80;0.35;0.00;-0.70;-10.57;7.86;27.72;-557.76;-60.00;0.87;126.33;63.67;22.86 
2.404;0.91;0.40;0.02;0.90;6.89;10.71;22.77;-560.63;-55.00;0.99;125.87;64.02;22.56 
2.435;0.95;0.53;0.14;1.67;15.79;19.27;16.83;-560.63;-62.00;1.10;125.59;64.27;22.11 
2.464;0.91;0.47;0.26;1.67;16.63;24.35;14.85;-559.67;-60.00;1.06;125.41;64.51;21.47 
2.494;0.86;0.42;0.26;5.70;-8.97;24.70;11.88;-557.76;-67.00;0.99;124.94;64.91;20.81 
2.524;0.90;0.35;0.14;5.15;-27.62;28.66;3.96;-557.76;-59.00;0.98;123.62;65.88;19.99 
2.553;0.97;0.30;0.07;3.34;-26.92;27.97;-5.94;-552.99;-53.00;1.02;121.88;67.15;19.07 
2.582;1.01;0.27;0.06;4.80;-22.89;22.82;-6.93;-553.94;-51.00;1.05;120.35;68.26;18.24 
2.611;1.02;0.30;0.00;4.73;-26.99;17.53;-13.86;-553.94;-46.00;1.06;118.90;69.26;17.58 
2.641;1.02;0.34;-0.10;5.98;-21.84;14.82;-15.84;-553.94;-38.00;1.08;117.49;70.18;17.05 
2.671;1.02;0.31;-0.11;4.73;-6.47;13.63;-21.78;-552.03;-37.00;1.07;116.36;70.90;16.58 
2.701;1.02;0.27;0.00;2.57;-1.81;9.04;-22.77;-550.12;-39.00;1.06;115.67;71.39;16.15 
2.731;0.99;0.31;0.00;2.09;-8.00;7.93;-22.77;-546.30;-36.00;1.04;115.28;71.70;15.81 
2.761;0.98;0.26;0.00;3.55;-10.71;8.00;-26.73;-552.03;-33.00;1.01;114.71;72.09;15.49 
2.790;1.00;0.27;-0.07;3.97;-7.65;4.45;-23.76;-551.08;-29.00;1.04;114.07;72.50;15.22 
2.821;1.04;0.26;-0.06;0.42;-2.57;-1.25;-26.73;-552.03;-29.00;1.07;113.65;72.75;15.07 
2.851;1.00;0.34;-0.04;-2.50;5.50;-6.33;-25.74;-552.03;-31.00;1.06;113.66;72.72;15.13 
2.881;1.01;0.34;0.01;-1.88;9.60;-5.43;-28.71;-550.12;-28.00;1.07;113.98;72.51;15.26 
2.911;0.99;0.35;0.02;-0.28;7.23;-4.10;-23.76;-551.08;-33.00;1.05;114.31;72.28;15.37 
2.941;0.98;0.37;0.06;0.49;2.09;-2.99;-25.74;-553.94;-35.00;1.05;114.54;72.11;15.46 
2.971;0.98;0.35;0.02;0.00;-2.02;-1.46;-22.77;-550.12;-35.00;1.04;114.59;72.05;15.52 
3.001;0.99;0.34;0.00;-0.28;-3.90;0.42;-22.77;-552.03;-33.00;1.05;114.51;72.11;15.45 
3.032;1.01;0.37;0.00;-0.63;-1.53;1.04;-23.76;-551.08;-29.00;1.08;114.32;72.22;15.40 
3.062;1.02;0.34;0.00;-0.42;1.11;0.35;-25.74;-551.08;-30.00;1.08;114.27;72.28;15.27 
3.092;1.00;0.33;0.00;-0.42;1.25;0.42;-22.77;-547.26;-31.00;1.05;114.28;72.30;15.19 
3.123;0.98;0.34;0.03;-0.07;-0.42;1.95;-21.78;-548.21;-34.00;1.04;114.26;72.34;15.06 
3.153;0.98;0.34;0.01;0.35;-2.99;2.99;-28.71;-551.08;-32.00;1.04;114.13;72.45;14.92 
3.183;0.99;0.31;0.00;0.90;-4.52;3.55;-23.76;-551.08;-30.00;1.04;113.90;72.61;14.76 
3.212;1.00;0.34;-0.02;0.83;-4.03;3.97;-28.71;-549.17;-26.00;1.06;113.66;72.79;14.57 
3.242;1.02;0.30;-0.03;0.28;-1.39;2.78;-27.72;-549.17;-29.00;1.06;113.39;72.97;14.45 
3.271;1.01;0.36;-0.03;-0.28;1.95;0.83;-26.73;-550.12;-28.00;1.07;113.23;73.08;14.34 
3.301;0.99;0.32;-0.02;-0.14;2.99;0.35;-24.75;-552.99;-27.00;1.04;113.26;73.08;14.24 
3.332;0.98;0.32;0.02;-0.14;1.95;0.07;-28.71;-548.21;-29.00;1.03;113.23;73.09;14.20 
3.361;0.99;0.31;0.00;0.21;-0.42;0.70;-26.73;-548.21;-30.00;1.04;113.24;73.10;14.14 
3.391;0.99;0.31;0.00;0.35;-2.23;1.11;-25.74;-548.21;-28.00;1.04;113.08;73.19;14.10 
3.422;1.00;0.31;0.01;0.21;-2.09;1.81;-25.74;-552.03;-27.00;1.05;112.88;73.31;14.02 
3.452;1.01;0.33;0.00;0.21;-1.11;1.39;-28.71;-548.21;-26.00;1.06;112.68;73.44;13.93 
3.482;1.00;0.32;-0.05;0.00;0.28;0.77;-30.69;-549.17;-28.00;1.05;112.61;73.50;13.82 
3.511;1.02;0.32;0.00;-0.56;0.21;0.00;-28.71;-550.12;-26.00;1.07;112.56;73.54;13.74 
3.541;1.00;0.33;0.00;-0.63;1.60;-0.21;-31.68;-547.26;-28.00;1.05;112.57;73.55;13.66 
3.571;1.01;0.32;0.00;-0.28;2.16;-0.21;-26.73;-552.03;-25.00;1.06;112.59;73.53;13.60 
3.601;1.02;0.33;0.00;-0.35;0.56;0.07;-26.73;-547.26;-28.00;1.07;112.54;73.56;13.58 
3.632;0.98;0.33;-0.03;0.00;-0.14;0.49;-32.67;-550.12;-30.00;1.03;112.46;73.60;13.55 
3.662;1.02;0.34;0.00;0.14;-0.56;0.56;-28.71;-550.12;-29.00;1.08;112.43;73.63;13.46 
3.691;0.99;0.33;-0.02;0.14;0.28;0.35;-27.72;-548.21;-26.00;1.04;112.37;73.67;13.37 
3.722;1.02;0.30;0.00;-0.21;1.11;0.21;-24.75;-552.03;-27.00;1.06;112.36;73.69;13.28 
3.752;1.02;0.31;-0.03;-0.14;1.18;-0.28;-29.70;-548.21;-28.00;1.07;112.35;73.69;13.21 
3.782;1.02;0.32;-0.03;-0.28;0.83;-0.07;-28.71;-551.08;-24.00;1.07;112.31;73.71;13.18 
3.812;1.02;0.32;0.00;-0.07;0.90;-0.90;-29.70;-548.21;-26.00;1.07;112.30;73.72;13.12 
3.843;1.01;0.34;0.00;-0.07;0.97;-0.42;-29.70;-551.08;-27.00;1.07;112.32;73.70;13.07 
3.873;0.99;0.33;0.02;0.42;-0.90;-0.14;-27.72;-546.30;-26.00;1.04;112.27;73.72;13.07 
3.903;0.99;0.31;0.00;0.49;-0.83;0.49;-28.71;-551.08;-26.00;1.04;112.20;73.76;12.99 
3.934;1.01;0.32;0.00;0.14;0.21;0.56;-25.74;-550.12;-26.00;1.06;112.12;73.82;12.91 
3.963;1.01;0.34;0.00;-0.28;1.81;-0.97;-25.74;-550.12;-26.00;1.07;112.11;73.82;12.86 
3.993;1.02;0.34;-0.02;-0.70;2.64;-1.04;-28.71;-552.03;-24.00;1.08;112.11;73.80;12.88 
4.022;0.99;0.34;-0.03;-0.56;2.57;-0.97;-28.71;-551.08;-24.00;1.05;112.16;73.75;12.90 
4.052;0.99;0.33;0.00;-0.14;1.88;-0.56;-29.70;-549.17;-26.00;1.04;112.21;73.71;12.86 
4.082;1.00;0.33;0.00;-0.21;0.77;-0.56;-26.73;-549.17;-29.00;1.05;112.25;73.68;12.82 
4.112;0.99;0.34;0.00;-0.14;0.00;-0.49;-25.74;-550.12;-28.00;1.05;112.21;73.69;12.85 
4.143;1.00;0.32;-0.06;0.42;-0.42;-0.21;-29.70;-549.17;-29.00;1.05;112.16;73.70;12.87 
4.172;1.00;0.34;0.00;0.21;0.35;-0.21;-28.71;-550.12;-27.00;1.06;112.06;73.76;12.88 
4.202;0.98;0.34;0.00;-0.07;1.39;-0.49;-29.70;-550.12;-27.00;1.04;112.01;73.78;12.87 
4.233;0.99;0.35;0.00;-0.49;1.46;-0.70;-31.68;-550.12;-29.00;1.05;112.02;73.76;12.83 
4.263;0.97;0.33;0.00;-0.14;0.35;-0.14;-26.73;-549.17;-26.00;1.02;111.96;73.78;12.84 
4.293;1.02;0.30;0.00;0.00;0.77;-0.63;-26.73;-551.08;-30.00;1.06;111.96;73.78;12.78 
4.323;1.01;0.31;0.00;0.00;2.64;-1.32;-27.72;-551.08;-28.00;1.06;112.00;73.74;12.77 
4.353;1.00;0.32;0.01;0.07;0.83;-0.97;-26.73;-548.21;-27.00;1.05;112.04;73.68;12.82 
4.383;0.97;0.34;0.00;0.70;-1.74;-0.14;-26.73;-551.08;-31.00;1.03;111.98;73.71;12.78 
4.413;1.01;0.33;-0.05;0.56;-1.32;0.63;-26.73;-550.12;-28.00;1.06;111.88;73.78;12.69 
4.444;1.01;0.32;0.00;-0.21;1.74;-0.70;-25.74;-550.12;-28.00;1.06;111.77;73.84;12.70 
4.473;0.96;0.31;0.00;-0.90;2.78;-1.18;-28.71;-551.08;-32.00;1.01;111.75;73.84;12.73 
4.503;0.99;0.31;0.00;-0.70;1.25;-0.21;-27.72;-550.12;-29.00;1.04;111.79;73.81;12.67 
4.532;0.98;0.34;0.00;-0.56;0.42;0.21;-26.73;-549.17;-27.00;1.04;111.78;73.81;12.62 
4.562;1.02;0.31;0.01;0.00;0.35;0.35;-28.71;-548.21;-28.00;1.07;111.72;73.83;12.65 
4.592;0.99;0.34;0.00;0.07;-0.28;0.70;-24.75;-551.08;-29.00;1.05;111.68;73.85;12.65 
4.622;0.98;0.32;-0.02;-0.21;-0.90;0.77;-26.73;-549.17;-29.00;1.03;111.61;73.89;12.56 
4.651;1.01;0.33;0.00;0.00;-1.46;0.97;-24.75;-552.99;-31.00;1.06;111.53;73.94;12.47 
4.681;1.00;0.34;-0.04;-0.21;-1.18;1.11;-31.68;-551.08;-28.00;1.06;111.44;74.00;12.40 
4.710;1.01;0.34;-0.02;-0.07;0.35;0.21;-27.72;-548.21;-30.00;1.07;111.31;74.09;12.40 
4.741;1.02;0.33;0.00;-0.21;1.39;0.42;-27.72;-549.17;-28.00;1.07;111.21;74.14;12.38 
4.771;1.00;0.32;0.00;0.00;0.63;0.56;-26.73;-548.21;-25.00;1.05;111.20;74.15;12.31 
4.801;1.02;0.31;0.00;-0.14;0.49;0.35;-28.71;-548.21;-26.00;1.07;111.17;74.16;12.23 
4.832;1.00;0.34;0.00;-0.28;1.04;0.00;-24.75;-550.12;-27.00;1.06;111.15;74.16;12.27 
4.861;0.98;0.34;0.02;-0.35;-0.56;0.42;-27.72;-550.12;-30.00;1.04;111.09;74.18;12.31 
4.891;1.02;0.31;-0.02;0.35;-1.60;0.42;-23.76;-551.08;-26.00;1.07;110.99;74.24;12.29 
4.921;1.00;0.33;0.00;0.49;-1.04;1.04;-27.72;-551.08;-28.00;1.05;110.84;74.34;12.27 
4.950;1.02;0.33;-0.04;-0.28;0.07;0.70;-25.74;-549.17;-25.00;1.07;110.70;74.43;12.25 
4.979;1.01;0.35;-0.04;-0.70;1.25;0.28;-29.70;-548.21;-28.00;1.07;110.61;74.48;12.26 
5.009;1.02;0.34;0.00;-0.77;1.53;-0.21;-27.72;-550.12;-26.00;1.08;110.59;74.49;12.20 
5.040;0.99;0.33;-0.02;-0.42;0.90;-0.14;-25.74;-549.17;-27.00;1.04;110.58;74.49;12.15 
5.070;0.99;0.33;-0.02;-0.07;0.63;0.56;-29.70;-548.21;-29.00;1.04;110.57;74.49;12.08 
5.100;0.99;0.33;0.00;-0.21;0.14;0.83;-26.73;-551.08;-29.00;1.04;110.53;74.50;12.01 
5.131;1.02;0.36;0.00;-0.21;-1.04;0.77;-27.72;-549.17;-25.00;1.08;110.46;74.55;11.92 
5.161;0.98;0.30;0.02;-0.14;-0.77;0.77;-27.72;-550.12;-26.00;1.03;110.30;74.66;11.90 
5.191;1.00;0.31;-0.02;-0.07;-0.49;0.77;-25.74;-549.17;-24.00;1.05;110.22;74.71;11.82 
5.221;0.99;0.31;0.00;0.07;0.07;0.77;-30.69;-546.30;-25.00;1.04;110.12;74.77;11.81 
5.252;1.01;0.31;0.00;-0.49;0.63;0.07;-28.71;-549.17;-27.00;1.06;110.02;74.84;11.81 
5.282;1.00;0.30;0.01;-0.35;0.63;-0.14;-27.72;-548.21;-29.00;1.04;109.95;74.87;11.81 
5.312;1.01;0.30;0.00;0.07;0.07;0.21;-25.74;-550.12;-25.00;1.05;109.88;74.92;11.82 
5.343;1.02;0.35;-0.03;0.00;0.28;-0.35;-30.69;-549.17;-25.00;1.08;109.82;74.95;11.74 
5.373;1.01;0.30;-0.03;-0.14;0.90;-0.42;-25.74;-550.12;-26.00;1.05;109.80;74.95;11.69 
5.403;1.01;0.34;0.00;-0.35;-0.56;0.00;-28.71;-546.30;-28.00;1.07;109.76;74.97;11.63 
5.433;1.01;0.34;-0.02;0.07;-1.04;0.35;-28.71;-549.17;-27.00;1.07;109.70;75.01;11.58 
5.462;1.00;0.30;-0.02;0.28;-0.49;0.83;-27.72;-552.03;-28.00;1.04;109.61;75.06;11.50 
5.492;0.98;0.32;-0.02;-0.14;-0.14;1.25;-29.70;-547.26;-25.00;1.03;109.53;75.11;11.44 
5.521;0.99;0.33;0.00;-0.56;0.77;0.14;-31.68;-550.12;-24.00;1.04;109.43;75.18;11.43 
5.552;1.02;0.30;0.00;-0.63;1.32;0.21;-30.69;-547.26;-24.00;1.06;109.39;75.19;11.49 
5.582;0.98;0.33;0.00;-0.21;1.18;-0.14;-28.71;-549.17;-27.00;1.03;109.33;75.22;11.52 
5.611;0.99;0.32;0.00;-0.35;0.70;0.00;-29.70;-547.26;-26.00;1.04;109.32;75.22;11.45 
5.642;0.99;0.33;0.00;-0.28;0.14;0.07;-29.70;-551.08;-24.00;1.04;109.28;75.24;11.38 
5.672;0.98;0.33;-0.04;-0.14;-0.35;0.21;-27.72;-549.17;-30.00;1.03;109.24;75.26;11.32 
5.701;1.00;0.33;-0.05;0.07;0.14;0.00;-28.71;-547.26;-27.00;1.05;109.20;75.29;11.28 
5.731;1.02;0.31;0.00;-0.49;1.11;-0.07;-29.70;-544.39;-23.00;1.07;109.14;75.32;11.30 
5.760;1.01;0.33;-0.06;-0.49;1.67;-0.28;-25.74;-548.21;-25.00;1.06;109.09;75.34;11.33 
5.790;1.02;0.30;0.00;-0.42;1.32;-0.42;-30.69;-548.21;-29.00;1.06;109.09;75.33;11.27 
5.820;1.00;0.34;0.00;-0.49;0.90;-0.21;-29.70;-550.12;-28.00;1.06;109.09;75.32;11.22 
5.850;0.98;0.34;0.00;-0.28;0.42;-0.42;-31.68;-547.26;-28.00;1.04;109.07;75.32;11.17 
5.880;1.01;0.32;0.00;-0.07;0.35;-0.14;-28.71;-549.17;-27.00;1.06;109.00;75.36;11.19 
5.910;0.98;0.33;0.00;0.14;1.11;-0.70;-30.69;-547.26;-23.00;1.03;108.98;75.36;11.17 
5.941;1.00;0.34;0.00;0.00;0.28;-0.70;-31.68;-547.26;-26.00;1.06;108.98;75.35;11.24 
5.971;0.99;0.34;0.01;0.14;-1.60;-0.21;-28.71;-552.03;-27.00;1.05;108.92;75.38;11.18 
6.001;0.99;0.34;-0.04;0.56;-1.11;0.07;-32.67;-548.21;-26.00;1.05;108.85;75.42;11.14 
6.031;1.02;0.32;-0.04;0.14;1.11;0.07;-27.72;-551.08;-24.00;1.07;108.77;75.47;11.16 
6.062;1.00;0.33;-0.04;-0.56;2.71;-0.49;-32.67;-550.12;-25.00;1.05;108.75;75.47;11.21 
6.091;1.02;0.31;-0.03;-0.49;2.99;-0.90;-28.71;-548.21;-27.00;1.07;108.76;75.45;11.28 
6.120;0.98;0.32;-0.04;-0.42;2.37;-0.90;-25.74;-551.08;-29.00;1.03;108.78;75.42;11.35 
6.151;0.98;0.34;0.01;-0.35;1.67;-0.56;-29.70;-550.12;-29.00;1.04;108.78;75.40;11.39 
6.181;1.01;0.33;0.00;-0.14;0.90;-0.42;-29.70;-546.30;-27.00;1.06;108.78;75.39;11.35 
6.211;1.01;0.32;0.01;0.00;-0.21;-0.35;-24.75;-551.08;-25.00;1.06;108.77;75.38;11.34 
6.241;1.02;0.34;-0.04;0.35;-0.42;-0.07;-28.71;-548.21;-27.00;1.08;108.73;75.41;11.31 
6.271;1.01;0.33;-0.03;-0.07;0.21;-0.49;-28.71;-549.17;-26.00;1.06;108.66;75.45;11.34 
6.301;1.00;0.32;0.00;-0.28;1.46;-0.49;-27.72;-545.35;-29.00;1.05;108.61;75.47;11.37 
6.331;1.01;0.33;-0.02;-0.28;2.16;-0.97;-28.71;-548.21;-28.00;1.06;108.64;75.44;11.36 
6.361;1.02;0.31;0.00;0.00;1.95;-0.97;-28.71;-549.17;-31.00;1.07;108.63;75.43;11.44 
6.391;0.98;0.34;0.00;-0.07;1.11;-0.90;-28.71;-546.30;-31.00;1.04;108.63;75.42;11.51 
6.421;1.01;0.33;-0.02;0.00;0.49;-0.42;-26.73;-549.17;-30.00;1.06;108.63;75.40;11.47 
6.452;1.02;0.34;-0.04;0.14;1.25;-0.83;-25.74;-549.17;-25.00;1.08;108.62;75.40;11.47 
6.482;0.99;0.34;0.00;-0.28;2.43;-1.39;-30.69;-552.03;-28.00;1.05;108.67;75.34;11.46 
6.512;1.00;0.33;0.00;-0.28;0.00;-0.28;-28.71;-549.17;-30.00;1.05;108.70;75.30;11.44 
6.541;0.98;0.33;0.00;0.14;-3.13;1.04;-23.76;-549.17;-30.00;1.03;108.63;75.35;11.48 
6.571;1.02;0.32;0.00;0.42;-1.88;1.74;-25.74;-549.17;-28.00;1.07;108.46;75.47;11.45 
6.601;0.98;0.35;-0.03;-0.49;0.63;0.90;-27.72;-550.12;-29.00;1.04;108.35;75.55;11.47 
6.630;1.00;0.31;0.00;-0.77;1.95;0.42;-27.72;-551.08;-33.00;1.05;108.31;75.57;11.47 
6.661;1.02;0.31;0.01;-0.90;1.60;0.49;-28.71;-549.17;-26.00;1.07;108.31;75.56;11.41 
6.691;1.00;0.34;0.00;-0.49;0.00;0.70;-25.74;-550.12;-27.00;1.06;108.30;75.56;11.37 
6.721;1.00;0.32;0.00;-0.21;-0.77;0.56;-29.70;-551.08;-31.00;1.05;108.24;75.60;11.32 
6.752;1.02;0.34;-0.03;-0.21;-0.07;0.42;-26.73;-550.12;-27.00;1.08;108.14;75.67;11.33 
6.782;1.01;0.33;-0.02;-0.42;0.28;0.21;-26.73;-549.17;-30.00;1.06;108.08;75.70;11.39 
6.812;1.00;0.34;0.00;-0.14;0.07;0.49;-27.72;-549.17;-29.00;1.06;108.02;75.74;11.39 
6.842;1.00;0.32;0.00;-0.35;-0.07;0.49;-26.73;-548.21;-26.00;1.05;107.94;75.79;11.39 
6.873;1.01;0.34;-0.06;-0.35;0.49;0.35;-25.74;-548.21;-26.00;1.07;107.89;75.82;11.32 
6.903;1.02;0.33;0.00;-0.42;0.35;0.28;-28.71;-550.12;-25.00;1.07;107.85;75.84;11.34 
6.933;0.98;0.34;0.00;-0.28;0.42;0.28;-28.71;-549.17;-26.00;1.04;107.82;75.86;11.38 
6.964;0.99;0.32;-0.03;-0.21;0.42;0.77;-27.72;-550.12;-27.00;1.04;107.80;75.86;11.43 
6.993;1.00;0.33;-0.02;-0.21;-0.49;0.63;-25.74;-547.26;-32.00;1.05;107.75;75.89;11.44 
7.023;1.02;0.34;-0.05;0.21;-0.56;0.28;-29.70;-549.17;-28.00;1.08;107.67;75.94;11.44 
7.053;0.98;0.34;0.00;-0.07;0.28;-0.35;-28.71;-548.21;-28.00;1.04;107.63;75.96;11.47 
7.083;1.00;0.33;0.00;-0.07;-0.14;0.00;-29.70;-550.12;-29.00;1.05;107.60;75.97;11.43 
7.112;1.00;0.33;0.00;0.07;-0.97;0.42;-28.71;-549.17;-24.00;1.05;107.55;76.00;11.45 
7.142;1.00;0.30;-0.05;0.35;-0.49;0.83;-25.74;-550.12;-26.00;1.05;107.47;76.05;11.40 
7.173;0.98;0.35;-0.06;0.07;0.28;0.56;-27.72;-548.21;-26.00;1.04;107.42;76.08;11.35 
7.203;0.98;0.32;0.00;-0.42;1.39;0.00;-27.72;-549.17;-28.00;1.03;107.40;76.09;11.38 
7.233;1.01;0.32;-0.06;-0.83;1.46;-0.14;-31.68;-548.21;-27.00;1.06;107.39;76.09;11.34 
7.264;1.00;0.33;-0.04;-0.28;0.77;-0.14;-30.69;-551.08;-24.00;1.05;107.37;76.10;11.27 
7.294;1.00;0.31;-0.03;-0.28;0.63;0.14;-28.71;-550.12;-30.00;1.05;107.36;76.09;11.33 
7.323;0.99;0.32;0.00;-0.21;0.28;0.42;-27.72;-548.21;-25.00;1.04;107.30;76.12;11.35 
7.353;1.01;0.31;-0.05;-0.35;-0.63;0.21;-30.69;-549.17;-24.00;1.06;107.24;76.16;11.37 
7.384;1.06;0.35;0.00;0.14;-0.42;0.49;-28.71;-549.17;-25.00;1.12;107.16;76.22;11.37 
7.413;1.00;0.30;-0.03;-0.07;0.14;0.42;-29.70;-548.21;-23.00;1.04;107.11;76.24;11.39 
7.443;1.02;0.30;-0.05;-0.28;1.04;0.14;-30.69;-550.12;-22.00;1.06;107.06;76.27;11.41 
7.474;1.01;0.36;-0.02;-0.28;1.11;-0.28;-26.73;-549.17;-25.00;1.07;107.04;76.28;11.37 
7.503;1.02;0.33;0.01;-0.21;0.77;-0.35;-30.69;-549.17;-22.00;1.07;107.03;76.28;11.32 
7.533;0.98;0.34;-0.04;-0.21;0.56;0.07;-27.72;-550.12;-26.00;1.04;107.01;76.29;11.28 
7.563;1.01;0.33;-0.02;-0.35;0.70;0.00;-30.69;-548.21;-28.00;1.06;106.98;76.30;11.30 
7.593;1.00;0.31;-0.02;-0.14;0.42;-0.07;-28.71;-549.17;-24.00;1.05;106.95;76.31;11.34 
7.623;0.99;0.32;0.00;0.07;0.35;0.42;-29.70;-547.26;-25.00;1.04;106.93;76.32;11.38 
7.653;1.01;0.31;-0.02;0.00;0.90;-0.63;-29.70;-552.03;-23.00;1.06;106.91;76.31;11.44 
7.684;1.01;0.32;0.00;-0.07;0.14;-0.28;-27.72;-549.17;-26.00;1.06;106.91;76.30;11.43 
7.714;1.01;0.29;0.00;-0.07;-1.04;0.00;-31.68;-550.12;-26.00;1.05;106.86;76.33;11.38 
7.743;1.00;0.34;0.00;0.14;0.00;0.56;-25.74;-549.17;-28.00;1.06;106.82;76.36;11.40 
7.774;1.02;0.32;-0.02;0.00;0.70;0.21;-26.73;-547.26;-24.00;1.07;106.78;76.37;11.45 
7.804;1.02;0.31;0.00;-0.49;2.16;0.00;-30.69;-547.26;-27.00;1.07;106.78;76.35;11.51 
7.833;1.01;0.34;-0.05;-0.63;2.09;-0.35;-28.71;-550.12;-24.00;1.07;106.81;76.32;11.56 
7.862;1.01;0.33;0.00;-0.42;1.46;-0.07;-28.71;-552.03;-24.00;1.06;106.83;76.28;11.62 
7.892;1.01;0.31;-0.02;-0.07;0.70;-0.21;-27.72;-549.17;-24.00;1.06;106.84;76.27;11.66 
7.922;1.01;0.34;0.01;-0.07;0.35;-0.14;-30.69;-551.08;-23.00;1.07;106.82;76.27;11.61 
7.952;1.00;0.33;-0.03;-0.28;-0.28;-0.28;-28.71;-549.17;-26.00;1.05;106.79;76.28;11.67 
7.983;1.01;0.33;0.00;0.00;-0.21;-0.07;-30.69;-548.21;-29.00;1.06;106.75;76.29;11.70 
8.013;1.02;0.34;-0.08;0.00;0.70;-0.21;-26.73;-551.08;-25.00;1.08;106.72;76.30;11.73 
8.043;1.01;0.32;-0.02;-0.28;1.60;-0.49;-28.71;-549.17;-27.00;1.06;106.72;76.29;11.76 
8.074;1.02;0.30;0.00;-0.35;1.25;-0.56;-27.72;-549.17;-24.00;1.06;106.73;76.28;11.72 
8.104;0.99;0.33;-0.03;-0.14;1.04;-0.56;-28.71;-549.17;-30.00;1.04;106.75;76.25;11.80 
8.134;1.00;0.35;-0.01;-0.42;1.46;-1.04;-25.74;-549.17;-27.00;1.06;106.76;76.23;11.79 
8.164;1.02;0.30;0.00;-0.70;1.60;-0.90;-29.70;-549.17;-23.00;1.06;106.80;76.19;11.80 
8.195;1.00;0.33;0.00;-0.28;0.90;-1.53;-30.69;-549.17;-26.00;1.05;106.84;76.15;11.79 
8.225;1.02;0.34;-0.02;0.21;0.07;-1.53;-28.71;-550.12;-24.00;1.08;106.87;76.10;11.88 
8.255;1.01;0.33;-0.05;-0.28;1.60;-1.74;-27.72;-550.12;-26.00;1.06;106.90;76.07;11.96 
8.286;0.98;0.31;0.00;-0.63;4.59;-3.48;-29.70;-551.08;-27.00;1.03;106.99;75.97;12.07 
8.316;0.98;0.32;0.00;-0.35;1.60;-1.95;-24.75;-550.12;-28.00;1.03;107.18;75.79;12.23 
8.346;0.98;0.32;0.00;0.28;-2.92;0.97;-28.71;-550.12;-30.00;1.03;107.18;75.79;12.23 
8.375;0.99;0.32;0.00;0.63;-2.71;1.11;-22.77;-548.21;-26.00;1.04;107.07;75.86;12.24 
8.405;0.99;0.34;-0.02;-0.28;0.00;1.11;-24.75;-549.17;-30.00;1.05;106.96;75.94;12.21 
8.435;0.99;0.34;-0.05;-0.63;1.81;0.35;-26.73;-550.12;-25.00;1.05;106.93;75.95;12.24 
8.465;1.00;0.34;-0.02;-0.49;2.16;-0.07;-25.74;-552.03;-27.00;1.06;106.93;75.94;12.26 
8.496;1.01;0.30;0.00;0.21;0.35;0.56;-24.75;-549.17;-26.00;1.05;106.92;75.92;12.28 
8.526;1.01;0.32;-0.06;0.35;-0.35;0.28;-27.72;-551.08;-27.00;1.06;106.87;75.96;12.23 
8.555;1.01;0.34;-0.02;-0.07;0.07;0.21;-25.74;-549.17;-29.00;1.07;106.84;75.98;12.26 
8.586;1.01;0.33;0.01;-0.49;0.21;0.14;-26.73;-548.21;-30.00;1.06;106.81;75.98;12.29 
8.616;1.01;0.35;-0.02;-0.70;0.70;-0.90;-27.72;-546.30;-28.00;1.07;106.80;75.98;12.27 
8.645;1.04;0.33;0.00;-0.42;0.07;-2.02;-26.73;-548.21;-26.00;1.09;106.84;75.94;12.33 
8.675;1.02;0.32;0.01;-1.39;-1.18;-3.69;-26.73;-551.08;-25.00;1.07;106.88;75.89;12.38 
8.705;0.98;0.34;0.00;-1.88;-0.14;-5.98;-23.76;-551.08;-26.00;1.04;107.00;75.78;12.50 
8.735;1.02;0.35;0.00;-0.56;-3.69;-5.50;-22.77;-553.94;-28.00;1.08;107.15;75.65;12.63 
8.765;0.99;0.34;0.00;1.60;-8.42;-1.46;-21.78;-550.12;-23.00;1.05;107.12;75.66;12.71 
8.796;0.97;0.33;-0.03;2.43;-5.98;-2.57;-23.76;-552.03;-25.00;1.03;107.01;75.72;12.75 
8.826;1.00;0.32;-0.04;3.27;-2.85;-2.92;-21.78;-552.99;-24.00;1.05;106.99;75.69;12.90 
8.855;1.02;0.35;-0.05;1.53;-1.25;-4.10;-18.81;-548.21;-24.00;1.08;107.03;75.61;13.06 
8.884;0.98;0.35;0.00;1.81;-0.90;-3.97;-21.78;-551.08;-20.00;1.04;107.10;75.52;13.21 
8.914;0.98;0.36;0.02;1.39;-4.38;-3.48;-19.80;-549.17;-24.00;1.04;107.12;75.47;13.29 
8.944;1.01;0.35;0.04;1.39;-9.46;-7.86;-19.80;-553.94;-15.00;1.07;107.13;75.41;13.45 
8.974;0.97;0.50;0.04;2.23;-11.20;-15.17;-15.84;-552.99;-15.00;1.09;107.37;75.12;13.88 
9.004;0.90;0.46;-0.12;1.18;-24.07;-4.45;-12.87;-550.12;-14.00;1.02;107.49;74.87;14.36 
9.034;0.93;0.43;-0.36;-4.17;-14.12;3.27;-12.87;-553.94;-9.00;1.09;107.10;74.99;14.49 
