Time(s) acc_x(g) acc_y(g) acc_z(g) gyr_x(°/s) gyr_y(°/s) gyr_z(°/s) mag_x(G) mag_y(G) mag_z(G) SVM(g) yaw(°) pitch(°) roll(°)
0.000;-0.46;0.16;0.77;-1.81;-1.95;1.60;-77.87;-186.68;-334.00;0.91;151.08;-31.60;10.00 
0.030;-0.44;0.12;0.77;-1.18;-1.67;1.32;-81.86;-188.59;-336.00;0.89;150.94;-31.49;10.04 
0.060;-0.45;0.14;0.77;-1.18;-0.56;1.39;-79.87;-187.64;-336.00;0.90;150.80;-31.37;10.10 
0.090;-0.46;0.18;0.80;-0.97;0.83;1.67;-76.87;-188.59;-330.00;0.94;150.66;-31.32;10.16 
0.120;-0.44;0.13;0.78;-0.70;-1.04;0.28;-75.87;-189.55;-336.00;0.90;150.53;-31.26;10.22 
0.151;-0.42;0.13;0.74;-0.35;-0.83;-0.14;-78.87;-188.59;-334.00;0.86;150.45;-31.17;10.26 
0.181;-0.42;0.15;0.74;0.07;1.04;0.42;-79.87;-186.68;-332.00;0.86;150.36;-31.13;10.31 
0.211;-0.46;0.13;0.78;-0.14;-0.90;-0.28;-80.86;-187.64;-333.00;0.91;150.29;-31.10;10.36 
0.240;-0.46;0.14;0.77;1.04;-0.14;-2.23;-80.86;-187.64;-336.00;0.91;150.25;-31.04;10.39 
0.269;-0.45;0.17;0.78;0.77;-0.90;-1.39;-83.86;-187.64;-332.00;0.92;150.26;-31.00;10.45 
0.298;-0.46;0.15;0.77;1.39;1.46;-1.32;-80.86;-186.68;-337.00;0.91;150.25;-30.95;10.50 
0.327;-0.44;0.16;0.76;0.49;-0.28;-0.90;-81.86;-189.55;-333.00;0.89;150.23;-30.90;10.57 
0.356;-0.44;0.16;0.77;0.42;-0.07;-1.11;-80.86;-191.46;-335.00;0.90;150.19;-30.87;10.63 
0.386;-0.46;0.14;0.77;0.83;0.77;-1.25;-81.86;-191.46;-333.00;0.91;150.14;-30.87;10.67 
0.416;-0.46;0.16;0.76;0.90;1.60;-1.53;-77.87;-190.51;-334.00;0.90;150.14;-30.85;10.73 
0.447;-0.46;0.15;0.78;0.70;2.50;-1.46;-80.86;-187.64;-337.00;0.92;150.12;-30.92;10.80 
0.477;-0.47;0.15;0.84;0.00;0.90;0.35;-80.86;-190.51;-339.00;0.97;150.04;-30.93;10.87 
0.507;-0.42;0.13;0.77;-0.14;1.46;-0.35;-79.87;-189.55;-334.00;0.89;149.97;-30.87;10.91 
0.538;-0.47;0.17;0.77;-0.49;1.53;-1.95;-80.86;-188.59;-335.00;0.92;149.91;-30.91;10.95 
0.568;-0.48;0.15;0.80;-0.35;-0.21;-0.97;-78.87;-187.64;-334.00;0.94;149.85;-30.88;10.99 
0.598;-0.46;0.16;0.74;0.77;2.09;-1.67;-80.86;-188.59;-335.00;0.89;149.83;-30.88;11.03 
0.628;-0.46;0.18;0.78;0.00;2.09;-0.21;-79.87;-189.55;-333.00;0.92;149.79;-30.90;11.09 
0.659;-0.46;0.15;0.80;-0.49;-0.21;0.63;-82.86;-187.64;-334.00;0.93;149.69;-30.87;11.14 
0.688;-0.46;0.14;0.76;-0.21;0.56;-0.07;-82.86;-189.55;-334.00;0.90;149.61;-30.78;11.17 
0.718;-0.45;0.14;0.77;-0.49;2.92;-0.14;-81.86;-189.55;-333.00;0.90;149.53;-30.77;11.22 
0.749;-0.46;0.14;0.77;-0.83;1.95;0.63;-81.86;-186.68;-333.00;0.91;149.43;-30.80;11.24 
0.779;-0.46;0.13;0.79;0.00;0.21;0.07;-82.86;-192.42;-330.00;0.92;149.32;-30.77;11.29 
0.809;-0.46;0.16;0.75;-0.14;-0.28;-0.56;-77.87;-188.59;-330.00;0.89;149.28;-30.71;11.32 
0.839;-0.46;0.14;0.78;-0.77;-0.28;0.07;-81.86;-188.59;-330.00;0.92;149.22;-30.65;11.33 
0.869;-0.44;0.14;0.77;0.00;2.16;-1.46;-81.86;-187.64;-330.00;0.90;149.17;-30.65;11.36 
0.899;-0.46;0.13;0.77;-0.21;1.88;-1.11;-83.86;-183.81;-331.00;0.91;149.11;-30.69;11.42 
0.929;-0.44;0.15;0.78;-0.70;0.21;-0.77;-85.86;-188.59;-332.00;0.91;149.07;-30.69;11.44 
0.960;-0.45;0.17;0.77;-0.97;2.16;-0.42;-78.87;-188.59;-330.00;0.91;149.02;-30.65;11.45 
0.990;-0.45;0.15;0.78;-1.46;3.13;0.00;-83.86;-185.72;-328.00;0.91;148.93;-30.65;11.47 
1.020;-0.46;0.14;0.78;-1.18;0.70;0.07;-85.86;-186.68;-331.00;0.92;148.83;-30.66;11.49 
1.050;-0.47;0.13;0.77;-1.60;-0.07;-0.77;-82.86;-186.68;-329.00;0.91;148.75;-30.60;11.49 
1.079;-0.46;0.13;0.77;0.28;0.97;-2.57;-84.86;-187.64;-330.00;0.91;148.74;-30.60;11.46 
1.109;-0.49;0.16;0.78;-0.21;-2.02;-1.46;-84.86;-187.64;-326.00;0.93;148.76;-30.59;11.47 
1.139;-0.48;0.19;0.77;-0.42;-1.81;-0.42;-83.86;-187.64;-331.00;0.93;148.76;-30.51;11.49 
1.169;-0.48;0.17;0.74;-0.49;-0.21;1.18;-83.86;-188.59;-327.00;0.90;148.68;-30.45;11.52 
1.199;-0.49;0.14;0.77;-0.83;-0.21;1.32;-83.86;-190.51;-329.00;0.92;148.58;-30.42;11.57 
1.229;-0.46;0.15;0.77;-2.43;-1.25;1.67;-81.86;-184.76;-326.00;0.91;148.48;-30.35;11.59 
1.260;-0.45;0.16;0.77;-3.20;-0.42;4.24;-86.85;-188.59;-328.00;0.91;148.29;-30.23;11.64 
1.290;-0.46;0.17;0.77;-3.27;-0.49;3.06;-82.86;-186.68;-328.00;0.91;148.07;-30.16;11.68 
1.320;-0.48;0.13;0.77;-3.34;-1.95;2.78;-84.86;-184.76;-327.00;0.92;147.90;-30.07;11.66 
1.350;-0.46;0.10;0.78;-0.49;-0.35;0.56;-84.86;-190.51;-326.00;0.91;147.76;-30.00;11.63 
1.380;-0.46;0.12;0.80;0.21;-2.23;-1.53;-84.86;-186.68;-327.00;0.93;147.74;-29.96;11.63 
1.410;-0.43;0.11;0.76;0.70;-3.62;-3.48;-86.85;-189.55;-328.00;0.88;147.80;-29.84;11.62 
1.440;-0.45;0.11;0.77;1.88;-0.21;-7.37;-87.85;-188.59;-326.00;0.90;147.95;-29.79;11.58 
1.471;-0.48;0.12;0.79;2.16;-1.46;-9.74;-86.85;-191.46;-329.00;0.93;148.20;-29.83;11.48 
1.501;-0.49;0.14;0.78;2.09;-2.64;-10.43;-85.86;-190.51;-327.00;0.93;148.51;-29.81;11.42 
1.531;-0.48;0.14;0.77;2.02;-0.97;-10.50;-89.85;-194.34;-325.00;0.92;148.83;-29.81;11.32 
1.562;-0.54;0.14;0.82;2.30;-1.81;-10.50;-85.86;-195.29;-328.00;0.99;149.16;-29.85;11.25 
1.592;-0.53;0.15;0.78;2.37;-8.97;-9.32;-87.85;-197.21;-329.00;0.95;149.49;-29.78;11.19 
1.621;-0.46;0.14;0.78;2.30;-11.55;-8.07;-88.85;-201.04;-332.00;0.92;149.84;-29.52;11.13 
1.651;-0.44;0.13;0.77;1.81;-8.97;-8.21;-87.85;-203.91;-327.00;0.90;150.14;-29.26;11.10 
1.680;-0.49;0.14;0.77;0.90;-7.86;-7.86;-89.85;-205.82;-328.00;0.92;150.42;-29.08;11.04 
1.709;-0.50;0.13;0.80;0.70;-10.71;-7.17;-87.85;-207.74;-335.00;0.95;150.66;-28.89;10.97 
1.738;-0.51;0.09;0.86;0.83;-17.74;-6.82;-91.85;-208.70;-332.00;1.00;150.93;-28.58;10.91 
1.768;-0.46;0.12;0.76;0.77;-22.19;-4.66;-90.85;-215.40;-332.00;0.90;151.21;-28.06;10.86 
1.797;-0.42;0.09;0.78;0.56;-18.09;-5.01;-89.85;-220.18;-332.00;0.89;151.46;-27.49;10.84 
1.827;-0.44;0.10;0.76;3.34;-11.55;-8.63;-93.84;-224.01;-335.00;0.88;151.72;-27.11;10.79 
1.857;-0.48;0.11;0.79;3.90;-15.44;-8.97;-89.85;-223.06;-339.00;0.93;152.10;-26.82;10.76 
1.886;-0.48;0.14;0.77;2.78;-22.05;-4.38;-93.84;-228.80;-343.00;0.92;152.42;-26.38;10.79 
1.915;-0.46;0.10;0.77;1.95;-25.60;-2.78;-91.85;-234.54;-339.00;0.90;152.65;-25.77;10.82 
1.945;-0.48;0.09;0.74;1.95;-30.40;-5.43;-93.84;-238.37;-342.00;0.89;152.90;-25.07;10.80 
1.974;-0.46;0.10;0.66;3.48;-31.44;-5.84;-92.84;-246.03;-340.00;0.81;153.25;-24.26;10.78 
2.003;-0.41;0.14;0.62;2.71;-29.98;-2.57;-87.85;-249.86;-338.00;0.76;153.56;-23.55;10.87 
2.033;-0.31;0.15;0.69;0.14;-28.87;-0.21;-86.85;-257.52;-344.00;0.77;153.75;-22.80;10.95 
2.063;-0.34;0.18;0.77;1.32;-26.09;3.97;-92.84;-263.26;-343.00;0.86;153.84;-21.93;11.03 
2.093;-0.44;0.17;0.85;-0.56;-26.37;6.47;-91.85;-268.05;-345.00;0.97;153.79;-21.20;11.17 
2.123;-0.44;0.09;0.80;-6.89;-39.23;8.21;-93.84;-270.92;-347.00;0.92;153.63;-20.31;11.15 
2.153;-0.31;0.14;0.74;-6.61;-44.17;9.18;-93.84;-279.54;-345.00;0.81;153.46;-19.03;11.06 
2.183;-0.33;0.11;0.77;-3.13;-38.61;8.42;-93.84;-287.20;-350.00;0.84;153.29;-17.79;11.04 
2.213;-0.40;0.10;0.75;-4.59;-46.82;11.13;-92.84;-294.86;-350.00;0.86;153.12;-16.55;11.01 
2.244;-0.34;0.07;0.67;-3.76;-46.54;11.76;-93.84;-299.64;-348.00;0.75;152.89;-15.22;10.93 
2.274;-0.24;0.07;0.68;-1.60;-45.43;11.69;-97.84;-308.26;-347.00;0.72;152.68;-13.90;10.91 
2.304;-0.16;0.08;0.58;-3.83;-51.62;10.43;-99.83;-316.87;-345.00;0.61;152.48;-12.44;10.95 
2.334;-0.09;0.02;0.69;-4.38;-45.50;5.63;-98.83;-321.66;-348.00;0.70;152.33;-10.97;10.91 
2.364;-0.34;0.09;0.67;-0.77;-53.63;8.83;-99.83;-332.19;-347.00;0.76;152.24;-9.56;10.75 
2.394;-0.17;0.21;0.59;-0.14;-64.00;14.82;-104.82;-337.93;-343.00;0.65;152.04;-8.06;10.87 
2.424;-0.09;0.08;0.57;-4.45;-59.55;14.75;-102.83;-353.25;-342.00;0.58;151.73;-6.07;10.91 
2.455;-0.26;-0.08;0.54;2.23;-39.51;11.83;-103.83;-360.91;-338.00;0.60;151.38;-4.69;10.74 
2.485;-0.21;0.03;0.51;5.29;-34.71;5.50;-106.82;-366.65;-338.00;0.55;151.22;-3.79;10.68 
2.514;-0.14;0.10;0.42;1.88;-26.09;8.49;-103.83;-370.48;-340.00;0.45;151.05;-2.96;10.86 
2.544;-0.16;0.07;0.36;-7.10;-18.57;5.50;-108.82;-375.27;-336.00;0.40;150.88;-2.50;10.88 
2.573;-0.04;0.11;0.16;-9.67;-18.09;10.02;-109.82;-376.23;-330.00;0.20;150.62;-2.27;10.68 
2.603;0.20;0.01;0.14;1.95;10.02;12.52;-113.81;-375.27;-332.00;0.24;150.26;-1.53;10.63 
2.633;-0.10;-0.06;0.44;16.21;40.83;32.21;-118.80;-369.53;-330.00;0.46;149.46;-1.97;10.95 
2.662;-0.42;0.23;0.86;12.38;-4.10;-2.30;-114.81;-361.87;-334.00;0.98;148.95;-3.31;11.46 
2.691;-0.46;0.67;1.18;-8.14;-70.26;35.76;-119.80;-368.57;-337.00;1.43;148.84;-3.59;11.86 
2.721;-0.49;0.03;0.82;-41.60;-141.84;71.03;-128.78;-376.23;-326.00;0.96;147.18;-0.65;11.12 
2.752;-0.10;0.00;0.22;-36.73;-164.73;-0.90;-143.76;-395.37;-318.00;0.24;146.28;4.15;9.68 
2.782;-0.25;0.18;0.17;-41.95;-119.65;22.82;-147.75;-411.65;-315.00;0.35;145.99;7.73;8.87 
2.812;0.46;-0.14;0.55;-27.83;-108.24;21.98;-165.72;-446.11;-296.00;0.73;145.37;11.24;7.57 
2.842;6.70;-0.62;6.53;134.40;393.60;-63.03;-165.72;-445.15;-308.00;9.38;145.16;12.70;7.90 
2.871;-9.01;0.13;0.56;151.72;1249.53;210.78;-123.79;-248.90;-336.00;9.03;140.67;-35.19;10.40 
2.901;1.38;0.81;0.01;-204.94;-641.53;203.83;-73.88;-200.08;-348.00;1.60;134.64;-21.66;16.55 
2.931;0.82;0.12;-1.14;-382.47;-20.31;-452.52;-115.81;-305.39;-321.00;1.41;138.59;-11.34;5.85 
2.961;1.52;-0.41;-1.28;-100.80;-6.47;-347.34;-203.66;-358.04;-280.00;2.03;150.49;-10.59;-5.04 
2.991;2.27;-0.08;0.93;165.22;357.22;58.78;-187.69;-365.70;-287.00;2.45;155.60;-12.90;-4.57 
3.021;0.40;0.46;1.19;-1.88;-49.11;78.89;-165.72;-316.87;-304.00;1.34;153.18;-14.26;-0.52 
3.052;-0.90;-0.34;1.06;62.26;-101.98;149.29;-168.72;-320.70;-304.00;1.43;150.43;-13.27;0.26 
3.082;-0.45;-0.21;1.54;16.14;-193.04;-5.36;-158.73;-332.19;-318.00;1.62;147.54;-8.64;2.62 
3.112;0.88;-0.07;1.13;6.12;-193.46;-28.03;-155.74;-362.83;-321.00;1.43;148.49;-2.11;3.05 
3.141;1.38;-0.02;0.80;45.22;-104.28;-3.34;-151.75;-392.50;-312.00;1.60;148.92;3.06;3.64 
3.170;1.38;0.30;0.61;32.63;9.18;-4.17;-143.76;-403.99;-315.00;1.54;148.90;5.54;4.77 
3.199;0.66;0.50;0.66;18.85;96.28;22.75;-133.78;-395.37;-325.00;1.06;148.54;4.79;5.97 
3.229;-0.05;0.11;0.56;-8.97;87.65;23.10;-131.78;-377.18;-330.00;0.57;147.81;2.34;6.34 
3.259;-0.18;-0.02;0.51;-7.30;37.63;-0.14;-136.77;-364.74;-329.00;0.54;147.27;0.40;6.10 
3.288;0.22;0.15;0.67;-0.49;20.66;-7.79;-135.77;-362.83;-329.00;0.72;147.29;-0.46;5.97 
3.317;0.63;0.27;0.77;-12.17;26.30;-23.30;-135.77;-360.91;-332.00;1.03;147.64;-0.75;6.01 
3.348;0.82;0.01;1.10;-7.44;107.97;-17.18;-139.77;-348.47;-331.00;1.37;148.16;-1.82;5.64 
3.378;-0.26;-0.02;1.40;6.33;190.68;18.16;-138.77;-326.45;-333.00;1.42;147.91;-6.41;5.54 
3.407;-1.77;0.21;1.13;13.84;31.37;120.90;-135.77;-294.86;-335.00;2.11;145.71;-11.00;6.10 
3.438;-0.90;0.03;0.70;-37.43;-80.97;-45.01;-134.77;-291.98;-333.00;1.14;143.78;-10.83;6.03 
3.468;0.30;-0.07;0.52;-21.50;-86.68;-54.89;-143.76;-319.75;-327.00;0.60;145.44;-8.21;5.14 
3.498;0.66;-0.20;0.46;-16.56;-7.65;-23.72;-143.76;-333.15;-328.00;0.83;146.81;-5.98;4.26 
3.528;0.27;-0.22;0.62;9.74;76.17;2.92;-146.75;-329.32;-322.00;0.71;146.94;-6.22;3.89 
3.558;-0.59;-0.02;1.02;20.31;75.55;15.03;-145.76;-315.92;-330.00;1.18;146.61;-8.71;4.26 
3.588;-0.69;0.16;1.07;-1.46;2.30;-8.00;-142.76;-305.39;-332.00;1.28;146.29;-10.14;4.64 
3.618;-0.25;0.06;1.07;-4.45;-15.23;-7.30;-141.76;-304.43;-330.00;1.10;146.54;-10.09;4.54 
3.649;-0.10;0.02;0.86;0.77;-12.66;-2.30;-143.76;-310.17;-330.00;0.87;146.74;-9.62;4.45 
3.679;-0.18;0.02;0.80;-0.21;-9.32;3.97;-143.76;-310.17;-332.00;0.82;146.71;-9.28;4.55 
3.709;-0.03;0.04;0.88;1.25;-16.42;-0.07;-142.76;-312.09;-328.00;0.88;146.67;-8.82;4.59 
3.739;0.10;0.07;0.91;2.92;-4.87;-0.56;-142.76;-316.87;-332.00;0.92;146.72;-8.24;4.67 
3.769;-0.04;0.07;0.86;0.56;13.57;1.74;-141.76;-317.83;-330.00;0.86;146.70;-8.15;4.81 
3.799;-0.22;0.04;0.91;-1.39;8.28;0.90;-144.76;-312.09;-330.00;0.94;146.60;-8.44;4.83 
3.829;-0.18;0.04;0.94;-0.90;-3.83;-1.25;-142.76;-311.13;-330.00;0.96;146.58;-8.53;4.81 
3.859;-0.10;0.06;0.88;0.07;-4.31;0.28;-144.76;-312.09;-330.00;0.89;146.60;-8.33;4.81 
3.889;-0.09;0.02;0.91;-0.42;0.28;0.14;-143.76;-312.09;-330.00;0.91;146.58;-8.16;4.83 
3.919;-0.10;0.00;0.87;-0.14;2.23;0.49;-144.76;-314.00;-329.00;0.88;146.55;-8.11;4.81 
3.950;-0.13;0.00;0.89;-1.60;-0.14;-0.07;-141.76;-314.00;-329.00;0.90;146.52;-8.09;4.83 
3.979;-0.12;-0.02;0.89;0.35;-0.77;0.14;-144.76;-314.96;-333.00;0.90;146.51;-8.04;4.84 
4.009;-0.10;0.03;0.86;1.81;-1.60;0.21;-142.76;-313.04;-331.00;0.87;146.50;-7.94;4.88 
4.039;-0.08;0.03;0.91;0.42;-0.35;-0.14;-143.76;-313.04;-331.00;0.91;146.50;-7.79;4.92 
4.068;-0.06;0.02;0.92;0.63;2.64;0.00;-142.76;-314.00;-332.00;0.92;146.50;-7.73;4.94 
4.098;-0.14;0.06;0.87;0.49;0.70;0.35;-137.77;-313.04;-332.00;0.88;146.49;-7.72;4.99 
4.128;-0.12;0.02;0.87;-2.02;-1.60;0.21;-144.76;-316.87;-332.00;0.88;146.47;-7.67;4.97 
4.159;-0.06;0.02;0.90;-0.49;0.70;-0.28;-139.77;-316.87;-329.00;0.90;146.45;-7.58;4.94 
4.189;-0.09;0.02;0.90;0.49;1.46;0.07;-145.76;-312.09;-331.00;0.90;146.43;-7.51;4.94 
4.219;-0.13;0.03;0.85;-0.42;-0.77;0.42;-143.76;-315.92;-330.00;0.86;146.42;-7.49;5.00 
4.250;-0.10;0.05;0.90;-1.32;0.14;-0.14;-144.76;-312.09;-330.00;0.91;146.42;-7.40;4.97 
4.279;-0.08;0.02;0.92;-1.04;1.53;0.00;-141.76;-314.96;-330.00;0.92;146.41;-7.33;4.95 
4.309;-0.10;0.00;0.86;0.07;0.56;0.00;-142.76;-314.00;-330.00;0.87;146.40;-7.31;4.93 
4.339;-0.13;0.04;0.86;-0.56;0.21;0.28;-142.76;-314.00;-330.00;0.87;146.38;-7.27;4.94 
4.369;-0.10;0.06;0.90;-0.90;0.56;-0.14;-143.76;-315.92;-330.00;0.91;146.37;-7.21;4.91 
4.398;-0.10;0.02;0.88;-0.42;0.77;-0.21;-145.76;-314.96;-333.00;0.89;146.36;-7.15;4.89 
4.427;-0.10;0.03;0.86;-0.49;0.97;-0.14;-142.76;-314.00;-328.00;0.87;146.35;-7.12;4.89 
4.458;-0.11;0.02;0.87;-0.90;0.21;0.28;-141.76;-314.00;-329.00;0.88;146.34;-7.09;4.88 
4.488;-0.09;0.02;0.90;-1.81;-0.07;-0.35;-144.76;-314.00;-328.00;0.90;146.33;-7.00;4.83 
4.518;-0.10;0.00;0.86;-0.90;0.35;-0.49;-145.76;-314.96;-326.00;0.87;146.32;-6.95;4.79 
4.549;-0.10;0.02;0.85;0.70;0.14;-0.14;-145.76;-315.92;-329.00;0.86;146.31;-6.90;4.77 
4.578;-0.10;0.01;0.90;-0.14;0.83;0.35;-143.76;-314.00;-326.00;0.91;146.30;-6.87;4.76 
4.608;-0.12;0.01;0.87;-0.70;-0.56;-0.42;-142.76;-314.00;-329.00;0.88;146.30;-6.83;4.74 
4.638;-0.09;0.03;0.90;0.56;-0.77;-0.21;-145.76;-315.92;-330.00;0.90;146.30;-6.75;4.74 
4.668;-0.09;0.02;0.88;-1.32;-0.14;0.00;-145.76;-314.96;-331.00;0.88;146.30;-6.66;4.73 
4.698;-0.08;0.01;0.90;-0.21;1.53;0.14;-148.75;-312.09;-329.00;0.90;146.29;-6.62;4.75 
4.728;-0.10;0.03;0.90;-0.07;1.25;-0.42;-145.76;-316.87;-330.00;0.91;146.28;-6.60;4.73 
4.759;-0.11;0.01;0.86;-0.14;0.56;-0.28;-146.75;-314.00;-330.00;0.87;146.28;-6.57;4.74 
4.789;-0.11;0.02;0.86;-0.49;0.14;-0.21;-143.76;-315.92;-329.00;0.87;146.28;-6.52;4.70 
4.819;-0.10;0.02;0.89;0.07;0.56;-0.07;-144.76;-314.96;-329.00;0.90;146.28;-6.47;4.70 
4.849;-0.11;0.04;0.85;-0.56;-0.28;0.42;-143.76;-312.09;-330.00;0.86;146.27;-6.44;4.69 
4.879;-0.10;0.00;0.87;0.70;0.00;0.07;-147.75;-314.00;-328.00;0.88;146.27;-6.39;4.71 
4.909;-0.09;0.03;0.91;0.35;0.97;-0.07;-143.76;-315.92;-333.00;0.91;146.26;-6.34;4.72 
4.939;-0.12;0.02;0.90;0.28;0.07;0.14;-143.76;-312.09;-327.00;0.91;146.25;-6.31;4.74 
4.969;-0.10;0.04;0.86;-0.42;-0.14;-0.07;-143.76;-314.96;-331.00;0.87;146.24;-6.26;4.75 
4.999;-0.11;0.02;0.88;-0.21;-0.70;-0.21;-143.76;-314.00;-332.00;0.89;146.24;-6.21;4.76 
5.029;-0.09;0.02;0.88;0.83;0.56;0.00;-144.76;-317.83;-330.00;0.88;146.24;-6.13;4.77 
5.060;-0.11;0.04;0.88;0.83;1.95;0.28;-142.76;-315.92;-332.00;0.89;146.24;-6.10;4.80 
5.090;-0.12;0.04;0.90;-0.56;0.07;-0.07;-143.76;-314.00;-330.00;0.91;146.23;-6.08;4.80 
5.120;-0.10;0.02;0.90;0.14;0.00;-0.07;-143.76;-315.92;-331.00;0.91;146.24;-6.05;4.77 
5.150;-0.10;0.02;0.93;1.25;0.90;-0.21;-144.76;-314.00;-335.00;0.94;146.24;-6.02;4.79 
5.179;-0.10;0.05;0.93;1.11;0.63;0.00;-143.76;-313.04;-329.00;0.94;146.25;-5.98;4.83 
5.209;-0.14;0.06;0.91;0.21;-0.63;-0.07;-145.76;-314.00;-332.00;0.92;146.25;-5.94;4.85 
5.239;-0.10;0.03;0.89;0.14;-1.46;-0.28;-144.76;-314.00;-331.00;0.90;146.26;-5.87;4.86 
5.270;-0.08;0.03;0.91;-0.21;0.42;0.14;-139.77;-315.92;-332.00;0.91;146.27;-5.78;4.86 
5.300;-0.09;0.01;0.92;-0.90;1.25;0.28;-143.76;-314.96;-330.00;0.92;146.26;-5.77;4.87 
5.330;-0.10;0.02;0.90;0.07;0.49;-0.28;-142.76;-315.92;-330.00;0.91;146.26;-5.74;4.86 
5.359;-0.10;0.03;0.86;0.35;-0.14;0.00;-144.76;-312.09;-328.00;0.87;146.26;-5.71;4.85 
5.389;-0.10;0.02;0.86;-0.42;-0.35;-0.14;-146.75;-315.92;-330.00;0.87;146.27;-5.66;4.86 
5.419;-0.10;0.02;0.91;0.14;0.63;0.00;-141.76;-314.96;-331.00;0.92;146.27;-5.62;4.85 
5.449;-0.11;0.03;0.90;0.28;0.00;0.28;-143.76;-314.96;-328.00;0.91;146.27;-5.59;4.84 
5.480;-0.11;0.04;0.90;0.77;-0.21;-0.21;-141.76;-314.00;-328.00;0.91;146.27;-5.57;4.85 
5.509;-0.12;0.01;0.86;-0.07;-1.74;0.14;-143.76;-314.00;-329.00;0.87;146.28;-5.50;4.87 
5.538;-0.08;0.01;0.85;-1.04;-1.46;0.14;-145.76;-313.04;-330.00;0.85;146.28;-5.41;4.89 
5.569;-0.10;0.00;0.88;-0.63;-0.70;0.42;-142.76;-314.96;-329.00;0.89;146.28;-5.32;4.87 
5.599;-0.10;0.03;0.90;-0.90;-0.63;0.14;-142.76;-314.00;-328.00;0.91;146.28;-5.25;4.84 
5.629;-0.09;0.04;0.90;0.42;-0.77;-0.14;-144.76;-315.92;-328.00;0.91;146.27;-5.21;4.83 
5.658;-0.10;0.04;0.91;0.56;-1.04;0.00;-145.76;-317.83;-331.00;0.92;146.27;-5.14;4.84 
5.688;-0.07;0.03;0.92;-0.07;0.49;0.21;-143.76;-315.92;-331.00;0.92;146.28;-5.06;4.86 
5.718;-0.10;0.03;0.87;-0.49;1.25;0.07;-141.76;-314.96;-333.00;0.88;146.28;-5.05;4.85 
5.748;-0.11;0.03;0.88;0.07;0.00;-0.07;-145.76;-315.92;-334.00;0.89;146.28;-5.05;4.85 
5.779;-0.10;0.01;0.88;-0.07;-0.21;-0.21;-144.76;-314.96;-330.00;0.89;146.29;-5.01;4.85 
5.808;-0.10;0.03;0.88;0.07;-0.07;-0.21;-146.75;-316.87;-331.00;0.89;146.30;-4.96;4.83 
5.838;-0.09;0.02;0.89;0.21;0.14;0.28;-144.76;-314.96;-330.00;0.89;146.30;-4.92;4.83 
5.869;-0.12;0.05;0.88;-0.21;-0.42;0.28;-141.76;-314.00;-326.00;0.89;146.31;-4.89;4.84 
5.899;-0.08;0.02;0.90;-0.21;-0.77;0.00;-140.76;-315.92;-331.00;0.90;146.31;-4.82;4.84 
5.928;-0.07;0.02;0.89;0.21;0.42;0.14;-146.75;-315.92;-329.00;0.89;146.32;-4.76;4.84 
5.958;-0.10;0.02;0.88;0.07;0.42;-0.07;-146.75;-316.87;-330.00;0.89;146.32;-4.73;4.84 
5.988;-0.09;0.02;0.90;-0.35;0.35;-0.21;-144.76;-315.92;-332.00;0.90;146.32;-4.70;4.83 
6.018;-0.10;0.06;0.88;0.00;0.63;0.28;-145.76;-314.96;-332.00;0.89;146.32;-4.68;4.82 
6.048;-0.10;0.04;0.90;-0.14;0.00;0.00;-141.76;-314.96;-331.00;0.91;146.32;-4.65;4.82 
6.079;-0.10;0.04;0.90;0.07;0.42;0.00;-144.76;-314.00;-331.00;0.91;146.33;-4.61;4.82 
6.109;-0.09;0.02;0.88;0.00;0.77;0.14;-141.76;-315.92;-328.00;0.88;146.33;-4.59;4.82 
6.139;-0.11;0.03;0.89;0.28;0.63;0.00;-143.76;-318.79;-333.00;0.90;146.34;-4.57;4.82 
6.170;-0.11;0.04;0.91;-0.21;0.14;-0.28;-144.76;-314.96;-330.00;0.92;146.35;-4.54;4.83 
6.199;-0.09;0.02;0.89;-0.56;-0.07;-0.21;-145.76;-314.96;-329.00;0.89;146.36;-4.50;4.84 
6.229;-0.10;0.02;0.86;-0.14;0.35;0.14;-143.76;-317.83;-331.00;0.87;146.35;-4.46;4.84 
6.259;-0.08;0.03;0.94;-0.28;0.21;0.14;-143.76;-312.09;-332.00;0.94;146.36;-4.43;4.83 
6.289;-0.10;0.02;0.88;-0.28;-0.28;-0.07;-141.76;-316.87;-332.00;0.89;146.38;-4.39;4.82 
6.318;-0.10;0.04;0.88;0.07;-0.07;-0.07;-145.76;-317.83;-332.00;0.89;146.38;-4.36;4.80 
6.348;-0.07;0.01;0.88;0.00;0.07;0.28;-143.76;-314.96;-330.00;0.88;146.39;-4.32;4.81 
6.379;-0.09;0.02;0.89;-0.35;0.56;-0.42;-143.76;-315.92;-332.00;0.89;146.40;-4.28;4.79 
6.409;-0.10;0.04;0.90;-0.21;0.28;0.07;-142.76;-317.83;-330.00;0.91;146.41;-4.26;4.77 
6.439;-0.12;0.02;0.94;0.83;-0.28;0.21;-144.76;-317.83;-329.00;0.95;146.42;-4.23;4.77 
6.469;-0.09;0.02;0.89;-0.63;-1.25;0.35;-143.76;-316.87;-332.00;0.89;146.43;-4.16;4.81 
6.499;-0.10;0.02;0.88;-0.70;-0.70;-0.21;-143.76;-317.83;-330.00;0.89;146.45;-4.11;4.79 
6.529;-0.10;0.02;0.86;-0.49;-0.14;0.07;-143.76;-317.83;-331.00;0.87;146.46;-4.07;4.77 
6.558;-0.09;0.04;0.89;-0.35;-0.21;0.14;-145.76;-318.79;-329.00;0.90;146.47;-4.04;4.77 
6.588;-0.10;0.03;0.90;-0.56;-0.21;0.00;-141.76;-314.96;-332.00;0.91;146.48;-4.00;4.75 
6.618;-0.10;0.02;0.90;-0.56;-0.07;0.07;-144.76;-315.92;-327.00;0.91;146.49;-3.94;4.73 
6.648;-0.09;0.06;0.94;-0.56;0.35;0.14;-142.76;-317.83;-330.00;0.95;146.49;-3.92;4.69 
6.679;-0.09;0.04;0.90;-0.56;0.21;-0.35;-145.76;-314.96;-327.00;0.91;146.50;-3.89;4.67 
6.709;-0.09;0.04;0.89;-0.56;1.04;0.14;-145.76;-314.96;-330.00;0.90;146.51;-3.87;4.64 
6.738;-0.08;0.02;0.90;-0.90;0.56;0.07;-143.76;-315.92;-332.00;0.90;146.51;-3.85;4.63 
6.768;-0.10;0.03;0.93;-0.77;0.63;-0.63;-144.76;-315.92;-331.00;0.94;146.53;-3.85;4.62 
6.798;-0.07;0.01;0.89;-0.07;0.97;-0.14;-142.76;-317.83;-327.00;0.89;146.55;-3.84;4.62 
6.828;-0.10;0.02;0.88;-0.56;0.77;0.07;-145.76;-317.83;-329.00;0.89;146.56;-3.82;4.64 
6.858;-0.10;0.03;0.89;-1.32;0.49;0.00;-141.76;-315.92;-331.00;0.90;146.57;-3.81;4.60 
6.888;-0.08;0.02;0.90;-1.39;1.46;-0.14;-143.76;-314.96;-328.00;0.90;146.58;-3.78;4.58 
6.918;-0.10;0.01;0.87;-0.14;1.25;0.07;-145.76;-319.75;-327.00;0.88;146.59;-3.79;4.55 
6.948;-0.10;0.01;0.88;-1.04;0.14;-0.21;-147.75;-315.92;-328.00;0.89;146.60;-3.79;4.55 
6.979;-0.09;0.02;0.90;-1.88;0.49;0.07;-144.76;-314.96;-330.00;0.90;146.61;-3.78;4.52 
7.009;-0.08;0.01;0.90;-0.90;0.83;0.35;-145.76;-314.96;-331.00;0.90;146.61;-3.75;4.51 
7.039;-0.06;0.00;0.91;-0.97;0.97;0.28;-146.75;-318.79;-330.00;0.91;146.61;-3.76;4.47 
7.069;-0.09;0.02;0.89;-1.11;0.97;0.00;-148.75;-314.00;-329.00;0.89;146.62;-3.78;4.46 
7.099;-0.09;0.01;0.90;-0.90;0.35;0.07;-147.75;-315.92;-329.00;0.90;146.63;-3.79;4.41 
7.129;-0.10;0.04;0.89;-1.18;0.90;-0.07;-146.75;-316.87;-329.00;0.90;146.64;-3.75;4.41 
7.159;-0.11;0.02;0.83;-1.39;1.46;0.14;-147.75;-315.92;-331.00;0.84;146.64;-3.75;4.36 
7.190;-0.10;0.06;0.90;-0.77;1.11;0.14;-144.76;-318.79;-329.00;0.91;146.65;-3.78;4.35 
7.219;-0.10;0.01;0.87;-1.11;0.97;0.07;-147.75;-315.92;-329.00;0.88;146.66;-3.75;4.36 
7.249;-0.10;0.01;0.86;-1.18;2.09;0.28;-146.75;-315.92;-327.00;0.87;146.67;-3.78;4.31 
7.279;-0.10;0.01;0.90;-1.25;1.95;0.42;-148.75;-314.00;-329.00;0.91;146.68;-3.81;4.27 
7.309;-0.13;0.02;0.86;-1.95;1.11;0.49;-148.75;-313.04;-333.00;0.87;146.68;-3.84;4.22 
7.339;-0.10;0.00;0.88;-1.53;0.49;0.07;-145.76;-314.00;-328.00;0.89;146.68;-3.84;4.16 
7.369;-0.09;0.01;0.87;-0.97;0.56;0.21;-145.76;-314.00;-329.00;0.87;146.69;-3.79;4.17 
7.398;-0.09;0.00;0.90;-0.35;1.46;0.14;-146.75;-315.92;-329.00;0.90;146.70;-3.79;4.14 
7.428;-0.11;0.03;0.90;0.07;0.28;0.00;-147.75;-314.96;-330.00;0.91;146.71;-3.79;4.13 
7.458;-0.11;0.02;0.90;-0.14;-0.83;-0.28;-145.76;-315.92;-325.00;0.91;146.73;-3.76;4.12 
7.489;-0.08;0.00;0.87;0.07;-1.04;0.14;-147.75;-316.87;-328.00;0.87;146.76;-3.68;4.15 
7.518;-0.11;0.00;0.83;0.14;0.21;-0.07;-148.75;-315.92;-329.00;0.84;146.77;-3.64;4.13 
7.547;-0.10;0.03;0.91;1.11;0.28;-0.14;-149.75;-314.96;-326.00;0.92;146.79;-3.63;4.13 
7.578;-0.11;0.02;0.90;1.32;0.07;0.14;-148.75;-314.96;-328.00;0.91;146.81;-3.63;4.17 
7.608;-0.10;0.02;0.87;0.63;-0.56;0.07;-148.75;-314.96;-327.00;0.88;146.83;-3.57;4.23 
7.637;-0.09;0.03;0.89;0.56;-0.77;0.07;-147.75;-314.00;-330.00;0.90;146.85;-3.53;4.25 
7.666;-0.08;0.02;0.89;1.04;-0.28;-0.07;-147.75;-314.00;-329.00;0.89;146.86;-3.49;4.25 
7.696;-0.09;0.01;0.90;0.56;0.83;0.28;-145.76;-314.00;-329.00;0.90;146.88;-3.46;4.27 
7.726;-0.11;0.02;0.85;0.63;0.07;-0.14;-146.75;-314.96;-327.00;0.86;146.90;-3.49;4.28 
7.755;-0.10;0.02;0.88;0.70;-0.97;0.14;-145.76;-314.96;-328.00;0.89;146.92;-3.44;4.29 
7.786;-0.10;0.00;0.86;0.49;-0.07;-0.07;-144.76;-316.87;-331.00;0.87;146.95;-3.40;4.30 
7.816;-0.10;0.00;0.90;0.21;0.07;0.07;-144.76;-315.92;-333.00;0.91;146.97;-3.36;4.29 
7.846;-0.10;0.02;0.87;0.35;-0.56;-0.07;-147.75;-314.96;-330.00;0.88;146.98;-3.35;4.29 
7.877;-0.08;0.02;0.90;0.63;-0.21;-0.07;-144.76;-316.87;-327.00;0.90;147.00;-3.35;4.28 
7.907;-0.09;0.02;0.90;0.35;0.14;0.14;-142.76;-316.87;-331.00;0.90;147.02;-3.33;4.30 
7.936;-0.10;0.04;0.90;0.28;0.00;0.00;-145.76;-316.87;-331.00;0.91;147.04;-3.31;4.30 
7.966;-0.10;0.02;0.88;0.28;-0.21;0.14;-145.76;-314.96;-330.00;0.89;147.06;-3.26;4.33 
7.996;-0.10;0.03;0.89;0.35;-0.49;-0.28;-143.76;-317.83;-331.00;0.90;147.09;-3.21;4.33 
8.026;-0.08;0.02;0.89;-0.14;-0.28;0.14;-145.76;-317.83;-330.00;0.89;147.10;-3.17;4.33 
8.056;-0.08;0.02;0.88;-0.35;0.28;0.07;-142.76;-313.04;-327.00;0.88;147.11;-3.15;4.33 
8.087;-0.10;0.01;0.85;0.21;0.00;-0.14;-144.76;-315.92;-331.00;0.86;147.13;-3.16;4.31 
8.117;-0.09;0.05;0.87;0.14;-0.21;0.00;-145.76;-314.96;-329.00;0.88;147.15;-3.15;4.30 
8.146;-0.10;0.02;0.93;-0.14;-0.14;-0.07;-146.75;-314.00;-327.00;0.94;147.17;-3.12;4.30 
8.176;-0.08;0.02;0.88;-0.21;-0.28;-0.14;-145.76;-317.83;-328.00;0.88;147.19;-3.10;4.27 
8.206;-0.08;0.02;0.89;0.00;0.28;-0.14;-145.76;-316.87;-333.00;0.89;147.21;-3.10;4.27 
8.236;-0.10;0.03;0.88;0.28;0.07;0.07;-143.76;-316.87;-331.00;0.89;147.23;-3.06;4.30 
8.266;-0.09;0.02;0.90;-0.21;-0.42;0.07;-145.76;-318.79;-331.00;0.90;147.25;-3.04;4.29 
8.297;-0.10;0.02;0.90;-0.14;-0.49;-0.14;-144.76;-318.79;-331.00;0.91;147.28;-3.00;4.27 
8.327;-0.09;0.00;0.90;0.00;0.35;0.00;-146.75;-317.83;-331.00;0.90;147.30;-2.99;4.28 
8.357;-0.10;0.03;0.85;-0.14;0.21;0.14;-142.76;-316.87;-330.00;0.86;147.32;-2.97;4.26 
8.388;-0.10;0.02;0.90;-0.35;0.07;-0.14;-146.75;-317.83;-328.00;0.91;147.34;-2.96;4.26 
8.418;-0.07;0.02;0.90;0.35;-0.28;0.21;-144.76;-315.92;-332.00;0.90;147.36;-2.94;4.24 
8.448;-0.09;0.04;0.87;-0.42;-0.77;0.00;-144.76;-317.83;-328.00;0.88;147.38;-2.90;4.23 
8.478;-0.09;0.02;0.89;0.07;-0.56;-0.21;-144.76;-317.83;-333.00;0.89;147.41;-2.87;4.20 
8.507;-0.07;0.02;0.88;-0.35;-0.28;0.00;-143.76;-316.87;-328.00;0.88;147.44;-2.85;4.20 
8.537;-0.07;0.01;0.90;-0.56;0.77;0.00;-145.76;-315.92;-330.00;0.90;147.46;-2.83;4.18 
8.567;-0.10;0.03;0.92;-0.63;0.49;0.14;-142.76;-317.83;-327.00;0.93;147.48;-2.82;4.16 
8.598;-0.09;0.00;0.89;-0.70;0.00;0.00;-147.75;-317.83;-329.00;0.89;147.50;-2.82;4.15 
8.628;-0.06;0.01;0.87;-0.28;0.14;0.07;-144.76;-316.87;-331.00;0.87;147.52;-2.80;4.14 
8.658;-0.09;0.03;0.87;-0.49;0.49;0.14;-149.75;-316.87;-330.00;0.88;147.53;-2.80;4.11 
8.688;-0.09;0.03;0.89;-0.21;0.83;0.35;-146.75;-319.75;-330.00;0.90;147.56;-2.81;4.08 
8.718;-0.10;0.03;0.90;-0.42;0.14;0.07;-146.75;-316.87;-331.00;0.91;147.57;-2.81;4.08 
8.747;-0.10;0.02;0.93;-0.21;0.35;-0.14;-143.76;-319.75;-332.00;0.94;147.60;-2.81;4.09 
8.777;-0.08;0.02;0.90;0.07;0.90;0.14;-145.76;-315.92;-329.00;0.90;147.63;-2.82;4.08 
8.808;-0.08;0.02;0.89;-0.28;0.28;0.28;-145.76;-315.92;-331.00;0.89;147.64;-2.84;4.07 
8.838;-0.08;0.01;0.86;-0.49;0.83;0.07;-147.75;-316.87;-330.00;0.86;147.66;-2.87;4.06 
8.868;-0.08;0.03;0.90;-0.42;1.60;0.21;-145.76;-315.92;-328.00;0.90;147.67;-2.86;4.04 
8.899;-0.10;0.01;0.89;-0.07;0.90;-0.28;-143.76;-317.83;-329.00;0.90;147.69;-2.87;4.06 
8.929;-0.10;0.01;0.86;-0.63;-0.83;0.07;-146.75;-314.00;-328.00;0.87;147.72;-2.85;4.05 
8.959;-0.08;0.02;0.89;-0.49;0.28;0.07;-145.76;-316.87;-332.00;0.89;147.75;-2.83;4.02 
8.989;-0.09;0.04;0.86;-0.90;0.56;0.14;-144.76;-318.79;-330.00;0.87;147.77;-2.84;3.99 
9.019;-0.09;0.02;0.92;-0.70;0.21;-0.14;-145.76;-314.96;-330.00;0.92;147.79;-2.84;3.96 
9.049;-0.11;0.00;0.86;-0.63;0.28;0.14;-146.75;-316.87;-333.00;0.87;147.82;-2.81;3.93 
9.079;-0.10;0.02;0.89;-0.83;0.63;0.35;-144.76;-316.87;-329.00;0.90;147.83;-2.81;3.91 
9.110;-0.07;0.03;0.90;-1.04;0.00;0.07;-146.75;-316.87;-328.00;0.90;147.85;-2.82;3.87 
9.140;-0.07;0.00;0.90;-0.90;1.32;0.00;-145.76;-315.92;-329.00;0.90;147.87;-2.81;3.82 
9.170;-0.10;0.01;0.90;-0.70;1.46;-0.07;-146.75;-316.87;-328.00;0.91;147.90;-2.86;3.81 
9.200;-0.10;0.03;0.91;-0.63;0.21;0.28;-144.76;-316.87;-326.00;0.92;147.92;-2.88;3.78 
9.230;-0.10;0.02;0.91;-0.77;0.28;0.00;-150.75;-314.96;-331.00;0.92;147.94;-2.85;3.78 
9.260;-0.09;0.02;0.89;-1.25;0.42;0.14;-146.75;-318.79;-330.00;0.89;147.96;-2.87;3.77 
9.290;-0.08;0.05;0.89;-1.81;0.63;0.00;-146.75;-316.87;-328.00;0.89;147.99;-2.86;3.72 
9.321;-0.10;0.05;0.89;-0.97;0.63;0.00;-147.75;-316.87;-329.00;0.90;148.01;-2.87;3.68 
9.351;-0.10;0.01;0.90;-0.07;1.39;0.14;-145.76;-315.92;-327.00;0.91;148.03;-2.89;3.66 
9.380;-0.09;0.01;0.90;-0.63;1.39;0.35;-146.75;-318.79;-328.00;0.90;148.04;-2.92;3.66 
9.411;-0.10;0.02;0.90;-2.02;0.28;0.14;-147.75;-315.92;-328.00;0.91;148.06;-2.95;3.61 
9.441;-0.11;0.02;0.87;-0.14;0.07;-0.21;-148.75;-314.00;-328.00;0.88;148.09;-2.96;3.57 
9.471;-0.09;0.02;0.93;0.35;-0.07;0.14;-146.75;-317.83;-326.00;0.93;148.11;-2.98;3.57 
9.501;-0.12;0.02;0.86;-1.39;-0.77;0.07;-145.76;-318.79;-327.00;0.87;148.13;-2.98;3.55 
9.531;-0.06;0.01;0.84;-0.56;-0.42;-0.07;-148.75;-315.92;-326.00;0.84;148.16;-2.92;3.52 
9.560;-0.08;0.02;0.87;-0.49;0.97;0.14;-148.75;-315.92;-327.00;0.87;148.19;-2.90;3.50 
9.590;-0.10;0.01;0.87;0.21;1.74;0.07;-145.76;-314.96;-326.00;0.88;148.21;-2.93;3.49 
9.621;-0.10;0.02;0.90;-0.90;2.09;-0.07;-148.75;-316.87;-326.00;0.91;148.23;-2.95;3.47 
9.650;-0.12;0.01;0.88;-0.90;0.70;0.14;-149.75;-317.83;-328.00;0.89;148.24;-2.94;3.47 
9.680;-0.08;0.00;0.86;-0.42;-0.70;-0.21;-150.75;-317.83;-326.00;0.86;148.27;-2.90;3.48 
9.711;-0.10;0.00;0.90;0.35;0.28;-0.14;-147.75;-315.92;-327.00;0.91;148.30;-2.86;3.49 
9.741;-0.10;0.02;0.90;-0.35;-0.63;-0.14;-149.75;-316.87;-326.00;0.91;148.33;-2.86;3.50 
9.771;-0.10;0.02;0.90;-0.77;-0.35;0.14;-148.75;-317.83;-326.00;0.91;148.35;-2.78;3.48 
9.801;-0.09;0.00;0.84;-0.42;0.97;0.07;-146.75;-318.79;-328.00;0.84;148.38;-2.79;3.47 
9.830;-0.10;0.02;0.88;-0.21;0.35;0.14;-150.75;-319.75;-329.00;0.89;148.40;-2.77;3.47 
9.860;-0.09;0.00;0.89;-0.21;-0.63;-0.14;-145.76;-316.87;-330.00;0.89;148.43;-2.78;3.45 
9.890;-0.09;0.02;0.85;0.21;0.00;-0.07;-146.75;-317.83;-325.00;0.85;148.46;-2.74;3.47 
9.920;-0.13;0.03;0.89;0.21;0.00;0.28;-147.75;-318.79;-327.00;0.90;148.49;-2.74;3.48 
9.950;-0.10;0.03;0.86;0.07;-0.42;0.00;-149.75;-318.79;-326.00;0.87;148.52;-2.71;3.47 
9.980;-0.08;0.00;0.87;-0.28;0.28;-0.49;-147.75;-316.87;-329.00;0.87;148.55;-2.69;3.48 
10.010;-0.10;0.03;0.91;0.56;0.63;-0.14;-144.76;-318.79;-325.00;0.92;148.58;-2.66;3.51 
10.040;-0.09;0.02;0.86;0.49;0.42;0.14;-148.75;-317.83;-326.00;0.86;148.60;-2.68;3.52 
10.070;-0.15;0.04;0.88;0.14;-0.56;-0.21;-149.75;-316.87;-329.00;0.89;148.64;-2.68;3.52 
10.099;-0.09;0.02;0.86;0.28;-0.97;-0.21;-149.75;-316.87;-331.00;0.86;148.67;-2.65;3.52 
10.129;-0.06;0.02;0.86;-0.21;0.00;0.00;-146.75;-315.92;-326.00;0.86;148.69;-2.61;3.51 
10.158;-0.09;0.02;0.92;-0.63;0.70;-0.28;-149.75;-318.79;-325.00;0.92;148.71;-2.60;3.51 
10.188;-0.10;0.00;0.89;0.00;0.21;0.28;-149.75;-321.66;-327.00;0.90;148.74;-2.58;3.53 
10.219;-0.10;0.02;0.90;0.35;-0.70;-0.28;-148.75;-315.92;-329.00;0.91;148.78;-2.59;3.53 
10.249;-0.08;0.01;0.91;0.00;-0.49;0.00;-147.75;-316.87;-325.00;0.91;148.81;-2.58;3.53 
10.279;-0.08;0.03;0.93;-0.35;-0.35;-0.28;-145.76;-315.92;-327.00;0.93;148.84;-2.56;3.52 
10.308;-0.09;0.02;0.88;0.07;0.63;0.21;-147.75;-318.79;-328.00;0.88;148.86;-2.57;3.52 
10.338;-0.10;0.04;0.90;0.21;0.49;0.14;-148.75;-318.79;-328.00;0.91;148.90;-2.60;3.54 
10.368;-0.07;0.04;0.89;-0.21;-0.28;0.14;-146.75;-318.79;-328.00;0.89;148.92;-2.59;3.53 
10.398;-0.05;0.01;0.92;-0.35;0.14;0.14;-146.75;-315.92;-327.00;0.92;148.95;-2.58;3.53 
10.428;-0.08;0.02;0.92;-0.21;0.42;-0.35;-147.75;-316.87;-328.00;0.92;148.97;-2.55;3.55 
10.458;-0.09;0.00;0.90;-0.21;0.42;0.00;-146.75;-316.87;-329.00;0.90;149.00;-2.56;3.52 
10.488;-0.10;0.00;0.89;0.14;-0.35;-0.07;-146.75;-318.79;-326.00;0.90;149.03;-2.57;3.51 
10.519;-0.07;0.02;0.88;-1.04;-1.11;-0.07;-146.75;-317.83;-329.00;0.88;149.06;-2.55;3.50 
10.549;-0.07;0.02;0.86;0.49;0.35;0.14;-147.75;-316.87;-331.00;0.86;149.08;-2.49;3.51 
10.579;-0.08;0.02;0.86;0.14;0.83;0.07;-145.76;-317.83;-330.00;0.86;149.10;-2.51;3.52 
10.609;-0.09;0.01;0.92;0.07;0.28;-0.28;-146.75;-318.79;-326.00;0.92;149.13;-2.54;3.51 
10.639;-0.08;0.02;0.87;-0.56;0.07;0.14;-151.75;-317.83;-330.00;0.87;149.16;-2.56;3.49 
10.669;-0.10;0.01;0.87;-0.21;0.07;-0.14;-146.75;-318.79;-328.00;0.88;149.19;-2.59;3.48 
10.698;-0.06;0.01;0.90;0.28;-0.28;0.21;-145.76;-320.70;-330.00;0.90;149.21;-2.55;3.50 
10.728;-0.08;0.02;0.90;-0.21;0.90;-0.14;-148.75;-316.87;-327.00;0.90;149.24;-2.55;3.51 
10.758;-0.10;0.02;0.90;-0.63;0.42;0.07;-148.75;-319.75;-329.00;0.91;149.26;-2.57;3.48 
10.788;-0.08;0.02;0.87;-0.77;-0.07;-0.07;-145.76;-320.70;-328.00;0.87;149.29;-2.59;3.46 
10.819;-0.08;0.02;0.87;-0.42;0.70;0.14;-148.75;-321.66;-330.00;0.87;149.32;-2.61;3.44 
10.849;-0.10;0.02;0.90;-0.14;0.56;-0.21;-150.75;-318.79;-328.00;0.91;149.36;-2.63;3.43 
10.879;-0.10;0.02;0.89;0.35;0.00;0.07;-151.75;-318.79;-328.00;0.90;149.39;-2.64;3.43 
