Time(s) acc_x(g) acc_y(g) acc_z(g) gyr_x(°/s) gyr_y(°/s) gyr_z(°/s) mag_x(G) mag_y(G) mag_z(G) SVM(g) yaw(°) pitch(°) roll(°)
0.000;-0.23;0.08;0.86;-0.28;1.95;-1.25;-90.78;-227.79;-324.00;0.89;151.94;-6.65;7.19 
0.029;-0.24;0.08;0.85;-0.14;2.71;-1.18;-90.78;-226.83;-326.00;0.89;151.94;-6.75;7.20 
0.060;-0.26;0.10;0.86;-0.21;2.09;-0.77;-92.77;-230.65;-330.00;0.90;151.92;-6.84;7.17 
0.090;-0.23;0.06;0.84;0.14;1.81;-1.25;-92.77;-225.88;-326.00;0.87;151.91;-6.93;7.16 
0.120;-0.26;0.06;0.85;0.07;3.48;-1.74;-91.77;-225.88;-328.00;0.89;151.92;-7.04;7.14 
0.150;-0.26;0.09;0.86;0.35;3.69;-2.50;-92.77;-225.88;-326.00;0.90;151.94;-7.18;7.13 
0.180;-0.26;0.08;0.86;0.35;3.48;-2.99;-89.78;-227.79;-325.00;0.90;151.98;-7.32;7.12 
0.210;-0.26;0.05;0.90;0.77;3.06;-3.27;-90.78;-226.83;-328.00;0.94;152.04;-7.47;7.12 
0.240;-0.26;0.06;0.84;0.70;4.94;-4.94;-93.77;-227.79;-327.00;0.88;152.12;-7.64;7.09 
0.271;-0.28;0.06;0.85;1.04;5.29;-4.73;-92.77;-226.83;-328.00;0.90;152.22;-7.84;7.08 
0.301;-0.28;0.05;0.86;1.88;5.29;-5.63;-89.78;-225.88;-327.00;0.91;152.35;-8.05;7.06 
0.331;-0.30;0.06;0.83;1.74;5.91;-7.03;-95.76;-224.93;-329.00;0.88;152.50;-8.29;7.06 
0.362;-0.30;0.09;0.82;1.32;9.95;-6.26;-95.76;-223.98;-326.00;0.88;152.66;-8.60;7.08 
0.391;-0.30;0.13;0.80;1.46;13.50;-5.29;-89.78;-222.07;-325.00;0.86;152.80;-9.06;7.08 
0.421;-0.32;0.09;0.79;1.04;12.94;-2.78;-95.76;-222.07;-322.00;0.86;152.87;-9.50;7.13 
0.451;-0.31;0.13;0.82;0.97;11.97;-1.18;-96.76;-221.12;-324.00;0.89;152.86;-9.95;7.19 
0.481;-0.27;0.14;0.79;1.11;17.25;3.55;-93.77;-221.12;-323.00;0.85;152.78;-10.37;7.32 
0.511;-0.30;0.17;0.81;-0.28;26.92;2.64;-92.77;-215.40;-318.00;0.88;152.63;-11.07;7.38 
0.541;-0.34;0.17;0.78;1.81;30.26;8.97;-91.77;-205.87;-314.00;0.87;152.35;-11.91;7.52 
0.572;-0.32;0.18;0.86;3.90;28.73;12.87;-93.77;-203.01;-312.00;0.94;151.92;-12.76;7.76 
0.602;-0.28;0.18;0.90;6.40;25.95;18.16;-90.78;-194.43;-312.00;0.96;151.34;-13.51;8.12 
0.632;-0.27;0.14;0.86;7.93;21.29;17.88;-87.78;-189.66;-312.00;0.91;150.77;-14.13;8.48 
0.662;-0.26;0.10;0.91;7.44;14.47;15.86;-80.80;-183.95;-310.00;0.95;150.20;-14.49;8.90 
0.692;-0.22;0.03;0.85;4.80;8.28;7.10;-81.80;-178.23;-305.00;0.88;149.80;-14.69;9.12 
0.722;-0.23;0.03;0.82;3.34;5.43;-5.63;-79.80;-179.18;-306.00;0.85;149.74;-14.77;9.21 
0.752;-0.26;0.05;0.82;2.99;9.95;-17.04;-79.80;-178.23;-309.00;0.86;150.03;-14.93;9.15 
0.783;-0.29;0.11;0.87;2.43;10.30;-25.53;-80.80;-180.13;-309.00;0.92;150.64;-15.30;9.04 
0.813;-0.32;0.18;0.85;-1.46;1.53;-29.15;-83.79;-182.99;-307.00;0.93;151.45;-15.58;8.86 
0.843;-0.30;0.22;0.78;-4.24;0.90;-28.66;-84.79;-183.95;-310.00;0.86;152.25;-15.71;8.66 
0.873;-0.34;0.26;0.80;-6.61;5.08;-26.78;-88.78;-184.90;-307.00;0.91;153.03;-15.93;8.39 
0.902;-0.33;0.20;0.83;-4.66;10.09;-25.11;-94.77;-186.80;-306.00;0.92;153.65;-16.27;8.13 
0.932;-0.42;0.25;0.84;-2.02;7.30;-22.40;-96.76;-186.80;-305.00;0.97;154.24;-16.65;7.91 
0.962;-0.44;0.17;0.81;-1.67;0.97;-16.28;-98.76;-185.85;-302.00;0.94;154.71;-16.89;7.78 
0.992;-0.50;0.06;0.82;6.82;7.72;-16.21;-99.75;-189.66;-301.00;0.96;155.19;-17.12;7.70 
1.021;-0.46;0.05;0.83;13.22;4.80;-18.92;-103.74;-190.62;-302.00;0.95;155.72;-17.40;7.84 
1.051;-0.42;0.04;0.76;10.16;-15.86;-24.63;-99.75;-192.52;-305.00;0.87;156.41;-17.42;7.92 
1.082;-0.38;0.00;0.66;9.67;-9.46;-31.44;-100.75;-198.24;-306.00;0.76;157.32;-17.19;7.84 
1.112;-0.37;-0.04;0.66;12.73;11.34;-35.62;-103.74;-196.34;-308.00;0.76;158.39;-17.42;7.70 
1.142;-0.42;-0.06;0.83;14.26;20.45;-36.38;-104.74;-202.05;-310.00;0.93;159.44;-18.05;7.63 
1.173;-0.46;-0.02;0.88;14.89;10.50;-36.80;-104.74;-205.87;-310.00;0.99;160.56;-18.81;7.49 
1.202;-0.42;0.00;0.95;6.12;6.05;-42.37;-107.73;-205.87;-305.00;1.04;161.66;-19.31;7.26 
1.232;-0.42;0.06;0.91;-0.07;-2.30;-38.05;-107.73;-207.77;-306.00;1.00;162.75;-19.55;6.87 
1.262;-0.35;0.00;0.83;-4.31;-10.78;-32.83;-111.72;-212.54;-307.00;0.90;163.67;-19.52;6.33 
1.292;-0.31;-0.02;0.77;-4.80;-11.20;-28.45;-114.72;-219.21;-309.00;0.83;164.46;-19.29;5.71 
1.322;-0.32;0.02;0.74;-1.25;-5.91;-21.43;-116.71;-222.07;-308.00;0.81;165.04;-19.03;5.30 
1.352;-0.30;0.00;0.77;0.97;3.55;-14.19;-117.71;-226.83;-310.00;0.83;165.40;-19.05;5.04 
1.383;-0.34;-0.02;0.82;2.09;6.89;-10.92;-120.70;-223.98;-311.00;0.89;165.62;-19.20;4.90 
1.412;-0.35;-0.10;0.85;3.41;1.18;-8.77;-118.71;-227.79;-307.00;0.92;165.76;-19.38;4.73 
1.442;-0.36;-0.06;0.79;4.66;-4.45;-8.56;-123.69;-223.02;-308.00;0.87;165.90;-19.38;4.56 
1.473;-0.37;-0.06;0.79;5.77;-2.02;-7.17;-122.70;-226.83;-307.00;0.87;166.03;-19.30;4.45 
1.503;-0.34;-0.04;0.79;6.19;5.29;-4.45;-120.70;-229.69;-310.00;0.86;166.10;-19.41;4.40 
1.533;-0.40;0.00;0.82;6.68;5.50;-1.74;-120.70;-227.79;-311.00;0.91;166.07;-19.64;4.40 
1.563;-0.38;0.00;0.82;7.93;0.14;2.78;-117.71;-225.88;-310.00;0.90;165.96;-19.71;4.53 
1.594;-0.38;-0.02;0.81;8.42;-3.13;7.10;-113.72;-229.69;-314.00;0.89;165.72;-19.64;4.68 
1.623;-0.38;0.00;0.81;8.70;-1.88;10.09;-115.71;-228.74;-314.00;0.89;165.41;-19.59;4.87 
1.653;-0.40;-0.02;0.81;7.37;2.99;8.97;-110.73;-226.83;-319.00;0.90;165.07;-19.57;5.09 
1.684;-0.44;-0.03;0.84;4.24;4.52;6.19;-108.73;-223.98;-315.00;0.95;164.74;-19.74;5.21 
1.713;-0.44;0.06;0.89;1.11;-1.18;5.50;-108.73;-226.83;-313.00;0.99;164.42;-19.73;5.32 
1.743;-0.46;0.08;0.80;-2.37;-0.42;8.97;-106.74;-224.93;-315.00;0.93;164.09;-19.79;5.34 
1.773;-0.45;0.08;0.86;-5.15;-8.14;12.17;-105.74;-223.98;-315.00;0.97;163.62;-19.75;5.27 
1.803;-0.42;0.05;0.77;-3.34;-13.91;14.26;-106.74;-223.98;-315.00;0.88;163.08;-19.41;5.18 
1.833;-0.39;0.06;0.76;-3.41;-4.10;16.28;-105.74;-226.83;-316.00;0.86;162.51;-19.16;5.17 
1.863;-0.42;0.08;0.78;-5.70;-0.70;17.11;-104.74;-223.98;-318.00;0.89;161.85;-19.12;5.18 
1.894;-0.42;0.10;0.84;-6.26;-7.72;20.52;-102.75;-223.02;-311.00;0.94;161.11;-18.94;5.18 
1.924;-0.42;0.11;0.77;-6.68;-12.31;22.26;-103.74;-222.07;-313.00;0.88;160.33;-18.63;5.19 
1.953;-0.38;0.11;0.78;-6.54;-8.70;24.42;-100.75;-223.98;-314.00;0.87;159.56;-18.30;5.23 
1.983;-0.37;0.12;0.78;-9.81;-3.06;22.40;-100.75;-222.07;-314.00;0.87;158.71;-18.11;5.23 
2.013;-0.34;0.15;0.78;-8.56;1.04;24.63;-104.74;-220.16;-314.00;0.86;157.85;-18.02;5.23 
2.043;-0.36;0.19;0.82;-7.03;1.67;29.29;-101.75;-217.30;-314.00;0.92;156.92;-18.01;5.34 
2.073;-0.36;0.14;0.82;-5.08;2.43;28.52;-102.75;-216.35;-312.00;0.91;155.92;-18.00;5.49 
2.103;-0.36;0.10;0.78;-1.67;8.42;27.20;-100.75;-210.63;-311.00;0.86;154.95;-18.06;5.71 
2.133;-0.38;0.13;0.89;0.63;15.93;20.24;-97.76;-208.73;-312.00;0.98;154.14;-18.33;5.93 
2.163;-0.34;0.16;0.90;0.90;12.94;16.97;-94.77;-201.10;-311.00;0.98;153.49;-18.72;6.13 
2.194;-0.29;0.14;0.91;-2.57;-6.40;15.10;-95.76;-199.20;-310.00;0.97;152.91;-18.73;6.35 
2.224;-0.26;0.10;0.84;-4.31;-14.75;10.30;-95.76;-199.20;-310.00;0.88;152.52;-18.28;6.44 
2.254;-0.22;0.06;0.81;-2.71;-9.32;3.69;-96.76;-201.10;-309.00;0.84;152.30;-17.82;6.45 
2.284;-0.23;0.10;0.78;-3.06;-4.24;-2.92;-92.77;-202.05;-312.00;0.82;152.29;-17.50;6.40 
2.313;-0.34;0.11;0.82;-1.39;5.15;-8.00;-94.77;-202.05;-311.00;0.89;152.39;-17.47;6.32 
2.343;-0.40;0.14;0.88;0.35;6.61;-8.77;-96.76;-205.87;-311.00;0.98;152.61;-17.72;6.29 
2.373;-0.42;0.13;0.90;3.41;2.71;-10.37;-96.76;-203.96;-309.00;1.00;152.85;-17.96;6.29 
2.403;-0.41;0.14;0.86;5.36;-5.36;-10.71;-92.77;-203.96;-310.00;0.96;153.18;-18.00;6.34 
2.433;-0.40;0.14;0.80;3.97;-9.81;-12.17;-98.76;-205.87;-312.00;0.91;153.56;-17.86;6.42 
2.463;-0.36;0.12;0.78;1.60;-7.51;-12.66;-96.76;-208.73;-315.00;0.87;153.96;-17.68;6.44 
2.494;-0.41;0.15;0.79;-0.70;-7.10;-11.48;-95.76;-213.49;-310.00;0.90;154.33;-17.58;6.41 
2.524;-0.42;0.10;0.74;-2.85;-6.75;-9.04;-96.76;-213.49;-313.00;0.86;154.65;-17.46;6.30 
2.554;-0.44;0.13;0.78;-2.71;-3.90;-7.10;-102.75;-217.30;-316.00;0.90;154.85;-17.45;6.19 
2.584;-0.45;0.14;0.81;-2.57;-5.50;-5.70;-101.75;-220.16;-317.00;0.94;155.00;-17.44;6.14 
2.614;-0.46;0.14;0.81;-2.99;-5.77;-2.57;-102.75;-220.16;-316.00;0.94;155.08;-17.42;6.06 
2.644;-0.47;0.13;0.78;-3.34;-9.39;-0.63;-102.75;-223.02;-313.00;0.92;155.09;-17.34;5.98 
2.674;-0.44;0.12;0.77;-3.62;-11.06;0.28;-103.74;-224.93;-314.00;0.89;155.07;-17.15;5.92 
2.705;-0.44;0.14;0.77;-3.13;-9.04;2.43;-106.74;-226.83;-314.00;0.90;154.99;-16.97;5.88 
2.735;-0.43;0.14;0.74;-2.50;-8.77;4.24;-104.74;-226.83;-315.00;0.87;154.84;-16.82;5.88 
2.765;-0.36;0.10;0.71;-1.95;-5.08;3.34;-105.74;-230.65;-318.00;0.80;154.71;-16.69;5.90 
2.796;-0.32;0.10;0.71;-0.21;10.85;3.34;-108.73;-227.79;-315.00;0.79;154.55;-16.85;5.93 
2.826;-0.35;0.07;0.78;1.88;20.52;0.77;-103.74;-226.83;-313.00;0.86;154.38;-17.38;5.99 
2.856;-0.39;0.09;0.86;2.16;17.88;-1.95;-108.73;-223.02;-314.00;0.95;154.29;-18.02;6.05 
2.886;-0.30;0.06;0.89;1.67;9.04;-3.76;-100.75;-221.12;-311.00;0.94;154.29;-18.47;6.08 
2.915;-0.34;0.07;0.90;0.07;-2.02;-4.03;-102.75;-222.07;-312.00;0.96;154.39;-18.57;6.05 
2.944;-0.32;0.06;0.88;-1.25;-5.77;-4.38;-104.74;-223.98;-311.00;0.94;154.47;-18.43;5.99 
2.973;-0.33;0.10;0.83;-2.78;-5.50;-3.06;-107.73;-224.93;-311.00;0.90;154.56;-18.28;5.91 
3.003;-0.37;0.07;0.86;-3.41;-14.89;-1.53;-105.74;-225.88;-315.00;0.94;154.61;-18.04;5.84 
3.033;-0.38;0.03;0.82;-2.02;-24.14;-2.50;-105.74;-230.65;-312.00;0.90;154.68;-17.50;5.74 
3.063;-0.42;0.03;0.78;-3.62;-33.95;-5.70;-110.73;-237.32;-314.00;0.89;154.85;-16.75;5.61 
3.094;-0.42;0.06;0.70;-3.62;-36.66;-5.50;-107.73;-243.04;-317.00;0.82;155.08;-15.81;5.44 
3.124;-0.33;0.10;0.65;-1.25;-28.45;-5.63;-110.73;-249.71;-314.00;0.74;155.31;-14.99;5.35 
3.154;-0.29;0.06;0.62;-0.70;-20.10;-1.81;-109.73;-259.24;-318.00;0.69;155.47;-14.34;5.32 
3.184;-0.36;0.10;0.62;0.35;-5.70;-2.57;-107.73;-264.00;-319.00;0.72;155.53;-14.11;5.31 
3.215;-0.30;0.08;0.63;-2.85;-22.12;2.43;-113.72;-265.91;-321.00;0.70;155.54;-13.96;5.33 
3.245;-0.15;0.07;0.50;-2.37;-21.63;1.39;-112.72;-266.86;-319.00;0.53;155.54;-13.21;5.26 
3.275;-0.26;0.03;0.54;4.59;11.55;4.94;-110.73;-270.68;-320.00;0.60;155.42;-13.07;5.31 
3.306;-0.23;0.05;0.67;3.97;13.15;-2.50;-113.72;-271.63;-318.00;0.71;155.35;-13.68;5.46 
3.336;-0.20;-0.03;0.74;3.90;-4.80;4.17;-113.72;-272.58;-321.00;0.77;155.26;-13.75;5.55 
3.365;-0.19;-0.02;0.68;8.63;-1.46;-6.82;-109.73;-277.35;-320.00;0.71;155.34;-13.78;5.67 
3.395;-0.19;0.11;0.66;4.87;-12.59;-7.03;-113.72;-278.30;-319.00;0.70;155.57;-13.74;5.76 
3.424;-0.26;0.10;0.64;6.96;-20.80;-0.49;-111.72;-283.07;-321.00;0.70;155.78;-13.24;5.92 
3.453;-0.22;0.02;0.63;7.17;-18.78;-5.36;-109.73;-286.88;-321.00;0.67;155.92;-12.75;6.10 
3.482;-0.26;-0.01;0.64;6.61;-26.57;-6.75;-106.74;-295.46;-325.00;0.69;156.15;-12.16;6.14 
3.511;-0.26;0.06;0.76;11.62;-30.68;-6.12;-102.75;-304.03;-330.00;0.81;156.50;-11.43;6.35 
3.541;-0.26;0.14;0.69;9.18;-38.75;-4.59;-103.74;-313.57;-333.00;0.75;156.79;-10.52;6.67 
3.571;-0.36;0.17;0.70;8.56;-41.39;-1.32;-100.75;-327.86;-337.00;0.81;157.05;-9.52;6.99 
3.602;-0.34;0.20;0.74;9.18;-45.22;7.72;-101.75;-333.58;-339.00;0.84;157.13;-8.43;7.42 
3.632;-0.31;0.06;0.68;5.91;-64.14;14.75;-89.78;-352.64;-345.00;0.75;156.92;-6.96;7.78 
3.662;-0.33;0.04;0.63;3.90;-54.33;2.23;-88.78;-365.99;-351.00;0.71;156.73;-5.16;8.00 
3.693;-0.19;0.23;0.59;23.30;-107.76;21.01;-81.80;-391.72;-360.00;0.66;156.62;-2.43;9.09 
3.723;-0.22;0.25;0.54;35.62;-77.84;9.60;-75.81;-408.87;-362.00;0.63;156.43;0.05;10.17 
3.753;-0.14;0.09;0.75;12.03;-97.74;10.92;-67.83;-425.08;-363.00;0.77;156.10;2.69;10.85 
3.783;0.15;0.09;0.73;-16.77;-81.46;-6.68;-63.84;-444.14;-365.00;0.75;156.09;5.76;10.56 
3.814;-0.33;0.10;1.28;-15.23;-153.32;-5.22;-73.82;-467.97;-360.00;1.33;156.37;8.18;10.05 
3.844;-0.21;0.03;0.55;-29.08;-200.28;13.63;-80.80;-496.56;-340.00;0.59;155.91;13.96;9.16 
3.874;-0.22;0.26;0.65;-32.49;-204.59;-8.90;-95.76;-522.29;-324.00;0.73;155.49;19.18;8.22 
3.905;0.58;0.50;0.68;-0.56;-182.33;-1.67;-109.73;-567.09;-295.00;1.02;155.60;25.23;7.96 
3.935;3.34;0.18;2.53;12.24;-50.99;-12.52;-118.71;-582.34;-284.00;4.19;153.54;29.40;7.60 
3.965;3.41;0.77;5.34;10.30;-127.30;2.23;-112.72;-585.20;-284.00;6.38;155.30;26.70;8.82 
3.995;-0.09;-0.82;1.02;-76.66;-699.76;144.28;-128.68;-605.21;-237.00;1.31;150.92;37.86;6.76 
4.026;-0.42;-0.51;-0.85;-72.42;-523.55;15.37;-161.60;-676.69;-102.00;1.08;139.31;58.80;2.00 
4.056;-0.25;0.62;-1.21;-7.03;-176.00;-37.43;-152.62;-697.66;-50.00;1.38;130.31;70.00;2.93 
4.086;-0.09;0.29;-1.01;3.83;-74.85;44.87;-155.61;-699.57;-28.00;1.05;123.85;74.37;2.71 
4.116;2.04;-0.06;-0.42;4.38;-60.52;-3.97;-162.60;-698.61;-16.00;2.08;118.56;77.17;2.04 
4.145;2.05;0.30;0.19;-0.28;-138.02;10.85;-161.60;-703.38;5.00;2.08;114.37;79.46;2.18 
4.175;1.39;-0.18;-0.63;-3.48;-256.56;42.02;-169.58;-698.61;38.00;1.54;101.47;85.40;1.11 
4.205;1.10;-0.30;-1.56;-7.86;-187.48;20.10;-170.58;-692.89;74.00;1.93;83.25;86.88;-0.21 
4.235;0.85;0.00;-1.38;-24.28;-3.34;-10.30;-171.58;-687.18;99.00;1.62;73.65;82.79;-0.70 
4.265;0.86;0.23;-0.22;-26.50;35.34;0.77;-168.58;-690.99;99.00;0.92;74.47;83.27;-0.33 
4.295;0.66;0.02;0.00;-24.42;-53.63;31.58;-170.58;-687.18;99.00;0.66;74.03;83.45;-0.69 
4.326;0.82;-0.13;-0.49;-19.55;-82.43;36.87;-171.58;-681.46;107.00;0.96;67.18;81.01;-1.85 
4.356;0.88;-0.16;-0.72;-13.77;-35.55;17.53;-179.56;-674.79;128.00;1.15;61.03;78.64;-2.92 
4.386;0.94;0.03;-0.62;-10.92;-22.54;18.43;-176.56;-670.97;133.00;1.13;58.43;77.70;-3.49 
4.417;1.08;-0.12;-0.74;-7.10;-8.97;21.63;-184.54;-668.11;143.00;1.31;55.79;76.71;-4.21 
4.447;0.94;-0.20;-0.54;-4.17;26.50;2.02;-185.54;-667.16;142.00;1.10;55.25;76.63;-4.84 
4.477;0.90;0.02;-0.47;-0.07;0.70;-6.61;-186.54;-670.02;136.00;1.02;55.99;77.00;-4.82 
4.506;1.00;-0.05;-0.71;3.34;6.75;1.18;-185.54;-669.07;139.00;1.23;55.67;76.81;-4.85 
4.536;0.86;-0.17;-0.59;7.17;35.69;-3.34;-186.54;-666.21;134.00;1.06;56.55;77.14;-5.06 
4.566;0.88;-0.21;-0.48;6.33;34.09;-7.44;-185.54;-670.02;128.00;1.02;58.46;77.88;-5.20 
4.596;0.90;-0.15;-0.50;3.76;52.31;-15.23;-186.54;-673.83;122.00;1.04;60.94;78.87;-5.15 
4.627;0.96;-0.11;-0.40;6.96;53.84;-15.37;-180.55;-680.50;113.00;1.05;64.97;80.43;-4.86 
4.657;1.09;-0.02;-0.49;6.54;48.83;-13.36;-184.54;-681.46;100.00;1.20;68.66;81.77;-4.58 
4.687;1.05;0.00;-0.41;2.37;59.83;-10.02;-178.56;-685.27;93.00;1.13;72.87;83.20;-4.38 
4.717;1.07;-0.11;-0.30;-2.09;48.63;-9.25;-178.56;-689.08;83.00;1.12;77.01;84.44;-4.24 
4.747;1.07;-0.06;-0.31;-9.32;52.66;-22.19;-175.57;-691.94;77.00;1.12;80.48;85.43;-3.94 
4.777;0.99;0.02;-0.21;-11.34;61.70;-13.63;-171.58;-693.85;63.00;1.01;85.60;86.43;-3.53 
4.807;1.00;0.07;-0.29;-11.20;48.77;-4.03;-170.58;-692.89;58.00;1.04;89.89;86.54;-3.33 
4.838;1.13;0.02;-0.22;-16.21;56.28;-5.15;-171.58;-696.71;50.00;1.15;93.71;85.99;-3.29 
4.868;0.98;0.10;-0.14;-21.08;74.92;-5.50;-170.58;-696.71;40.00;0.99;99.30;84.79;-3.19 
4.898;1.01;0.22;-0.10;-12.17;58.37;4.45;-166.59;-693.85;29.00;1.04;105.05;83.19;-3.19 
4.927;1.15;0.10;-0.18;-8.77;57.67;16.70;-169.58;-694.80;21.00;1.17;108.92;81.79;-3.53 
4.957;1.05;-0.06;-0.26;-3.20;61.36;4.24;-170.58;-691.94;10.00;1.08;113.17;80.08;-3.92 
4.987;0.98;-0.17;-0.32;3.62;80.14;-3.41;-171.58;-691.94;3.00;1.04;117.14;78.47;-4.13 
5.017;1.24;-0.59;0.04;41.60;173.91;-27.97;-170.58;-690.99;-26.00;1.37;123.57;75.54;-3.92 
5.046;1.12;-0.26;0.61;63.03;190.61;-54.40;-163.60;-688.13;-66.00;1.30;132.09;69.97;-2.75 
5.076;0.50;0.53;0.84;7.72;135.86;-64.56;-149.63;-683.36;-93.00;1.11;138.75;64.93;-0.61 
5.106;0.62;0.43;1.23;-49.88;58.71;24.83;-142.65;-679.55;-110.00;1.44;143.85;61.11;0.13 
5.137;0.28;-0.19;0.88;-36.87;-96.42;37.08;-151.62;-673.83;-106.00;0.94;144.60;60.99;-1.54 
5.167;0.90;-0.15;0.20;-7.03;-130.71;14.75;-165.59;-675.74;-74.00;0.93;140.72;64.50;-3.09 
5.197;1.21;0.28;-0.14;4.45;-50.23;-11.06;-162.60;-685.27;-58.00;1.25;137.17;67.66;-3.05 
5.228;1.14;0.15;0.02;10.57;23.44;4.31;-160.60;-687.18;-54.00;1.15;135.65;68.57;-2.83 
5.258;0.89;0.00;0.35;6.89;43.55;-1.81;-163.60;-682.41;-66.00;0.96;136.54;67.49;-2.81 
5.288;0.86;0.06;0.59;-2.92;-4.80;-1.74;-160.60;-680.50;-68.00;1.04;137.40;66.67;-2.80 
5.318;0.90;0.16;0.40;-6.54;-54.89;6.61;-159.60;-681.46;-68.00;1.00;136.58;67.38;-2.89 
5.349;1.02;0.10;0.09;-4.45;-77.15;15.65;-165.59;-684.32;-57.00;1.03;133.55;69.48;-3.21 
5.379;1.16;-0.03;-0.08;-0.63;-53.57;13.57;-166.59;-687.18;-41.00;1.16;129.72;71.54;-3.77 
5.409;1.11;-0.11;-0.07;0.42;-6.54;6.47;-169.58;-686.22;-32.00;1.12;127.18;72.69;-4.19 
5.440;1.02;-0.06;0.06;-1.25;1.53;-1.53;-167.59;-684.32;-34.00;1.02;126.90;72.68;-4.40 
5.470;1.00;-0.02;0.05;-1.39;-16.70;2.30;-170.58;-684.32;-32.00;1.00;126.23;73.02;-4.47 
5.500;1.02;-0.06;-0.09;-1.11;-10.23;1.46;-168.58;-684.32;-27.00;1.03;124.75;73.65;-4.67 
5.530;1.01;-0.06;-0.10;-2.16;16.14;0.00;-171.58;-686.22;-28.00;1.02;124.20;73.88;-4.81 
5.559;1.01;-0.10;0.03;-1.95;31.17;-2.43;-170.58;-684.32;-31.00;1.02;125.38;73.23;-4.92 
5.589;1.02;-0.02;0.16;-0.35;31.72;-5.08;-168.58;-686.22;-39.00;1.03;126.83;72.50;-4.92 
5.619;0.99;0.00;0.26;1.67;22.12;-4.73;-170.58;-683.36;-44.00;1.02;128.14;71.81;-4.83 
5.650;0.97;0.05;0.30;2.37;2.71;-4.03;-169.58;-685.27;-45.00;1.02;128.76;71.45;-4.73 
5.680;1.02;0.06;0.18;1.04;-9.81;-1.32;-165.59;-681.46;-44.00;1.04;128.40;71.67;-4.62 
5.710;1.00;0.04;0.11;-0.21;-4.66;0.42;-164.59;-684.32;-42.00;1.01;127.70;72.04;-4.60 
5.740;1.01;0.00;0.10;-0.21;1.81;1.81;-168.58;-685.27;-44.00;1.01;127.25;72.24;-4.65 
5.770;1.00;0.00;0.14;-0.77;5.77;-0.77;-166.59;-682.41;-42.00;1.01;127.24;72.14;-4.77 
5.800;1.02;0.02;0.14;0.00;5.22;-0.56;-168.58;-686.22;-41.00;1.03;127.38;72.00;-4.86 
5.830;0.99;0.02;0.18;0.63;1.39;-0.35;-165.59;-683.36;-45.00;1.01;127.26;72.03;-4.86 
5.861;1.02;0.01;0.14;0.42;-0.35;0.63;-165.59;-684.32;-43.00;1.03;126.95;72.14;-4.90 
5.890;0.99;0.02;0.14;-0.49;-1.67;0.97;-162.60;-686.22;-45.00;1.00;126.56;72.26;-4.99 
5.920;1.02;-0.02;0.09;-0.77;0.14;0.42;-167.59;-685.27;-45.00;1.02;126.35;72.28;-5.12 
5.951;1.04;-0.03;0.10;-0.63;5.08;-0.70;-167.59;-685.27;-48.00;1.05;126.29;72.24;-5.23 
5.981;1.02;0.00;0.18;-0.28;5.57;-1.25;-168.58;-683.36;-45.00;1.04;126.36;72.18;-5.26 
6.011;1.02;0.06;0.20;-0.35;0.83;-0.90;-164.59;-684.32;-46.00;1.04;126.43;72.08;-5.33 
6.041;1.02;0.02;0.14;-0.35;0.14;-0.35;-169.58;-682.41;-48.00;1.03;126.17;72.21;-5.33 
6.071;1.02;0.00;0.15;-0.28;2.92;-0.07;-167.59;-683.36;-47.00;1.03;125.96;72.31;-5.33 
6.101;1.01;0.01;0.18;-0.35;0.90;0.21;-169.58;-683.36;-45.00;1.03;125.78;72.38;-5.35 
6.131;1.01;0.00;0.14;-0.42;0.00;0.21;-167.59;-685.27;-45.00;1.02;125.59;72.39;-5.45 
6.161;1.02;0.00;0.14;0.07;2.30;0.14;-163.60;-684.32;-45.00;1.03;125.38;72.46;-5.48 
6.191;0.98;0.02;0.14;-0.21;1.74;0.07;-165.59;-681.46;-48.00;0.99;125.31;72.38;-5.60 
6.221;1.01;0.01;0.16;-0.28;1.04;0.14;-169.58;-684.32;-46.00;1.02;125.21;72.33;-5.72 
6.252;1.02;0.00;0.15;-0.21;1.39;0.00;-166.59;-686.22;-47.00;1.03;124.92;72.45;-5.76 
6.282;1.02;0.00;0.14;-0.42;1.46;0.28;-163.60;-684.32;-48.00;1.03;124.87;72.38;-5.88 
6.312;1.01;0.01;0.14;-0.35;-0.70;0.07;-166.59;-683.36;-48.00;1.02;124.71;72.36;-6.00 
6.342;1.02;0.03;0.14;-0.42;1.67;-0.14;-167.59;-684.32;-48.00;1.03;124.41;72.51;-6.01 
6.373;0.99;0.00;0.14;-0.14;2.43;-0.14;-165.59;-684.32;-48.00;1.00;124.26;72.57;-6.00 
6.403;1.00;0.00;0.16;-0.35;-1.46;0.28;-165.59;-683.36;-49.00;1.01;124.12;72.55;-6.11 
6.433;1.02;0.01;0.14;-0.28;-1.39;0.21;-166.59;-687.18;-44.00;1.03;123.83;72.62;-6.20 
6.464;1.02;0.01;0.12;-0.07;3.20;0.14;-167.59;-680.50;-48.00;1.03;123.58;72.73;-6.22 
6.494;0.99;-0.02;0.17;-0.35;2.23;0.00;-170.58;-687.18;-45.00;1.00;123.44;72.78;-6.22 
6.524;1.01;0.00;0.15;-0.42;0.70;0.00;-167.59;-683.36;-44.00;1.02;123.22;72.86;-6.25 
6.554;1.02;0.00;0.16;-0.42;1.39;0.07;-164.59;-686.22;-51.00;1.03;123.10;72.82;-6.36 
6.584;1.01;0.01;0.21;-0.14;0.56;0.21;-168.58;-688.13;-48.00;1.03;122.98;72.79;-6.47 
6.614;1.01;0.01;0.14;-0.35;0.35;-0.07;-168.58;-686.22;-44.00;1.02;122.79;72.81;-6.55 
6.644;1.03;0.01;0.14;-0.35;0.14;0.07;-168.58;-682.41;-46.00;1.04;122.62;72.81;-6.65 
6.675;1.01;0.00;0.14;-0.77;1.18;0.00;-167.59;-685.27;-46.00;1.02;122.49;72.79;-6.75 
6.705;1.02;0.01;0.15;-0.21;0.49;0.14;-165.59;-683.36;-44.00;1.03;122.38;72.75;-6.85 
6.735;1.02;0.00;0.15;-0.49;0.00;-0.14;-166.59;-685.27;-44.00;1.03;122.19;72.77;-6.94 
6.765;1.02;0.00;0.14;-0.14;1.25;0.28;-165.59;-684.32;-46.00;1.03;121.96;72.85;-6.97 
6.795;1.00;0.00;0.14;-0.28;1.39;0.07;-166.59;-685.27;-49.00;1.01;121.83;72.84;-7.04 
6.825;0.99;0.01;0.14;-0.49;1.04;-0.07;-164.59;-683.36;-49.00;1.00;121.65;72.92;-7.05 
6.855;1.02;0.00;0.18;-0.07;1.60;-0.14;-168.58;-684.32;-46.00;1.04;121.54;72.91;-7.12 
6.886;1.01;0.01;0.15;-0.28;1.18;-0.70;-163.60;-682.41;-45.00;1.02;121.32;73.03;-7.09 
6.915;1.02;0.00;0.15;-0.35;0.49;-0.28;-169.58;-681.46;-48.00;1.03;121.14;73.11;-7.09 
6.945;1.00;0.01;0.17;-0.28;1.04;-0.56;-164.59;-684.32;-47.00;1.01;120.94;73.20;-7.08 
6.976;0.98;0.01;0.17;-0.14;1.32;-0.49;-165.59;-684.32;-45.00;0.99;120.73;73.30;-7.08 
7.005;1.02;-0.02;0.13;-0.07;2.57;-0.63;-170.58;-684.32;-45.00;1.03;120.67;73.25;-7.17 
7.035;1.02;0.00;0.17;-0.35;3.13;-0.63;-167.59;-685.27;-46.00;1.03;120.59;73.29;-7.15 
7.065;0.98;0.00;0.18;-0.35;0.35;-0.35;-166.59;-685.27;-49.00;1.00;120.49;73.34;-7.15 
7.095;0.99;0.02;0.13;-0.63;-0.83;-0.42;-165.59;-686.22;-50.00;1.00;120.20;73.47;-7.14 
7.125;1.00;0.00;0.10;-0.28;1.67;-0.70;-167.59;-686.22;-49.00;1.00;119.95;73.58;-7.14 
7.154;1.02;0.00;0.17;-0.35;3.55;-0.63;-167.59;-687.18;-47.00;1.03;119.88;73.62;-7.12 
7.185;1.00;0.00;0.16;-0.42;2.23;-0.70;-166.59;-684.32;-47.00;1.01;119.89;73.55;-7.19 
7.215;1.02;0.00;0.12;-0.35;2.02;-0.49;-165.59;-684.32;-51.00;1.03;119.82;73.52;-7.26 
7.244;1.00;0.00;0.15;-0.35;2.16;-0.21;-166.59;-683.36;-48.00;1.01;119.75;73.50;-7.31 
7.275;0.99;0.00;0.15;0.07;2.64;-0.70;-164.59;-684.32;-48.00;1.00;119.70;73.47;-7.36 
7.305;1.02;0.00;0.15;-0.42;1.88;-0.35;-164.59;-685.27;-48.00;1.03;119.66;73.43;-7.42 
7.335;1.00;0.02;0.17;-0.28;1.25;-0.42;-163.60;-685.27;-47.00;1.01;119.54;73.49;-7.41 
7.365;0.98;-0.02;0.13;-0.56;1.74;-0.77;-165.59;-683.36;-47.00;0.99;119.46;73.49;-7.45 
7.394;1.02;0.00;0.18;-0.28;2.78;-0.35;-162.60;-684.32;-52.00;1.04;119.31;73.56;-7.44 
7.424;1.01;0.00;0.17;-0.35;2.57;-0.28;-166.59;-686.22;-50.00;1.02;119.28;73.57;-7.42 
7.454;0.99;0.00;0.17;-0.28;1.53;-0.49;-162.60;-686.22;-50.00;1.00;119.21;73.55;-7.48 
7.485;0.99;0.02;0.15;-0.07;1.88;-0.42;-165.59;-686.22;-48.00;1.00;119.11;73.55;-7.53 
7.514;1.02;0.00;0.15;-0.21;2.57;-0.56;-166.59;-686.22;-50.00;1.03;118.97;73.63;-7.49 
7.544;1.02;0.01;0.14;-0.07;2.64;-0.49;-162.60;-685.27;-53.00;1.03;118.89;73.66;-7.49 
7.574;1.01;0.02;0.18;-0.28;2.57;-0.70;-165.59;-682.41;-50.00;1.03;118.83;73.72;-7.45 
7.604;1.00;-0.02;0.21;-0.28;2.57;-0.42;-167.59;-686.22;-51.00;1.02;118.78;73.74;-7.43 
7.633;1.02;0.00;0.14;-0.07;2.71;-0.97;-165.59;-684.32;-52.00;1.03;118.72;73.79;-7.40 
7.662;0.98;0.02;0.15;-0.14;2.71;-0.63;-163.60;-680.50;-51.00;0.99;118.67;73.83;-7.36 
7.692;1.02;0.00;0.16;-0.14;2.37;-0.28;-166.59;-683.36;-54.00;1.03;118.65;73.77;-7.44 
7.722;1.00;0.00;0.16;-0.28;2.37;-0.35;-168.58;-683.36;-54.00;1.01;118.55;73.83;-7.41 
7.751;1.00;0.02;0.18;-0.28;2.30;-0.35;-167.59;-685.27;-53.00;1.02;118.50;73.85;-7.40 
7.782;0.98;0.02;0.18;-0.07;0.35;-0.14;-164.59;-681.46;-53.00;1.00;118.34;73.93;-7.38 
7.812;1.00;0.01;0.14;-0.35;0.90;-0.56;-159.60;-683.36;-53.00;1.01;118.13;74.05;-7.33 
7.842;1.01;0.00;0.16;-0.35;1.95;-0.35;-162.60;-683.36;-52.00;1.02;118.03;74.02;-7.41 
7.873;1.00;0.02;0.19;-0.21;2.43;-0.21;-163.60;-683.36;-53.00;1.02;117.93;74.09;-7.36 
7.903;1.01;0.01;0.14;-0.21;1.46;-0.07;-162.60;-684.32;-54.00;1.02;117.85;74.12;-7.36 
7.933;1.00;0.00;0.16;-0.28;1.53;-0.35;-165.59;-685.27;-54.00;1.01;117.77;74.11;-7.41 
7.963;0.98;0.03;0.18;-0.28;0.70;-0.07;-165.59;-684.32;-51.00;1.00;117.66;74.10;-7.47 
7.994;1.02;0.00;0.18;-0.42;1.25;-0.35;-163.60;-679.55;-53.00;1.04;117.52;74.07;-7.57 
8.023;0.99;0.01;0.18;-0.49;1.46;-0.21;-163.60;-681.46;-53.00;1.01;117.38;74.16;-7.53 
8.053;1.00;0.02;0.20;-0.14;0.63;-0.07;-162.60;-682.41;-52.00;1.02;117.27;74.23;-7.49 
8.084;1.00;0.03;0.14;-0.28;0.70;-0.07;-166.59;-687.18;-55.00;1.01;117.10;74.32;-7.45 
8.114;0.99;0.01;0.16;-0.35;1.32;-0.35;-165.59;-682.41;-53.00;1.00;116.97;74.29;-7.54 
8.144;0.99;0.01;0.14;-0.42;1.11;0.07;-163.60;-687.18;-52.00;1.00;116.84;74.37;-7.50 
8.174;1.00;0.02;0.18;-0.35;0.77;0.14;-164.59;-685.27;-53.00;1.02;116.70;74.35;-7.59 
8.204;0.99;0.02;0.18;-0.21;1.04;-0.14;-166.59;-684.32;-54.00;1.01;116.56;74.35;-7.65 
8.234;1.02;0.02;0.20;-0.35;1.32;-0.21;-162.60;-683.36;-54.00;1.04;116.46;74.40;-7.63 
8.264;1.00;0.00;0.18;-0.42;1.04;0.00;-163.60;-681.46;-54.00;1.02;116.33;74.45;-7.62 
8.295;1.00;0.00;0.13;-0.28;0.49;-0.35;-161.60;-683.36;-54.00;1.01;116.18;74.44;-7.71 
8.325;1.00;0.02;0.18;-0.14;0.83;-0.14;-166.59;-681.46;-55.00;1.02;116.04;74.53;-7.65 
8.355;1.02;0.00;0.17;-0.21;0.90;0.07;-165.59;-683.36;-55.00;1.03;115.88;74.63;-7.61 
8.385;1.00;0.01;0.18;-0.21;0.97;0.00;-161.60;-685.27;-54.00;1.02;115.74;74.63;-7.67 
8.415;1.01;0.00;0.18;-0.28;0.70;-0.28;-163.60;-685.27;-57.00;1.03;115.63;74.62;-7.73 
8.445;1.00;0.02;0.14;-0.21;0.63;0.21;-161.60;-684.32;-53.00;1.01;115.46;74.63;-7.79 
8.474;0.99;0.01;0.17;-0.49;0.28;0.28;-163.60;-685.27;-53.00;1.00;115.28;74.64;-7.85 
8.504;1.02;0.01;0.18;-0.21;1.53;0.07;-162.60;-684.32;-56.00;1.04;115.13;74.65;-7.91 
8.534;1.01;0.02;0.18;-0.28;0.77;0.35;-163.60;-687.18;-56.00;1.03;115.02;74.72;-7.87 
8.564;1.00;0.00;0.18;-0.14;-1.67;0.28;-168.58;-688.13;-57.00;1.02;114.79;74.75;-7.93 
8.595;1.02;0.00;0.16;-0.21;-0.90;0.00;-162.60;-684.32;-53.00;1.03;114.50;74.89;-7.89 
8.625;1.00;0.00;0.18;-0.21;1.04;0.14;-166.59;-682.41;-57.00;1.02;114.27;75.03;-7.84 
8.655;1.00;0.01;0.18;-0.42;1.81;0.07;-165.59;-686.22;-56.00;1.02;114.15;75.01;-7.90 
8.685;0.98;0.00;0.17;-0.42;1.11;0.35;-166.59;-686.22;-54.00;0.99;114.09;75.04;-7.88 
8.715;1.02;0.00;0.20;-0.21;0.28;-0.07;-165.59;-682.41;-54.00;1.04;113.94;75.12;-7.85 
8.745;1.01;0.01;0.21;-0.21;-0.21;0.28;-166.59;-684.32;-58.00;1.03;113.75;75.20;-7.83 
8.775;0.98;0.03;0.20;-0.21;0.49;-0.21;-166.59;-681.46;-54.00;1.00;113.56;75.21;-7.90 
8.806;0.99;0.02;0.18;-0.42;0.83;0.14;-164.59;-687.18;-55.00;1.01;113.47;75.28;-7.85 
8.836;1.00;0.01;0.18;-0.42;-0.42;0.00;-164.59;-686.22;-55.00;1.02;113.33;75.36;-7.81 
8.866;1.00;0.00;0.17;-0.28;-0.35;0.28;-164.59;-685.27;-49.00;1.01;113.09;75.37;-7.90 
8.896;1.01;0.02;0.16;-0.28;1.25;0.21;-167.59;-685.27;-55.00;1.02;112.86;75.49;-7.86 
8.926;0.99;0.02;0.16;-0.07;1.04;0.42;-165.59;-682.41;-53.00;1.00;112.77;75.55;-7.82 
8.956;1.00;0.01;0.17;-0.28;-0.28;0.28;-164.59;-684.32;-52.00;1.01;112.65;75.61;-7.79 
8.986;1.01;0.00;0.20;-0.28;0.00;0.28;-166.59;-685.27;-54.00;1.03;112.47;75.69;-7.77 
9.016;1.01;0.01;0.17;-0.21;0.42;0.42;-163.60;-686.22;-55.00;1.02;112.28;75.76;-7.77 
9.046;1.01;0.00;0.14;-0.28;0.49;0.07;-166.59;-682.41;-53.00;1.02;112.11;75.76;-7.82 
9.076;1.00;0.01;0.18;-0.14;0.63;0.28;-163.60;-685.27;-54.00;1.02;111.96;75.82;-7.81 
9.107;0.99;0.02;0.17;-0.21;0.49;-0.07;-164.59;-681.46;-55.00;1.00;111.79;75.82;-7.87 
9.136;0.98;0.02;0.18;-0.14;-0.14;0.42;-166.59;-684.32;-52.00;1.00;111.62;75.81;-7.95 
9.166;1.00;0.02;0.18;-0.21;0.83;0.49;-165.59;-684.32;-56.00;1.02;111.46;75.80;-8.02 
9.197;1.00;0.00;0.18;-0.35;0.56;0.21;-163.60;-684.32;-52.00;1.02;111.30;75.77;-8.12 
9.227;1.01;0.00;0.17;-0.28;0.49;0.14;-165.59;-682.41;-54.00;1.02;111.11;75.76;-8.20 
9.257;1.02;0.02;0.19;-0.28;0.07;0.35;-166.59;-682.41;-52.00;1.04;110.94;75.75;-8.27 
9.287;1.01;0.00;0.17;-0.14;1.11;0.00;-161.60;-684.32;-52.00;1.02;110.76;75.76;-8.33 
9.318;1.00;0.01;0.21;-0.42;2.30;-0.07;-166.59;-685.27;-56.00;1.02;110.74;75.79;-8.30 
9.348;0.97;0.02;0.18;-0.07;-1.74;0.49;-163.60;-683.36;-49.00;0.99;110.70;75.84;-8.24 
9.378;0.98;0.00;0.14;-0.28;-2.50;0.21;-166.59;-684.32;-50.00;0.99;110.39;75.97;-8.23 
9.408;1.02;0.00;0.16;-0.35;0.90;-0.28;-167.59;-683.36;-53.00;1.03;110.12;75.98;-8.32 
9.438;1.02;0.00;0.15;-0.28;3.55;-0.14;-165.59;-686.22;-52.00;1.03;110.10;75.91;-8.40 
9.467;0.99;0.01;0.18;-0.35;1.53;0.00;-165.59;-683.36;-51.00;1.01;110.14;75.95;-8.33 
9.497;1.01;0.00;0.18;-0.49;-0.28;0.07;-163.60;-682.41;-53.00;1.03;110.09;75.99;-8.29 
9.527;1.00;0.02;0.15;-0.35;0.70;-0.35;-166.59;-685.27;-52.00;1.01;110.03;76.09;-8.21 
9.557;1.02;0.01;0.18;-0.14;1.88;-0.63;-166.59;-685.27;-52.00;1.04;109.97;76.07;-8.24 
9.587;0.99;0.00;0.17;-0.63;0.83;-0.56;-164.59;-683.36;-51.00;1.00;109.95;76.13;-8.18 
9.618;1.02;0.00;0.17;-0.35;-0.07;-0.42;-165.59;-682.41;-51.00;1.03;109.77;76.12;-8.25 
9.648;1.02;0.00;0.22;-0.42;1.67;-0.42;-164.59;-684.32;-52.00;1.04;109.69;76.17;-8.22 
9.678;0.99;0.00;0.16;-0.35;2.64;-0.56;-166.59;-684.32;-53.00;1.00;109.75;76.21;-8.15 
9.709;1.00;0.00;0.14;-0.42;0.77;-0.07;-165.59;-683.36;-54.00;1.01;109.73;76.25;-8.11 
9.739;1.02;0.00;0.15;-0.35;0.14;-0.42;-162.60;-682.41;-52.00;1.03;109.59;76.32;-8.08 
9.769;1.01;0.01;0.17;-0.28;1.67;-0.49;-161.60;-685.27;-55.00;1.02;109.48;76.32;-8.11 
9.799;1.01;0.00;0.20;-0.21;1.18;-0.07;-164.59;-681.46;-53.00;1.03;109.41;76.29;-8.17 
9.830;0.99;0.01;0.14;-0.28;0.90;0.00;-164.59;-685.27;-55.00;1.00;109.30;76.27;-8.24 
9.860;1.01;0.00;0.15;-0.28;1.53;-0.28;-165.59;-682.41;-52.00;1.02;109.29;76.31;-8.19 
9.890;1.02;0.02;0.18;-0.35;1.25;-0.07;-163.60;-683.36;-51.00;1.04;109.29;76.33;-8.16 
9.920;1.01;0.00;0.19;-0.42;0.97;-0.28;-166.59;-685.27;-51.00;1.03;109.24;76.40;-8.10 
9.950;1.02;0.02;0.14;-0.14;0.97;-0.14;-163.60;-681.46;-51.00;1.03;109.20;76.45;-8.05 
9.980;0.94;0.01;0.14;-0.14;1.32;-0.28;-163.60;-685.27;-51.00;0.95;109.16;76.52;-7.98 
10.010;1.00;0.02;0.20;-0.28;0.77;0.00;-165.59;-682.41;-52.00;1.02;109.03;76.50;-8.05 
10.039;0.99;0.00;0.14;-0.35;2.16;-0.21;-164.59;-686.22;-52.00;1.00;108.95;76.48;-8.09 
10.069;1.02;0.01;0.21;-0.42;1.04;-0.35;-161.60;-681.46;-54.00;1.04;108.97;76.52;-8.03 
10.099;0.99;0.01;0.18;-0.49;-0.97;-0.21;-167.59;-684.32;-55.00;1.01;108.83;76.58;-8.01 
10.129;1.02;0.01;0.16;-0.07;0.35;-0.28;-163.60;-683.36;-54.00;1.03;108.67;76.67;-7.97 
10.159;1.02;0.01;0.16;-0.07;2.43;0.14;-161.60;-682.41;-50.00;1.03;108.64;76.71;-7.93 
10.189;1.02;0.00;0.17;-0.28;1.88;-0.21;-163.60;-684.32;-55.00;1.03;108.66;76.72;-7.90 
10.219;1.00;0.01;0.18;-0.42;0.90;-0.21;-165.59;-680.50;-53.00;1.02;108.55;76.77;-7.88 
10.248;0.98;0.00;0.17;-0.35;0.77;-0.35;-165.59;-687.18;-56.00;0.99;108.50;76.84;-7.83 
10.278;1.01;0.02;0.19;-0.42;1.67;-0.42;-162.60;-681.46;-52.00;1.03;108.46;76.86;-7.80 
10.308;1.02;0.03;0.18;-0.28;1.04;-0.28;-164.59;-682.41;-52.00;1.04;108.46;76.91;-7.74 
10.338;0.99;0.01;0.19;-0.49;0.56;-0.21;-162.60;-684.32;-52.00;1.01;108.35;76.88;-7.82 
10.368;0.98;0.00;0.18;-0.35;0.90;0.00;-162.60;-682.41;-51.00;1.00;108.32;76.92;-7.77 
10.398;1.00;0.00;0.16;-0.35;1.39;-0.56;-163.60;-684.32;-55.00;1.01;108.29;76.95;-7.74 
10.428;1.01;0.00;0.21;-0.42;1.25;-0.21;-161.60;-685.27;-55.00;1.03;108.24;76.93;-7.78 
10.458;0.98;0.02;0.17;-0.21;0.97;0.00;-162.60;-686.22;-53.00;0.99;108.12;76.90;-7.86 
10.488;1.02;0.04;0.20;-0.35;1.04;0.00;-166.59;-684.32;-52.00;1.04;108.06;76.93;-7.83 
10.518;1.00;0.02;0.16;-0.35;0.77;0.07;-163.60;-684.32;-54.00;1.01;107.97;76.92;-7.88 
10.548;1.01;0.00;0.15;-0.56;0.77;-0.07;-163.60;-684.32;-52.00;1.02;107.90;76.97;-7.84 
10.578;1.02;0.00;0.18;-0.21;0.83;-0.28;-162.60;-684.32;-53.00;1.04;107.80;76.96;-7.88 
10.608;1.00;0.02;0.15;-0.28;1.04;0.00;-166.59;-685.27;-55.00;1.01;107.70;76.95;-7.92 
10.639;0.99;0.01;0.18;-0.42;1.04;0.14;-163.60;-681.46;-57.00;1.01;107.68;76.98;-7.89 
10.669;1.01;0.00;0.19;-0.35;1.46;-0.14;-165.59;-685.27;-55.00;1.03;107.66;77.02;-7.84 
10.699;1.00;0.02;0.19;-0.28;1.18;0.07;-165.59;-682.41;-53.00;1.02;107.65;77.04;-7.82 
10.729;0.99;0.01;0.19;-0.49;0.63;-0.42;-164.59;-684.32;-55.00;1.01;107.66;77.09;-7.75 
10.758;1.02;0.00;0.16;-0.49;0.42;-0.42;-163.60;-684.32;-54.00;1.03;107.55;77.08;-7.80 
10.788;1.00;-0.02;0.14;-0.21;1.53;-0.07;-165.59;-682.41;-53.00;1.01;107.52;77.11;-7.77 
10.817;1.01;0.01;0.18;-0.14;1.39;-0.21;-163.60;-683.36;-53.00;1.03;107.52;77.13;-7.74 
10.847;0.98;0.04;0.17;-0.28;-1.32;0.21;-162.60;-686.22;-52.00;1.00;107.40;77.22;-7.68 
10.877;1.01;0.00;0.18;-0.28;-0.35;0.00;-163.60;-685.27;-51.00;1.03;107.27;77.32;-7.62 
10.907;1.01;0.01;0.15;-0.21;1.67;0.07;-164.59;-684.32;-51.00;1.02;107.16;77.30;-7.66 
10.938;1.02;0.00;0.16;-0.14;1.25;0.21;-162.60;-684.32;-53.00;1.03;107.16;77.34;-7.62 
10.967;1.01;0.02;0.19;-0.21;0.70;0.07;-165.59;-682.41;-54.00;1.03;107.05;77.30;-7.69 
10.997;1.00;0.02;0.17;-0.42;0.77;0.00;-164.59;-686.22;-52.00;1.01;106.94;77.27;-7.76 
11.027;1.02;0.01;0.18;-0.35;0.77;-0.07;-163.60;-683.36;-57.00;1.04;106.84;77.25;-7.81 
11.057;1.00;0.02;0.20;-0.49;0.83;0.14;-164.59;-685.27;-53.00;1.02;106.81;77.30;-7.76 
11.087;1.02;0.00;0.19;-0.35;0.97;0.14;-166.59;-684.32;-53.00;1.04;106.81;77.32;-7.73 
11.117;1.01;0.01;0.18;-0.28;0.21;0.14;-165.59;-685.27;-54.00;1.03;106.66;77.29;-7.81 
11.147;1.00;0.00;0.18;-0.28;0.42;0.35;-161.60;-680.50;-53.00;1.02;106.53;77.28;-7.86 
11.177;0.98;0.02;0.15;-0.35;1.46;-0.07;-161.60;-686.22;-53.00;0.99;106.51;77.33;-7.81 
11.207;1.01;0.02;0.18;-0.07;0.49;0.14;-165.59;-682.41;-55.00;1.03;106.41;77.28;-7.89 
11.238;1.00;0.02;0.14;-0.14;0.14;0.49;-164.59;-684.32;-52.00;1.01;106.28;77.27;-7.94 
11.267;0.99;0.01;0.18;-0.28;0.77;-0.14;-162.60;-683.36;-55.00;1.01;106.16;77.26;-7.99 
11.297;1.02;0.00;0.20;-0.07;0.56;0.21;-163.60;-684.32;-51.00;1.04;106.12;77.32;-7.94 
11.328;1.01;0.00;0.14;-0.42;0.83;0.07;-167.59;-682.41;-53.00;1.02;106.04;77.36;-7.91 
11.358;0.99;0.02;0.18;-0.35;0.63;0.28;-164.59;-681.46;-54.00;1.01;106.04;77.40;-7.86 
11.388;1.03;0.01;0.22;-0.21;0.42;0.21;-163.60;-686.22;-52.00;1.05;106.03;77.45;-7.81 
11.418;1.01;0.00;0.16;-0.42;0.63;0.14;-163.60;-683.36;-54.00;1.02;106.01;77.50;-7.75 
11.448;1.01;0.01;0.16;-0.35;1.04;-0.07;-165.59;-685.27;-51.00;1.02;105.93;77.54;-7.73 
11.478;1.01;0.00;0.20;-0.42;0.35;0.14;-162.60;-683.36;-50.00;1.03;105.90;77.57;-7.70 
11.508;1.01;0.01;0.16;-0.42;-0.35;0.21;-164.59;-686.22;-56.00;1.02;105.88;77.61;-7.66 
11.539;1.01;0.00;0.16;-0.35;0.77;0.28;-162.60;-687.18;-54.00;1.02;105.72;77.60;-7.71 
11.568;0.98;0.02;0.17;-0.42;1.95;-0.14;-163.60;-684.32;-56.00;0.99;105.69;77.56;-7.76 
11.598;0.98;0.02;0.17;-0.21;-1.18;0.35;-163.60;-682.41;-52.00;0.99;105.77;77.57;-7.71 
11.628;1.02;0.02;0.17;-0.49;-2.57;0.14;-166.59;-683.36;-51.00;1.03;105.57;77.66;-7.68 
11.657;1.02;0.01;0.17;-0.35;0.49;0.42;-162.60;-683.36;-51.00;1.03;105.32;77.75;-7.67 
11.687;1.02;0.00;0.14;-0.28;2.99;-0.28;-164.59;-684.32;-50.00;1.03;105.38;77.75;-7.64 
11.717;1.02;0.00;0.17;-0.35;1.60;0.00;-163.60;-683.36;-53.00;1.03;105.48;77.72;-7.62 
11.747;1.02;0.02;0.18;-0.49;-0.21;-0.07;-165.59;-682.41;-54.00;1.04;105.39;77.71;-7.66 
11.777;1.02;0.00;0.16;-0.28;0.21;0.28;-162.60;-681.46;-52.00;1.03;105.31;77.74;-7.65 
11.807;1.01;0.02;0.13;-0.35;1.39;0.00;-164.59;-685.27;-55.00;1.02;105.30;77.78;-7.60 
11.838;0.98;0.02;0.18;-0.49;0.77;0.14;-166.59;-684.32;-49.00;1.00;105.23;77.72;-7.68 
11.868;0.98;0.02;0.18;-0.49;-0.70;0.49;-165.59;-684.32;-51.00;1.00;105.10;77.71;-7.73 
11.898;1.00;0.02;0.16;-0.42;-0.63;-0.21;-164.59;-682.41;-51.00;1.01;104.99;77.79;-7.68 
11.928;1.01;0.00;0.17;-0.63;0.97;0.00;-169.58;-682.41;-53.00;1.02;104.85;77.76;-7.76 
11.958;0.98;0.01;0.16;-0.42;0.00;0.00;-165.59;-687.18;-50.00;0.99;104.73;77.73;-7.83 
11.988;0.99;0.02;0.15;-0.21;-0.97;0.35;-168.58;-683.36;-55.00;1.00;104.52;77.72;-7.91 
12.018;1.02;0.00;0.19;-0.35;-0.07;0.56;-164.59;-685.27;-52.00;1.04;104.33;77.73;-7.96 
12.049;1.02;0.00;0.24;-0.83;-1.95;1.88;-166.59;-683.36;-52.00;1.05;104.15;77.72;-8.03 
12.079;0.95;0.02;0.22;-0.97;-8.97;2.50;-166.59;-680.50;-48.00;0.98;103.87;77.80;-8.04 
12.109;1.02;0.02;0.19;-0.56;-19.41;2.50;-165.59;-685.27;-48.00;1.04;102.93;78.10;-8.04 
12.140;1.10;0.07;0.14;1.67;-8.63;2.92;-165.59;-683.36;-43.00;1.11;101.68;78.39;-8.14 
12.170;0.90;0.02;0.30;2.99;-8.90;5.22;-169.58;-687.18;-44.00;0.95;101.29;78.46;-8.16 
12.200;0.93;-0.03;0.23;1.25;-46.26;4.52;-169.58;-685.27;-40.00;0.96;99.73;78.81;-8.25 
