Time(s) acc_x(g) acc_y(g) acc_z(g) gyr_x(°/s) gyr_y(°/s) gyr_z(°/s) mag_x(G) mag_y(G) mag_z(G) SVM(g) yaw(°) pitch(°) roll(°)
0.000;-0.40;0.08;0.78;-0.35;-2.64;0.77;50.00;150.52;-316.73;0.88;-110.61;-27.88;4.58 
0.030;-0.42;0.14;0.82;-0.63;-1.74;1.46;53.00;150.52;-315.73;0.93;-110.69;-27.76;4.64 
0.060;-0.42;0.12;0.78;-1.18;-0.35;3.20;54.00;149.57;-317.73;0.89;-110.80;-27.69;4.70 
0.090;-0.40;0.14;0.80;-2.02;0.49;5.70;54.00;153.40;-316.73;0.91;-110.99;-27.66;4.79 
0.120;-0.45;0.06;0.74;-3.41;2.16;6.89;54.00;149.57;-315.73;0.87;-111.23;-27.63;4.87 
0.150;-0.42;0.12;0.76;-3.62;2.50;7.44;51.00;150.52;-319.73;0.88;-111.48;-27.64;4.92 
0.181;-0.42;0.10;0.80;-3.20;2.02;8.28;54.00;152.44;-316.73;0.91;-111.76;-27.65;4.97 
0.211;-0.43;0.06;0.82;-2.78;2.02;7.37;58.00;150.52;-317.73;0.93;-112.04;-27.63;5.04 
0.241;-0.43;0.09;0.78;-2.50;1.74;6.82;57.00;154.36;-318.73;0.90;-112.28;-27.63;5.10 
0.271;-0.42;0.08;0.79;-2.02;0.42;5.77;59.00;153.40;-316.73;0.90;-112.50;-27.63;5.14 
0.302;-0.42;0.07;0.81;-1.53;-1.67;5.01;59.00;150.52;-314.73;0.92;-112.70;-27.57;5.20 
0.331;-0.39;0.08;0.82;-0.90;-0.21;3.69;57.00;156.28;-317.73;0.91;-112.87;-27.51;5.26 
0.361;-0.42;0.08;0.81;-1.25;0.42;2.71;60.00;151.48;-314.73;0.92;-113.01;-27.48;5.31 
0.392;-0.39;0.10;0.77;-0.97;0.21;1.88;60.00;151.48;-318.73;0.87;-113.12;-27.48;5.35 
0.422;-0.41;0.07;0.79;-0.28;0.63;1.88;60.00;151.48;-313.74;0.89;-113.20;-27.46;5.38 
0.452;-0.37;0.12;0.90;-0.28;0.70;1.81;61.00;152.44;-315.73;0.98;-113.28;-27.47;5.41 
0.482;-0.43;0.08;0.81;-0.14;0.70;1.81;62.00;153.40;-317.73;0.92;-113.35;-27.49;5.44 
0.512;-0.41;0.06;0.78;0.21;0.49;2.16;61.00;150.52;-315.73;0.88;-113.43;-27.49;5.48 
0.542;-0.44;0.08;0.76;-0.07;0.77;1.81;62.00;153.40;-315.73;0.88;-113.51;-27.48;5.54 
0.571;-0.42;0.08;0.77;-0.56;1.53;1.18;60.00;153.40;-317.73;0.88;-113.59;-27.48;5.59 
0.602;-0.41;0.10;0.82;-0.77;1.46;1.39;64.00;152.44;-314.73;0.92;-113.65;-27.52;5.62 
0.632;-0.42;0.07;0.81;-0.63;0.42;0.56;64.00;153.40;-317.73;0.92;-113.71;-27.53;5.65 
0.662;-0.40;0.08;0.80;-0.56;-0.63;-0.14;60.00;152.44;-315.73;0.90;-113.74;-27.51;5.66 
0.693;-0.44;0.11;0.81;-0.28;-0.14;-0.63;66.00;153.40;-316.73;0.93;-113.77;-27.46;5.67 
0.723;-0.50;0.07;0.77;-0.21;0.14;-0.83;64.00;154.36;-314.73;0.92;-113.78;-27.41;5.68 
0.752;-0.45;0.07;0.80;0.70;0.56;-0.28;65.00;153.40;-317.73;0.92;-113.79;-27.43;5.70 
0.781;-0.45;0.07;0.77;1.53;0.56;-0.56;63.00;151.48;-316.73;0.89;-113.82;-27.45;5.77 
0.811;-0.43;0.09;0.81;0.97;4.59;-2.99;64.00;151.48;-314.73;0.92;-113.76;-27.53;5.78 
0.841;-0.42;0.08;0.79;0.70;5.08;-4.73;63.00;156.28;-314.73;0.90;-113.65;-27.69;5.75 
0.871;-0.45;0.10;0.77;1.88;2.85;-4.80;61.00;158.19;-311.74;0.90;-113.53;-27.82;5.74 
0.902;-0.41;0.08;0.74;3.76;1.39;-4.66;61.00;155.32;-316.73;0.85;-113.40;-27.90;5.78 
0.932;-0.32;0.13;0.63;4.73;-2.71;0.07;59.00;152.44;-313.74;0.72;-113.34;-27.87;5.88 
0.962;-0.28;0.14;0.57;0.21;1.53;8.35;64.00;151.48;-317.73;0.65;-113.52;-27.74;6.13 
0.992;-0.30;0.10;0.55;-9.74;8.90;11.97;65.00;155.32;-310.74;0.63;-113.86;-27.81;6.29 
1.021;-0.36;0.09;0.52;-21.50;13.98;2.78;66.00;160.11;-310.74;0.64;-114.17;-28.15;6.05 
1.050;-0.23;0.02;0.58;-15.44;18.99;-19.20;60.00;157.24;-309.74;0.62;-113.99;-28.61;5.42 
1.080;-0.16;-0.07;0.70;-12.66;-0.14;-25.32;53.00;160.11;-305.74;0.72;-113.29;-28.86;4.65 
1.109;-0.27;-0.05;0.58;-6.61;-39.03;-11.06;44.00;153.40;-307.74;0.64;-112.71;-28.25;3.93 
1.138;-0.25;-0.10;0.40;-8.56;-68.03;2.57;44.00;152.44;-316.73;0.48;-112.75;-26.72;3.57 
1.167;-0.31;-0.14;0.34;-21.29;-71.44;6.82;43.00;138.06;-329.72;0.48;-113.10;-24.70;3.10 
1.196;-0.30;-0.26;0.26;-37.70;-35.76;-14.26;41.00;128.47;-335.72;0.47;-113.12;-23.24;1.85 
1.226;-0.10;-0.12;0.24;-11.13;3.76;-42.23;33.00;125.60;-341.71;0.29;-112.32;-22.92;0.39 
1.255;-0.20;0.26;0.24;14.68;22.40;-36.24;21.00;123.68;-334.72;0.41;-111.14;-23.38;-0.04 
1.286;-0.38;0.72;0.42;49.53;-13.63;-27.62;19.00;126.56;-333.72;0.92;-110.39;-24.00;1.36 
1.316;-0.26;0.81;0.77;14.33;7.03;17.67;25.00;125.60;-337.72;1.15;-110.38;-23.71;3.16 
1.346;-0.63;0.14;0.84;-20.45;-22.89;50.71;30.00;125.60;-341.71;1.06;-111.76;-23.41;3.82 
1.376;-0.89;-0.26;0.88;-17.81;-76.66;24.42;32.00;117.93;-348.71;1.28;-112.84;-22.78;3.82 
1.406;-0.29;0.19;0.64;-39.37;-142.40;-18.30;32.00;102.59;-364.69;0.73;-113.18;-19.89;3.16 
1.436;0.08;0.53;0.37;-44.59;-121.95;-13.36;18.00;79.58;-372.69;0.65;-113.21;-15.72;2.25 
1.466;0.34;0.47;0.58;-48.35;-67.13;31.44;2.00;61.36;-388.67;0.82;-113.64;-12.07;1.44 
1.497;0.10;-0.30;1.16;-53.84;-11.55;26.16;-5.00;50.81;-394.67;1.20;-114.99;-10.59;0.26 
1.527;0.00;-0.38;1.37;-91.34;-48.00;-45.43;-22.00;47.94;-388.67;1.42;-115.00;-9.60;-2.32 
1.557;-0.23;0.34;1.29;-61.22;-109.36;-48.77;-50.00;31.64;-386.67;1.35;-113.73;-7.07;-4.91 
1.588;-0.12;0.00;1.14;-42.16;-153.53;10.37;-66.00;7.67;-396.67;1.15;-113.69;-3.14;-6.60 
1.618;0.03;-0.30;0.98;-23.30;-139.62;34.37;-83.00;-25.89;-414.65;1.03;-114.97;1.62;-7.76 
1.648;-0.08;-0.51;0.89;-14.54;-129.25;-15.23;-95.00;-48.90;-416.65;1.03;-116.01;5.84;-8.73 
1.677;2.87;-4.59;6.55;-77.57;27.20;-56.42;-118.00;-46.98;-413.65;8.50;-114.73;4.95;-10.20 
1.707;-0.35;0.10;2.06;206.82;-542.19;-102.68;-127.00;-64.24;-415.65;2.09;-116.26;13.72;-7.61 
1.737;1.46;0.50;-0.66;-1.11;-165.50;-53.36;-75.00;-219.55;-465.61;1.68;-108.56;25.47;-1.04 
1.767;1.02;1.76;-1.12;-207.10;166.75;84.03;-84.00;-218.60;-450.62;2.32;-109.30;26.90;-4.67 
1.798;-0.38;-0.20;-0.05;-64.70;282.64;276.66;-109.00;-155.32;-437.63;0.43;-115.38;19.03;-10.26 
1.828;0.14;-0.90;0.66;188.17;46.47;96.97;-96.00;-95.88;-433.63;1.12;-121.52;13.55;-11.30 
1.858;0.08;-0.36;1.02;-14.68;176.35;-3.20;-53.00;-52.73;-450.62;1.08;-122.73;9.15;-8.44 
1.888;-0.39;0.07;0.75;43.55;-17.88;9.18;-50.00;-45.06;-443.63;0.85;-122.50;7.04;-8.02 
1.918;-0.31;0.18;0.77;78.82;-27.90;47.58;-36.00;-50.81;-443.63;0.85;-123.52;7.20;-5.96 
1.948;-0.09;-0.95;1.88;69.01;75.62;66.02;-15.00;-46.98;-458.61;2.11;-125.04;6.54;-3.83 
1.978;-1.16;-0.45;2.06;121.60;-22.54;29.36;4.00;-29.72;-451.62;2.41;-127.74;4.31;-2.02 
2.009;0.51;0.24;1.37;-2.30;-248.42;-124.24;26.00;-64.24;-466.61;1.48;-125.15;8.39;0.89 
2.039;0.98;-0.20;0.43;-27.62;-148.66;18.50;13.00;-110.26;-470.60;1.09;-123.07;15.14;0.80 
2.069;0.61;-0.34;0.08;-46.96;-64.49;-26.16;4.00;-136.14;-471.60;0.70;-122.60;19.10;-0.86 
2.100;0.65;0.01;0.08;-14.33;21.91;-42.85;-7.00;-147.65;-471.60;0.65;-121.13;20.75;-1.54 
2.130;0.36;0.44;0.39;12.38;106.43;-19.69;-4.00;-135.18;-471.60;0.69;-120.27;19.35;-0.91 
2.160;0.15;0.43;0.94;24.77;127.65;-4.10;-1.00;-112.17;-468.61;1.04;-120.38;15.85;0.18 
2.190;0.02;0.17;1.42;21.91;75.34;-6.89;7.00;-85.33;-465.61;1.43;-120.70;12.37;1.07 
2.220;0.01;0.00;1.42;9.46;-17.11;-19.41;11.00;-76.70;-463.61;1.42;-120.62;11.11;1.60 
2.250;0.22;0.23;0.98;2.92;-69.01;-22.12;7.00;-89.16;-462.61;1.03;-119.83;12.27;1.93 
2.279;0.34;0.27;0.62;2.50;-61.63;-3.06;7.00;-107.38;-462.61;0.76;-119.14;14.37;2.27 
2.310;0.49;0.11;0.48;4.73;-15.79;10.71;7.00;-115.05;-470.60;0.69;-119.05;16.03;2.51 
2.339;0.37;0.00;0.66;2.57;40.35;8.97;10.00;-116.01;-469.60;0.76;-119.41;16.08;2.51 
2.369;0.19;-0.08;0.99;-2.16;48.07;6.33;12.00;-103.55;-469.60;1.01;-119.90;14.73;2.34 
2.400;0.10;-0.06;1.18;-6.40;7.17;0.35;11.00;-93.96;-465.61;1.19;-120.20;13.62;2.04 
2.430;0.24;0.00;1.02;-10.64;-35.13;0.77;10.00;-96.83;-467.61;1.05;-120.19;13.95;1.68 
2.460;0.36;0.01;0.72;-11.83;-35.41;2.78;7.00;-102.59;-468.61;0.81;-120.10;15.05;1.30 
2.490;0.40;-0.02;0.64;-7.58;-3.69;4.59;2.00;-110.26;-467.61;0.75;-120.12;15.91;0.92 
2.521;0.34;-0.01;0.77;-0.49;19.41;5.50;4.00;-110.26;-468.61;0.84;-120.34;15.61;0.73 
2.551;0.26;-0.03;0.93;2.02;9.81;2.23;2.00;-108.34;-468.61;0.97;-120.58;15.08;0.62 
2.581;0.24;0.00;0.96;1.04;-8.28;1.25;6.00;-104.50;-465.61;0.99;-120.67;15.03;0.62 
2.612;0.29;0.00;0.83;0.14;-12.87;-0.90;3.00;-107.38;-466.61;0.88;-120.68;15.38;0.57 
2.642;0.30;0.00;0.78;-0.14;-5.08;-1.95;4.00;-111.22;-467.61;0.84;-120.63;15.75;0.52 
2.672;0.30;0.02;0.81;0.42;0.28;0.63;1.00;-114.09;-468.61;0.86;-120.63;15.80;0.49 
2.702;0.30;0.00;0.89;0.07;1.67;0.97;5.00;-108.34;-469.60;0.94;-120.71;15.75;0.45 
2.732;0.31;-0.04;0.86;-0.28;1.25;-0.28;2.00;-112.17;-468.61;0.92;-120.78;15.67;0.39 
2.762;0.30;0.00;0.88;-0.90;0.63;-1.11;2.00;-112.17;-469.60;0.93;-120.81;15.61;0.34 
2.792;0.30;0.00;0.86;0.56;-2.16;-1.39;1.00;-112.17;-470.60;0.91;-120.78;15.63;0.34 
2.822;0.30;0.02;0.85;1.46;-2.43;-0.42;0.00;-112.17;-470.60;0.90;-120.77;15.79;0.38 
2.852;0.34;0.02;0.86;1.53;0.00;-0.21;3.00;-110.26;-470.60;0.92;-120.79;15.83;0.40 
2.881;0.31;0.02;0.85;1.11;2.16;-0.21;6.00;-113.13;-467.61;0.90;-120.82;15.78;0.41 
2.912;0.29;0.02;0.85;0.14;1.11;0.49;3.00;-111.22;-469.60;0.90;-120.87;15.72;0.41 
2.942;0.31;0.01;0.86;-0.97;-2.23;0.49;5.00;-112.17;-467.61;0.91;-120.90;15.76;0.38 
2.971;0.31;0.00;0.86;-0.83;-2.30;-0.21;0.00;-114.09;-470.60;0.91;-120.94;15.82;0.32 
3.001;0.31;0.02;0.82;-0.63;0.63;0.21;7.00;-112.17;-469.60;0.88;-120.97;15.90;0.27 
3.031;0.30;0.02;0.83;-0.14;1.81;-0.07;4.00;-115.05;-468.61;0.88;-121.00;15.88;0.25 
3.060;0.32;0.01;0.90;-0.42;1.04;0.21;4.00;-112.17;-467.61;0.96;-121.04;15.85;0.24 
3.090;0.30;0.00;0.83;-0.14;-0.70;-0.14;3.00;-110.26;-464.61;0.88;-121.07;15.84;0.20 
3.120;0.29;0.00;0.83;-0.49;-0.21;0.00;4.00;-114.09;-468.61;0.88;-121.10;15.88;0.16 
3.150;0.34;0.00;0.84;-0.63;0.07;0.14;4.00;-110.26;-467.61;0.91;-121.15;15.86;0.11 
3.180;0.33;0.00;0.86;-0.77;0.83;0.28;3.00;-111.22;-468.61;0.92;-121.19;15.84;0.06 
3.211;0.30;0.00;0.85;-0.07;0.77;-0.28;2.00;-113.13;-467.61;0.90;-121.22;15.78;0.02 
3.240;0.27;0.02;0.87;-0.83;0.21;-0.49;4.00;-114.09;-471.60;0.91;-121.24;15.78;0.00 
3.270;0.27;-0.02;0.83;-0.14;-0.77;-0.56;2.00;-115.05;-466.61;0.87;-121.25;15.82;-0.02 
3.300;0.32;0.01;0.85;0.42;1.11;-1.18;7.00;-116.01;-465.61;0.91;-121.27;15.81;-0.04 
3.330;0.30;0.02;0.86;0.49;1.53;-0.56;6.00;-114.09;-466.61;0.91;-121.29;15.76;-0.05 
3.360;0.33;0.00;0.85;0.07;1.81;0.21;0.00;-113.13;-468.61;0.91;-121.31;15.78;-0.04 
3.390;0.31;0.00;0.86;0.07;0.70;-0.28;3.00;-113.13;-469.60;0.91;-121.32;15.79;-0.05 
3.421;0.31;0.00;0.83;-0.42;0.21;-0.56;6.00;-115.05;-467.61;0.89;-121.35;15.76;-0.07 
3.451;0.30;0.02;0.85;-0.42;0.77;-0.14;4.00;-114.09;-469.60;0.90;-121.38;15.72;-0.10 
3.481;0.37;0.09;0.95;-0.63;1.11;0.49;4.00;-114.09;-468.61;1.02;-121.42;15.68;-0.14 
3.511;0.31;0.01;0.84;0.00;0.07;0.56;3.00;-112.17;-470.60;0.90;-121.47;15.68;-0.17 
3.541;0.34;0.00;0.85;-0.14;0.21;0.21;1.00;-112.17;-465.61;0.92;-121.51;15.71;-0.20 
3.571;0.31;0.00;0.89;-0.49;0.83;-0.07;3.00;-112.17;-470.60;0.94;-121.55;15.67;-0.23 
3.601;0.30;0.01;0.86;-0.49;0.49;0.00;5.00;-114.09;-468.61;0.91;-121.58;15.67;-0.28 
3.632;0.30;0.01;0.85;-0.21;0.49;0.63;0.00;-113.13;-468.61;0.90;-121.63;15.64;-0.32 
3.662;0.31;0.01;0.83;0.14;0.56;0.42;4.00;-115.05;-469.60;0.89;-121.69;15.60;-0.35 
3.692;0.30;0.02;0.85;-0.42;0.97;-0.35;2.00;-113.13;-467.61;0.90;-121.73;15.55;-0.39 
3.722;0.30;0.00;0.85;-0.07;0.35;0.14;3.00;-115.05;-467.61;0.90;-121.77;15.56;-0.43 
3.752;0.34;0.00;0.84;-0.35;-0.83;0.28;4.00;-113.13;-467.61;0.91;-121.81;15.61;-0.44 
3.782;0.30;0.00;0.86;-0.07;-0.35;0.35;0.00;-114.09;-465.61;0.91;-121.84;15.66;-0.46 
3.812;0.34;0.00;0.86;-0.42;-0.28;0.28;1.00;-116.01;-468.61;0.92;-121.88;15.72;-0.47 
3.842;0.33;0.00;0.80;0.00;-0.63;0.28;5.00;-113.13;-466.61;0.87;-121.91;15.76;-0.48 
3.872;0.30;0.00;0.86;0.00;-0.07;0.21;-1.00;-112.17;-468.61;0.91;-121.95;15.79;-0.49 
3.902;0.30;0.02;0.84;-0.28;0.63;0.42;4.00;-115.05;-471.60;0.89;-121.99;15.82;-0.50 
3.933;0.30;0.00;0.84;-0.07;0.14;0.77;5.00;-116.97;-466.61;0.89;-122.06;15.77;-0.54 
3.963;0.29;-0.02;0.85;0.14;-0.21;0.70;3.00;-115.05;-467.61;0.90;-122.13;15.75;-0.57 
3.993;0.31;0.00;0.83;0.07;0.77;0.14;1.00;-112.17;-465.61;0.89;-122.18;15.72;-0.59 
4.023;0.33;0.00;0.81;-0.28;0.97;0.14;5.00;-116.97;-467.61;0.87;-122.21;15.73;-0.60 
4.053;0.29;0.02;0.83;-0.42;1.11;0.21;1.00;-112.17;-467.61;0.88;-122.25;15.73;-0.60 
4.083;0.32;0.00;0.88;-0.21;0.56;0.28;2.00;-113.13;-464.61;0.94;-122.28;15.77;-0.60 
4.112;0.26;-0.06;0.78;0.14;0.07;0.90;2.00;-116.01;-473.60;0.82;-122.34;15.74;-0.65 
4.143;0.30;0.01;0.88;0.14;0.63;2.30;4.00;-112.17;-466.61;0.93;-122.42;15.75;-0.67 
4.172;0.32;0.00;0.88;0.14;1.25;3.41;6.00;-114.09;-467.61;0.94;-122.53;15.70;-0.70 
4.202;0.31;0.00;0.87;-0.56;0.00;4.10;4.00;-114.09;-467.61;0.92;-122.67;15.71;-0.73 
4.233;0.30;0.00;0.83;-1.11;-0.21;2.85;2.00;-116.01;-465.61;0.88;-122.80;15.70;-0.79 
4.263;0.31;0.00;0.82;-0.70;1.32;1.04;3.00;-115.05;-464.61;0.88;-122.89;15.74;-0.85 
4.292;0.32;0.00;0.86;0.35;2.64;1.46;1.00;-115.05;-464.61;0.92;-122.96;15.67;-0.88 
4.322;0.29;-0.05;0.83;0.14;3.27;1.53;5.00;-114.09;-468.61;0.88;-123.04;15.56;-0.89 
4.352;0.36;0.02;0.91;-0.70;1.67;2.30;5.00;-112.17;-467.61;0.98;-123.14;15.45;-0.93 
4.382;0.30;0.01;0.86;-1.18;-0.42;1.53;1.00;-111.22;-464.61;0.91;-123.22;15.47;-0.97 
4.412;0.32;0.00;0.80;-1.18;0.83;1.25;4.00;-112.17;-468.61;0.86;-123.30;15.45;-1.05 
4.443;0.31;0.00;0.83;-0.28;2.50;0.83;2.00;-113.13;-467.61;0.89;-123.38;15.37;-1.10 
4.473;0.32;0.00;0.86;-0.07;3.34;1.60;1.00;-108.34;-466.61;0.92;-123.46;15.32;-1.10 
4.503;0.27;-0.05;0.80;-0.28;2.71;2.02;1.00;-111.22;-468.61;0.85;-123.54;15.26;-1.11 
4.532;0.32;0.02;0.88;-0.77;0.97;2.30;-1.00;-112.17;-467.61;0.94;-123.62;15.27;-1.11 
4.561;0.28;0.00;0.84;-1.53;1.04;1.11;-4.00;-110.26;-461.61;0.89;-123.69;15.27;-1.17 
4.591;0.30;-0.03;0.83;-1.04;2.99;0.90;0.00;-109.30;-463.61;0.88;-123.73;15.23;-1.22 
4.621;0.30;0.00;0.86;0.35;3.27;0.42;0.00;-109.30;-464.61;0.91;-123.75;15.13;-1.24 
4.651;0.28;0.00;0.85;0.56;0.35;-0.28;4.00;-108.34;-467.61;0.89;-123.80;15.05;-1.24 
4.681;0.30;0.00;0.82;0.00;-0.70;-0.63;2.00;-112.17;-464.61;0.87;-123.81;15.06;-1.23 
4.711;0.32;0.00;0.86;-0.77;0.07;-0.28;-1.00;-110.26;-465.61;0.92;-123.83;15.06;-1.25 
4.742;0.30;0.00;0.82;-0.42;0.97;-0.56;0.00;-110.26;-461.61;0.87;-123.82;15.10;-1.27 
4.772;0.32;0.00;0.84;0.00;1.11;-0.90;-1.00;-107.38;-467.61;0.90;-123.84;15.06;-1.27 
4.802;0.30;0.01;0.84;0.42;0.56;-0.35;-2.00;-111.22;-464.61;0.89;-123.84;15.07;-1.25 
4.832;0.29;0.02;0.86;-0.35;-0.07;0.00;3.00;-109.30;-469.60;0.91;-123.87;15.04;-1.25 
4.862;0.31;0.00;0.85;-0.14;0.14;0.28;3.00;-109.30;-467.61;0.90;-123.91;15.02;-1.27 
4.892;0.30;0.00;0.84;-0.42;0.07;0.00;1.00;-110.26;-462.61;0.89;-123.95;15.00;-1.29 
4.922;0.31;0.00;0.85;-0.21;0.49;-0.77;1.00;-111.22;-465.61;0.90;-123.98;14.98;-1.30 
4.953;0.30;0.00;0.84;-0.21;-0.14;-0.97;0.00;-111.22;-465.61;0.89;-123.96;15.06;-1.31 
4.983;0.34;0.00;0.82;0.28;-0.35;-0.77;-1.00;-110.26;-465.61;0.89;-123.96;15.07;-1.30 
5.013;0.29;0.00;0.83;0.28;0.83;-0.21;3.00;-108.34;-467.61;0.88;-123.96;15.12;-1.28 
5.044;0.26;-0.06;0.77;0.14;0.70;-0.35;0.00;-109.30;-467.61;0.81;-123.97;15.08;-1.27 
5.074;0.31;0.00;0.84;0.00;-0.49;-0.28;0.00;-107.38;-466.61;0.90;-123.97;15.09;-1.27 
5.104;0.27;0.02;0.84;-0.07;0.42;-0.21;3.00;-111.22;-465.61;0.88;-124.00;15.08;-1.28 
5.134;0.26;-0.08;0.77;0.21;1.04;-0.35;0.00;-112.17;-465.61;0.82;-124.01;15.13;-1.25 
5.164;0.28;0.01;0.87;-0.07;-0.28;-0.77;3.00;-112.17;-464.61;0.91;-124.03;15.12;-1.26 
5.194;0.30;0.00;0.84;0.00;-0.56;-0.49;2.00;-108.34;-466.61;0.89;-124.05;15.11;-1.26 
5.223;0.31;0.04;0.82;-0.42;0.07;-0.56;3.00;-109.30;-467.61;0.88;-124.07;15.10;-1.28 
5.254;0.26;-0.03;0.80;-0.35;0.97;-0.07;1.00;-111.22;-463.61;0.84;-124.09;15.06;-1.30 
5.284;0.30;0.00;0.85;-0.07;0.56;0.07;-2.00;-111.22;-467.61;0.90;-124.13;15.07;-1.30 
5.314;0.29;0.00;0.83;-0.07;0.56;-0.42;2.00;-112.17;-468.61;0.88;-124.14;15.05;-1.30 
5.345;0.30;0.09;0.90;-0.07;0.97;-0.49;3.00;-114.09;-467.61;0.95;-124.17;15.00;-1.31 
5.375;0.30;0.01;0.86;-0.21;0.77;-0.42;-1.00;-111.22;-464.61;0.91;-124.20;14.94;-1.33 
5.405;0.30;0.00;0.84;-0.21;0.28;0.28;4.00;-110.26;-465.61;0.89;-124.23;14.92;-1.34 
5.435;0.33;0.00;0.84;-0.35;0.42;0.56;5.00;-108.34;-468.61;0.90;-124.25;15.00;-1.32 
5.466;0.32;0.01;0.86;-0.21;0.97;-0.07;2.00;-113.13;-469.60;0.92;-124.29;14.97;-1.35 
5.496;0.31;0.00;0.86;0.14;1.32;-0.07;1.00;-110.26;-468.61;0.91;-124.32;14.93;-1.36 
5.526;0.32;0.00;0.88;0.00;1.18;-0.14;2.00;-107.38;-468.61;0.94;-124.36;14.86;-1.38 
5.557;0.30;0.02;0.85;-0.07;0.21;-0.28;-4.00;-112.17;-466.61;0.90;-124.38;14.82;-1.39 
5.587;0.32;-0.02;0.88;0.35;-0.14;-0.07;3.00;-112.17;-464.61;0.94;-124.41;14.82;-1.40 
5.617;0.26;0.00;0.80;0.14;0.63;-0.70;0.00;-109.30;-469.60;0.84;-124.44;14.80;-1.40 
5.646;0.30;0.03;0.85;0.14;2.78;-1.53;1.00;-111.22;-469.60;0.90;-124.45;14.73;-1.39 
5.676;0.33;0.00;0.84;-0.14;2.23;-2.43;1.00;-108.34;-465.61;0.90;-124.42;14.69;-1.36 
5.706;0.30;0.00;0.85;-0.42;0.14;-2.92;2.00;-109.30;-469.60;0.90;-124.36;14.69;-1.34 
5.736;0.34;0.03;0.90;-0.90;-0.83;-2.57;0.00;-112.17;-467.61;0.96;-124.29;14.75;-1.30 
5.767;0.30;0.02;0.86;-0.14;1.46;-0.70;3.00;-112.17;-466.61;0.91;-124.26;14.79;-1.31 
5.796;0.31;0.00;0.85;-0.07;2.16;-0.83;1.00;-110.26;-464.61;0.90;-124.26;14.75;-1.30 
5.826;0.32;0.00;0.85;-0.63;0.70;-1.74;3.00;-112.17;-466.61;0.91;-124.26;14.69;-1.31 
5.857;0.27;-0.05;0.82;-0.83;0.14;-1.67;0.00;-109.30;-466.61;0.86;-124.25;14.66;-1.32 
5.887;0.33;0.02;0.83;-0.56;-0.42;-1.60;5.00;-111.22;-467.61;0.89;-124.23;14.70;-1.33 
5.917;0.33;0.02;0.86;-0.42;1.04;-1.39;2.00;-112.17;-470.60;0.92;-124.19;14.77;-1.31 
5.947;0.31;0.00;0.86;-0.49;1.46;-1.11;3.00;-110.26;-463.61;0.91;-124.19;14.73;-1.32 
5.978;0.30;0.01;0.86;-0.83;0.21;-0.90;2.00;-112.17;-465.61;0.91;-124.21;14.68;-1.34 
6.008;0.29;0.00;0.80;-0.77;-0.07;-1.04;3.00;-109.30;-464.61;0.85;-124.19;14.72;-1.33 
6.038;0.30;0.00;0.84;-0.56;0.56;-0.63;2.00;-111.22;-464.61;0.89;-124.19;14.78;-1.34 
6.069;0.30;0.00;0.83;-0.28;0.83;-0.77;1.00;-112.17;-469.60;0.88;-124.18;14.83;-1.32 
6.099;0.31;0.02;0.82;-0.21;0.63;-0.63;2.00;-110.26;-466.61;0.88;-124.19;14.79;-1.33 
6.128;0.30;0.00;0.82;-0.35;-0.07;-0.56;4.00;-110.26;-466.61;0.87;-124.20;14.77;-1.33 
6.158;0.30;0.00;0.83;-0.35;0.49;-0.83;1.00;-112.17;-469.60;0.88;-124.21;14.76;-1.35 
6.188;0.28;0.00;0.84;-0.49;0.63;-0.83;1.00;-115.05;-469.60;0.89;-124.21;14.75;-1.33 
6.218;0.33;0.00;0.85;-0.49;0.49;-1.04;3.00;-113.13;-467.61;0.91;-124.22;14.72;-1.35 
6.248;0.30;0.00;0.86;-0.49;0.63;-1.04;1.00;-111.22;-468.61;0.91;-124.23;14.68;-1.37 
6.279;0.32;0.00;0.89;-0.28;0.00;-1.11;3.00;-109.30;-463.61;0.95;-124.24;14.65;-1.38 
6.308;0.32;0.00;0.89;-0.35;0.70;-1.04;1.00;-110.26;-468.61;0.95;-124.23;14.69;-1.37 
6.338;0.36;0.01;0.91;-0.14;1.04;-0.63;2.00;-112.17;-467.61;0.98;-124.22;14.75;-1.35 
6.369;0.30;0.00;0.88;-0.56;0.07;-0.97;2.00;-114.09;-465.61;0.93;-124.23;14.73;-1.36 
6.399;0.33;0.00;0.80;-0.28;-0.07;-0.83;1.00;-108.34;-468.61;0.87;-124.23;14.76;-1.37 
6.429;0.31;0.00;0.83;-0.14;0.21;-1.11;-1.00;-109.30;-466.61;0.89;-124.22;14.81;-1.36 
6.459;0.30;0.02;0.86;-0.42;0.70;-0.83;2.00;-113.13;-468.61;0.91;-124.22;14.83;-1.34 
6.490;0.31;0.02;0.82;-0.49;0.28;-0.21;0.00;-112.17;-467.61;0.88;-124.22;14.86;-1.34 
6.520;0.30;0.00;0.82;-0.07;0.56;-0.14;3.00;-113.13;-466.61;0.87;-124.23;14.88;-1.35 
6.550;0.29;0.00;0.84;-0.35;0.07;-0.28;2.00;-112.17;-467.61;0.89;-124.27;14.84;-1.36 
6.580;0.31;0.03;0.86;-0.28;0.42;-0.49;-1.00;-110.26;-467.61;0.91;-124.28;14.91;-1.34 
6.610;0.31;0.00;0.82;-0.35;0.83;-0.56;0.00;-111.22;-467.61;0.88;-124.28;14.98;-1.32 
6.640;0.30;0.00;0.82;-0.21;0.56;0.00;2.00;-111.22;-466.61;0.87;-124.29;14.99;-1.30 
6.670;0.30;0.00;0.89;-0.14;0.00;0.00;3.00;-109.30;-467.61;0.94;-124.31;15.02;-1.31 
6.700;0.31;0.02;0.85;-0.49;0.35;-0.21;2.00;-112.17;-466.61;0.90;-124.32;15.04;-1.30 
6.730;0.32;0.00;0.82;-0.42;0.56;-0.07;2.00;-110.26;-468.61;0.88;-124.34;15.07;-1.30 
6.760;0.30;0.00;0.83;-0.14;0.70;0.21;-3.00;-111.22;-469.60;0.88;-124.37;15.10;-1.30 
6.790;0.29;0.01;0.87;-0.07;0.90;0.49;2.00;-109.30;-469.60;0.92;-124.42;15.04;-1.31 
6.820;0.27;-0.02;0.85;-0.49;0.07;0.42;2.00;-112.17;-469.60;0.89;-124.45;15.05;-1.30 
6.849;0.33;0.00;0.85;-0.56;0.49;0.49;-1.00;-113.13;-465.61;0.91;-124.50;15.02;-1.32 
6.880;0.29;0.00;0.86;-0.07;0.49;0.00;0.00;-114.09;-467.61;0.91;-124.55;14.99;-1.34 
6.910;0.32;0.00;0.84;-0.28;0.70;0.14;0.00;-110.26;-466.61;0.90;-124.56;14.97;-1.36 
6.940;0.26;-0.03;0.80;0.14;0.70;0.07;0.00;-111.22;-468.61;0.84;-124.59;14.95;-1.37 
6.970;0.29;0.01;0.82;-0.28;0.49;0.14;1.00;-111.22;-464.61;0.87;-124.63;14.91;-1.39 
7.001;0.30;0.00;0.87;-0.14;0.56;-0.07;3.00;-110.26;-468.61;0.92;-124.66;14.88;-1.39 
7.031;0.32;0.00;0.83;0.14;0.35;0.28;1.00;-113.13;-467.61;0.89;-124.71;14.84;-1.40 
7.061;0.30;-0.02;0.85;0.07;0.90;0.07;-2.00;-115.05;-469.60;0.90;-124.75;14.80;-1.41 
7.091;0.27;0.00;0.86;0.07;0.97;0.21;1.00;-111.22;-464.61;0.90;-124.77;14.76;-1.41 
7.121;0.30;0.00;0.84;-0.35;0.14;0.00;-1.00;-114.09;-465.61;0.89;-124.81;14.73;-1.42 
7.151;0.31;-0.02;0.83;0.07;-0.28;-0.49;3.00;-112.17;-465.61;0.89;-124.83;14.74;-1.43 
7.180;0.30;0.00;0.85;0.28;0.49;-0.14;0.00;-111.22;-464.61;0.90;-124.83;14.73;-1.42 
7.210;0.26;0.00;0.80;-0.07;1.25;0.35;1.00;-112.17;-467.61;0.84;-124.85;14.74;-1.39 
7.240;0.28;0.01;0.85;-0.35;0.35;0.56;0.00;-113.13;-465.61;0.89;-124.88;14.78;-1.39 
7.270;0.31;0.00;0.86;0.14;0.14;0.35;2.00;-112.17;-465.61;0.91;-124.92;14.84;-1.40 
7.300;0.29;0.00;0.82;0.00;0.56;0.42;-1.00;-114.09;-465.61;0.87;-124.97;14.82;-1.41 
7.330;0.29;0.00;0.80;0.00;0.63;0.49;2.00;-113.13;-467.61;0.85;-125.01;14.79;-1.42 
7.360;0.29;0.01;0.86;-0.35;0.97;0.21;-2.00;-116.01;-464.61;0.91;-125.04;14.78;-1.42 
7.391;0.26;0.00;0.83;-0.21;0.56;0.00;2.00;-115.05;-465.61;0.87;-125.06;14.82;-1.40 
7.421;0.31;0.00;0.86;-0.07;0.28;0.00;0.00;-109.30;-470.60;0.91;-125.09;14.88;-1.41 
7.450;0.30;0.00;0.86;-0.07;0.56;-0.07;0.00;-111.22;-467.61;0.91;-125.11;14.84;-1.41 
7.480;0.29;0.02;0.85;-0.21;0.63;0.07;1.00;-111.22;-466.61;0.90;-125.13;14.86;-1.40 
7.510;0.30;0.02;0.86;-0.56;0.63;0.14;0.00;-113.13;-466.61;0.91;-125.16;14.87;-1.39 
7.540;0.30;0.00;0.84;-0.14;0.35;0.07;-4.00;-112.17;-464.61;0.89;-125.19;14.90;-1.44 
7.570;0.30;0.01;0.86;0.07;0.70;0.35;2.00;-115.05;-466.61;0.91;-125.23;14.86;-1.45 
7.601;0.31;0.00;0.86;-0.07;0.56;0.07;-2.00;-112.17;-465.61;0.91;-125.26;14.83;-1.46 
7.630;0.30;0.00;0.84;-0.21;0.49;0.00;1.00;-112.17;-470.60;0.89;-125.30;14.81;-1.46 
7.660;0.32;0.00;0.84;0.14;0.35;0.28;4.00;-113.13;-468.61;0.90;-125.34;14.81;-1.44 
7.690;0.30;0.00;0.84;-0.21;0.49;0.42;0.00;-111.22;-467.61;0.89;-125.36;14.87;-1.44 
7.720;0.30;0.02;0.86;-0.42;0.83;0.21;5.00;-109.30;-468.61;0.91;-125.39;14.89;-1.43 
7.750;0.30;0.00;0.82;-0.35;0.49;-0.07;1.00;-112.17;-468.61;0.87;-125.42;14.88;-1.43 
7.780;0.31;0.00;0.83;-0.35;0.21;-0.21;2.00;-114.09;-467.61;0.89;-125.45;14.86;-1.44 
7.809;0.28;0.00;0.86;-0.42;0.83;-0.28;2.00;-109.30;-468.61;0.90;-125.46;14.90;-1.41 
7.839;0.26;0.01;0.81;-0.35;0.83;-0.49;0.00;-113.13;-469.60;0.85;-125.48;14.87;-1.41 
7.869;0.28;0.00;0.86;-0.35;0.28;0.00;-1.00;-110.26;-466.61;0.90;-125.51;14.83;-1.42 
7.900;0.27;0.02;0.82;-0.14;0.28;-0.28;3.00;-112.17;-465.61;0.86;-125.53;14.89;-1.44 
7.930;0.31;0.00;0.86;-0.42;0.83;-0.42;0.00;-109.30;-471.60;0.91;-125.52;14.89;-1.45 
7.960;0.34;0.02;0.88;-0.28;0.21;-0.63;2.00;-110.26;-467.61;0.94;-125.52;14.96;-1.43 
7.991;0.30;0.00;0.85;-0.21;0.35;-0.49;4.00;-113.13;-465.61;0.90;-125.51;14.98;-1.43 
8.021;0.33;0.00;0.85;0.07;0.83;-0.35;-1.00;-112.17;-468.61;0.91;-125.52;15.00;-1.41 
8.051;0.34;0.03;0.86;-0.35;0.28;-0.63;3.00;-111.22;-465.61;0.93;-125.54;14.95;-1.42 
8.081;0.34;0.03;0.90;-0.63;-0.28;-0.49;1.00;-113.13;-465.61;0.96;-125.55;14.92;-1.43 
8.112;0.30;0.00;0.86;-0.14;-0.28;-0.70;3.00;-112.17;-468.61;0.91;-125.53;14.93;-1.44 
8.142;0.30;0.01;0.85;-0.63;0.63;-0.14;0.00;-114.09;-463.61;0.90;-125.53;14.98;-1.42 
8.172;0.31;0.02;0.86;-0.49;0.42;-0.07;-1.00;-112.17;-466.61;0.91;-125.55;14.96;-1.44 
8.203;0.31;0.00;0.86;-0.28;0.49;-0.49;3.00;-116.01;-468.61;0.91;-125.55;14.96;-1.43 
8.233;0.30;0.00;0.89;-0.21;0.42;-0.35;1.00;-111.22;-469.60;0.94;-125.57;14.92;-1.44 
8.263;0.32;0.00;0.86;-0.35;0.00;-0.42;5.00;-113.13;-467.61;0.92;-125.59;14.94;-1.43 
8.293;0.30;0.00;0.82;-0.63;0.83;-0.63;3.00;-111.22;-467.61;0.87;-125.60;14.93;-1.45 
8.324;0.31;0.00;0.86;-0.63;0.83;-0.83;0.00;-114.09;-467.61;0.91;-125.61;14.89;-1.47 
8.354;0.30;0.00;0.86;-0.07;0.90;-0.97;4.00;-116.97;-469.60;0.91;-125.61;14.92;-1.47 
8.384;0.30;0.00;0.84;-0.35;0.14;-0.63;1.00;-116.97;-467.61;0.89;-125.62;14.95;-1.47 
8.415;0.30;0.01;0.85;-0.49;0.35;-0.63;-1.00;-113.13;-466.61;0.90;-125.61;15.02;-1.45 
8.445;0.30;0.00;0.86;-0.49;0.42;-0.77;1.00;-111.22;-465.61;0.91;-125.60;15.06;-1.43 
8.475;0.29;0.00;0.86;-0.21;0.90;-0.42;-1.00;-112.17;-468.61;0.91;-125.63;15.02;-1.45 
8.505;0.30;0.00;0.88;-0.35;0.77;-0.49;0.00;-114.09;-465.61;0.93;-125.62;15.01;-1.44 
8.535;0.26;-0.03;0.78;-0.63;-0.07;-0.42;0.00;-112.17;-468.61;0.82;-125.62;15.01;-1.44 
8.565;0.30;0.00;0.87;-0.42;0.77;-0.70;2.00;-114.09;-466.61;0.92;-125.63;14.99;-1.44 
8.595;0.31;0.00;0.82;-0.49;0.97;-0.28;-2.00;-113.13;-465.61;0.88;-125.64;14.97;-1.44 
8.626;0.26;-0.04;0.81;-0.42;0.56;-0.77;0.00;-111.22;-470.60;0.85;-125.64;15.05;-1.42 
8.656;0.29;0.00;0.86;-0.49;0.42;-0.70;1.00;-114.09;-470.60;0.91;-125.65;15.06;-1.44 
8.685;0.26;-0.03;0.83;-0.14;0.56;-0.90;-2.00;-113.13;-469.60;0.87;-125.66;15.02;-1.45 
8.715;0.30;0.00;0.83;-0.28;0.97;-0.42;3.00;-113.13;-467.61;0.88;-125.65;15.01;-1.45 
8.745;0.28;0.00;0.87;-0.07;1.11;-0.07;0.00;-112.17;-468.61;0.91;-125.67;14.98;-1.46 
8.775;0.27;0.00;0.80;0.07;0.90;0.14;1.00;-111.22;-469.60;0.84;-125.71;14.95;-1.45 
8.805;0.31;0.01;0.86;-0.14;0.49;0.07;-1.00;-115.05;-468.61;0.91;-125.74;15.00;-1.45 
8.836;0.31;0.00;0.84;0.21;1.25;-0.28;-1.00;-111.22;-470.60;0.90;-125.75;15.03;-1.44 
8.866;0.30;0.00;0.84;0.14;1.95;-0.90;2.00;-111.22;-466.61;0.89;-125.78;14.96;-1.43 
8.896;0.30;0.00;0.84;-0.14;2.23;-1.81;2.00;-114.09;-466.61;0.89;-125.79;14.88;-1.42 
8.927;0.31;0.00;0.85;0.70;2.43;-3.06;0.00;-115.05;-464.61;0.90;-125.77;14.81;-1.40 
8.957;0.31;0.00;0.81;2.64;5.15;-4.38;0.00;-110.26;-466.61;0.87;-125.71;14.67;-1.34 
8.987;0.26;-0.03;0.81;3.83;3.97;-5.63;0.00;-111.22;-469.60;0.85;-125.61;14.60;-1.21 
9.017;0.28;0.00;0.86;5.63;3.76;-7.30;0.00;-111.22;-469.60;0.90;-125.44;14.52;-1.03 
9.047;0.30;0.00;0.87;5.43;2.92;-8.56;4.00;-112.17;-466.61;0.92;-125.26;14.40;-0.82 
9.077;0.29;0.00;0.87;6.40;1.67;-9.81;5.00;-110.26;-469.60;0.92;-125.05;14.36;-0.59 
9.107;0.30;0.00;0.85;6.54;4.66;-11.41;2.00;-109.30;-464.61;0.90;-124.79;14.34;-0.36 
9.138;0.26;0.00;0.90;3.90;6.47;-11.97;6.00;-110.26;-465.61;0.94;-124.51;14.20;-0.16 
9.167;0.30;-0.01;0.87;2.02;3.34;-16.14;6.00;-110.26;-467.61;0.92;-124.14;14.08;0.00 
9.197;0.29;0.03;0.84;3.69;-1.32;-18.57;7.00;-110.26;-468.61;0.89;-123.66;14.04;0.20 
9.227;0.28;0.03;0.82;6.75;2.02;-18.23;6.00;-108.34;-468.61;0.87;-123.15;14.11;0.50 
9.257;0.34;0.02;0.83;6.96;14.40;-18.85;5.00;-107.38;-466.61;0.90;-122.63;13.98;0.87 
9.286;0.22;0.06;0.94;3.27;10.50;-18.50;7.00;-105.46;-466.61;0.97;-122.16;13.57;1.17 
9.315;0.23;0.11;0.95;-0.77;-6.05;-18.78;6.00;-107.38;-467.61;0.98;-121.67;13.48;1.37 
9.345;0.30;0.16;0.84;-1.74;-9.60;-16.56;4.00;-107.38;-465.61;0.91;-121.08;13.80;1.55 
9.375;0.26;0.17;0.78;-3.41;2.02;-12.31;4.00;-109.30;-467.61;0.84;-120.64;14.02;1.69 
9.405;0.24;0.18;0.89;-6.40;9.53;-12.10;1.00;-108.34;-465.61;0.94;-120.32;13.86;1.70 
9.436;0.21;0.10;0.91;-7.93;6.05;-15.03;-2.00;-106.42;-465.61;0.94;-119.95;13.60;1.62 
9.466;0.19;0.14;0.98;-11.41;1.39;-16.14;-3.00;-104.50;-466.61;1.01;-119.51;13.41;1.49 
9.496;0.22;0.13;0.90;-15.10;-3.55;-16.83;-7.00;-109.30;-462.61;0.94;-119.02;13.39;1.27 
9.525;0.26;0.10;0.88;-15.72;-6.75;-17.88;-15.00;-108.34;-458.61;0.92;-118.48;13.52;0.98 
9.555;0.30;0.04;0.86;-13.84;-3.62;-18.64;-18.00;-114.09;-458.61;0.91;-117.91;13.73;0.67 
