Time(s) acc_x(g) acc_y(g) acc_z(g) gyr_x(°/s) gyr_y(°/s) gyr_z(°/s) mag_x(G) mag_y(G) mag_z(G) SVM(g) yaw(°) pitch(°) roll(°)
0.000;-0.13;0.07;0.67;-1.81;1.81;9.25;415.62;-248.73;-348.00;0.69;-126.13;-7.11;8.85 
0.029;-0.05;0.13;0.77;-5.29;-22.19;14.40;415.62;-253.49;-348.00;0.78;-126.64;-6.67;8.80 
0.058;-0.09;0.18;0.95;-6.54;-21.36;17.60;414.63;-259.21;-348.00;0.97;-127.23;-5.82;8.72 
0.088;-0.12;0.18;0.99;-6.89;-3.62;17.39;411.64;-263.02;-353.00;1.01;-127.87;-5.27;8.60 
0.118;0.00;0.18;0.87;-5.01;2.09;14.68;413.63;-268.74;-353.00;0.89;-128.53;-5.10;8.49 
0.147;0.03;0.22;0.83;-3.76;-3.83;9.39;415.62;-271.60;-355.00;0.86;-129.07;-4.88;8.46 
0.177;0.03;0.22;0.87;-0.49;-7.51;4.94;411.64;-272.55;-354.00;0.90;-129.45;-4.46;8.52 
0.208;-0.04;0.19;0.93;1.46;-1.81;1.60;412.63;-277.31;-354.00;0.95;-129.71;-4.17;8.57 
0.238;-0.04;0.19;0.90;1.11;6.26;1.74;413.63;-271.60;-354.00;0.92;-129.93;-4.10;8.68 
0.268;-0.02;0.24;0.84;0.90;9.74;-2.57;413.63;-273.50;-351.00;0.87;-130.10;-4.26;8.82 
0.298;0.00;0.26;0.78;1.18;5.08;-6.82;414.63;-273.50;-352.00;0.82;-130.14;-4.43;8.86 
0.328;-0.04;0.26;0.78;2.16;-1.60;-13.77;415.62;-266.83;-352.00;0.82;-130.00;-4.40;9.01 
0.358;-0.01;0.24;0.83;2.92;-2.99;-23.23;412.63;-267.78;-352.00;0.86;-129.64;-4.31;9.17 
0.388;0.02;0.24;0.87;4.94;-3.90;-32.49;413.63;-263.97;-350.00;0.90;-128.97;-4.26;9.22 
0.419;0.00;0.21;0.89;6.40;9.25;-35.41;413.63;-260.16;-347.00;0.91;-128.07;-4.33;9.40 
0.449;-0.11;0.18;0.74;3.41;20.80;-32.77;413.63;-249.68;-345.00;0.77;-127.24;-4.94;9.52 
0.479;-0.13;0.14;0.68;-0.90;8.83;-32.14;410.64;-242.05;-344.00;0.71;-126.45;-5.65;9.54 
0.510;-0.11;0.12;0.78;-1.74;1.95;-32.21;407.65;-239.20;-343.00;0.80;-125.65;-5.93;9.43 
0.540;-0.10;0.12;0.77;4.45;2.30;-27.20;407.65;-236.34;-342.00;0.79;-124.88;-6.11;9.37 
0.570;-0.06;0.10;0.77;6.47;-5.29;-16.90;406.65;-233.48;-341.00;0.78;-124.37;-6.09;9.41 
0.600;-0.03;0.18;0.81;7.58;-0.97;-14.68;406.65;-231.57;-340.00;0.83;-124.09;-5.95;9.54 
0.630;-0.11;0.21;0.66;7.23;0.56;-13.08;406.65;-227.76;-338.00;0.70;-123.83;-5.97;9.78 
0.660;0.04;0.29;0.74;2.50;-3.34;-14.40;411.64;-231.57;-339.00;0.80;-123.67;-5.86;10.01 
0.690;0.10;0.26;0.78;2.57;-0.28;-25.18;404.66;-225.85;-335.00;0.83;-123.32;-5.63;10.15 
0.721;-0.08;0.12;0.70;0.56;-0.63;-23.10;403.66;-221.09;-336.00;0.71;-122.73;-5.57;10.17 
0.751;0.02;0.11;0.74;-0.28;2.50;-20.66;403.66;-222.04;-333.00;0.75;-122.29;-5.57;10.09 
0.781;0.00;0.00;0.66;-2.64;5.43;-15.17;402.67;-218.23;-332.00;0.66;-121.92;-5.67;10.01 
0.811;-0.03;0.00;0.63;-8.56;10.85;-2.09;400.67;-212.51;-336.00;0.63;-121.81;-5.84;9.64 
0.841;0.06;0.04;0.61;-10.78;19.34;0.56;398.68;-211.56;-330.00;0.61;-122.01;-6.05;9.29 
0.871;-0.06;-0.04;0.66;-9.18;33.60;7.51;400.67;-210.61;-327.00;0.66;-122.30;-6.66;8.99 
0.901;-0.10;0.11;0.82;-11.13;46.33;16.14;395.69;-207.75;-325.00;0.83;-122.89;-7.65;8.63 
0.932;-0.05;0.29;1.02;-6.75;90.92;7.30;395.69;-198.22;-320.00;1.06;-123.56;-9.36;8.47 
0.962;-0.03;0.19;0.82;-1.39;143.51;2.85;398.68;-179.16;-311.00;0.84;-123.90;-12.70;8.52 
0.992;0.10;0.06;0.71;-6.33;163.06;14.54;400.67;-164.86;-296.00;0.72;-124.25;-16.86;8.53 
1.023;0.05;0.14;0.78;-17.11;164.17;18.16;403.66;-144.85;-280.00;0.79;-124.75;-21.33;8.43 
1.052;-1.49;0.58;1.45;-19.13;107.27;-4.45;404.66;-124.84;-263.00;2.16;-124.91;-25.61;8.16 
1.082;0.66;0.35;4.93;67.83;562.64;23.93;414.63;-115.31;-242.00;4.99;-126.34;-28.75;9.78 
1.112;0.13;-0.27;2.30;-65.74;522.71;55.51;420.61;-81.00;-179.00;2.32;-125.48;-38.42;10.82 
1.142;1.01;0.32;0.80;-57.39;612.45;-6.68;423.60;-53.37;-110.00;1.33;-121.46;-54.57;10.21 
1.172;1.18;-0.03;0.48;5.77;445.57;32.35;423.60;-47.65;3.00;1.27;-113.98;-68.16;9.87 
1.202;1.46;0.17;0.43;68.59;431.44;21.70;419.61;-64.80;69.00;1.53;-106.67;-76.72;11.30 
1.233;2.01;0.70;0.44;55.44;413.57;-47.93;416.62;-92.44;134.00;2.17;-97.06;-77.14;11.26 
1.262;3.10;0.72;-0.21;-32.42;588.38;-145.39;401.67;-121.03;183.00;3.19;-87.20;-69.51;9.62 
1.282;-2.36;0.00;-0.42;-4.03;87.10;-26.57;345.85;-16.20;130.00;2.40;-103.19;-65.85;-2.69 
1.312;-2.03;0.29;-0.17;29.22;71.58;-6.96;340.87;-22.87;145.00;2.06;-104.15;-64.16;-2.64 
1.343;-1.78;0.13;-0.30;58.23;91.27;-9.88;338.88;-26.68;160.00;1.81;-105.90;-62.04;-2.98 
1.373;-1.49;-0.10;-0.37;39.72;96.07;-24.28;326.92;-34.31;183.00;1.54;-107.65;-59.33;-3.90 
1.403;-1.18;-0.09;-0.34;6.33;98.23;-36.52;315.95;-40.02;199.00;1.23;-108.83;-56.60;-4.72 
1.433;-0.99;-0.14;-0.36;-21.08;91.41;-49.81;308.98;-52.41;226.00;1.06;-109.40;-53.82;-5.47 
1.463;-0.78;0.00;-0.42;-37.08;65.53;-46.26;303.00;-54.32;233.00;0.89;-109.30;-51.40;-5.92 
1.493;-0.66;0.06;-0.47;-45.84;25.60;-29.01;301.00;-58.13;239.00;0.81;-109.13;-49.85;-5.68 
1.523;-0.71;0.06;-0.43;-37.50;-24.83;-18.16;303.00;-60.99;236.00;0.83;-108.70;-49.72;-5.11 
1.554;-0.83;0.10;-0.51;-29.70;-43.55;-9.81;305.99;-49.55;225.00;0.98;-107.99;-50.92;-4.41 
1.584;-0.94;0.00;-0.58;-26.02;-33.25;7.17;306.98;-47.65;216.00;1.10;-107.68;-52.24;-3.62 
1.614;-0.94;-0.09;-0.54;-28.52;-21.22;14.89;312.96;-42.88;209.00;1.09;-107.85;-53.18;-2.62 
1.644;-0.90;-0.08;-0.61;-36.52;-26.09;15.86;321.93;-42.88;206.00;1.09;-108.20;-53.92;-1.47 
1.674;-0.87;-0.04;-0.57;-48.00;-37.29;15.23;324.92;-38.12;193.00;1.04;-108.41;-54.93;-0.11 
1.704;-0.96;0.06;-0.56;-49.74;-35.41;10.37;337.88;-34.31;183.00;1.11;-108.48;-56.07;1.33 
1.734;-1.00;0.03;-0.52;-45.70;-22.89;5.15;336.88;-33.35;174.00;1.13;-108.49;-56.99;2.58 
1.765;-0.94;0.00;-0.57;-41.60;-10.43;1.88;346.85;-30.50;166.00;1.10;-108.59;-57.42;3.66 
1.795;-0.91;0.06;-0.44;-42.02;-16.35;5.15;348.84;-28.59;158.00;1.01;-108.70;-57.78;4.63 
1.825;-0.86;0.10;-0.32;-28.80;-11.13;6.05;356.82;-27.64;149.00;0.92;-108.86;-58.25;5.61 
1.856;-0.70;0.02;-0.30;-19.48;-1.53;5.01;355.82;-29.54;145.00;0.76;-109.17;-58.46;6.43 
1.885;-0.54;0.00;-0.31;-16.70;-0.42;0.83;358.81;-25.73;147.00;0.62;-109.53;-58.38;7.06 
1.915;-0.42;0.00;-0.38;-16.49;-13.91;-5.36;362.80;-25.73;141.00;0.57;-109.72;-58.46;7.55 
1.944;-0.38;-0.07;-0.32;-17.53;-27.90;-13.36;362.80;-21.92;140.00;0.50;-109.54;-58.87;7.75 
1.973;-0.46;-0.23;-0.25;-30.75;-28.10;-11.69;362.80;-19.06;130.00;0.57;-108.93;-59.67;7.70 
2.003;-0.60;-0.30;-0.25;-47.79;-46.26;-11.06;361.80;-16.20;126.00;0.72;-108.18;-60.72;7.80 
2.033;-0.80;-0.17;-0.38;-63.17;-61.43;-12.31;363.80;-10.48;105.00;0.90;-107.21;-62.46;8.13 
2.064;-0.98;-0.02;-0.40;-67.90;-39.37;-13.01;366.79;-0.95;83.00;1.06;-106.36;-64.11;8.75 
2.094;-0.96;0.00;-0.25;-64.90;-18.78;-10.09;367.78;-1.91;72.00;0.99;-105.92;-64.92;9.50 
2.124;-0.96;-0.11;-0.26;-59.20;-26.85;0.63;370.77;-0.95;61.00;1.00;-105.64;-65.60;10.16 
2.155;-1.08;0.00;-0.43;-67.97;-35.69;6.61;375.76;1.91;46.00;1.16;-105.59;-66.42;11.09 
2.185;-1.38;-0.11;-0.38;-70.05;-11.48;18.30;383.73;3.81;28.00;1.44;-105.72;-67.03;12.16 
2.215;-1.30;0.38;-0.43;-41.67;27.41;18.50;385.72;2.86;22.00;1.42;-106.53;-66.29;13.61 
2.245;-1.22;0.51;-0.46;-23.44;24.70;-23.93;390.71;1.91;23.00;1.40;-106.90;-65.44;14.27 
2.276;-0.78;-0.17;-0.23;-12.87;2.43;-12.87;384.73;3.81;29.00;0.83;-106.54;-65.05;13.54 
2.306;-1.01;0.14;-0.28;-21.91;-10.50;9.81;385.72;6.67;24.00;1.06;-106.82;-65.18;13.97 
2.336;-1.18;0.10;-0.12;-16.90;8.07;0.14;386.72;5.72;21.00;1.19;-107.21;-65.12;14.68 
2.367;-1.15;-0.03;-0.04;-31.58;1.81;-8.63;387.72;4.76;21.00;1.15;-107.12;-65.27;14.79 
2.397;-1.07;0.13;-0.55;-12.38;20.31;-6.75;384.73;6.67;16.00;1.21;-106.98;-65.15;14.82 
2.427;-0.90;0.10;-0.32;-12.24;13.91;2.64;382.73;9.53;21.00;0.96;-107.15;-64.49;15.08 
2.457;-1.02;0.31;-0.18;-4.73;13.57;2.02;388.71;6.67;27.00;1.08;-107.45;-64.11;15.47 
2.486;-0.98;0.18;-0.38;6.89;47.51;0.35;385.72;4.76;29.00;1.07;-107.68;-63.21;15.55 
2.515;-0.95;0.14;-0.38;19.13;74.23;13.57;386.72;4.76;39.00;1.03;-108.46;-61.41;16.11 
2.545;-0.83;-0.13;-0.24;13.15;25.67;3.13;388.71;0.00;58.00;0.87;-108.79;-59.94;16.05 
2.575;-1.15;0.13;-0.29;-15.10;-7.86;1.25;389.71;0.00;55.00;1.19;-109.24;-59.89;16.68 
2.605;-1.20;0.19;-0.31;3.20;-3.69;3.97;392.70;-1.91;50.00;1.25;-109.55;-60.29;17.18 
2.635;-0.90;0.06;-0.29;-20.73;-24.49;15.44;393.70;0.00;46.00;0.95;-109.99;-60.47;17.71 
2.666;-0.94;0.11;-0.16;-1.81;-52.80;24.21;398.68;-3.81;35.00;0.96;-110.85;-60.87;18.62 
2.696;-1.27;0.06;0.00;22.12;-37.84;24.49;404.66;-2.86;30.00;1.27;-111.62;-61.65;19.35 
2.725;-1.03;0.16;-0.45;-10.57;-53.63;9.74;404.66;-4.76;17.00;1.14;-111.97;-62.56;19.94 
2.754;-1.16;0.25;-0.32;17.32;-35.97;1.32;405.66;-4.76;8.00;1.23;-112.34;-63.04;20.34 
2.783;-0.98;0.07;-0.31;10.02;-32.42;5.50;408.65;-5.72;3.00;1.03;-112.61;-63.42;20.51 
2.812;-1.08;0.12;-0.27;9.32;-37.15;-3.13;406.65;-5.72;0.00;1.12;-112.70;-63.93;20.56 
2.842;-0.94;0.23;-0.24;15.58;-38.54;6.89;408.65;-3.81;-6.00;1.00;-112.82;-64.32;20.70 
2.872;-1.05;0.22;-0.26;-6.96;-19.97;9.04;408.65;-4.76;-13.00;1.10;-113.15;-64.46;21.09 
2.902;-1.14;0.14;-0.28;-3.34;-2.99;4.52;410.64;-5.72;-13.00;1.18;-113.37;-64.51;21.43 
2.932;-1.11;0.18;-0.24;-2.50;34.78;-0.97;408.65;-9.53;-13.00;1.15;-113.51;-64.15;21.58 
2.963;-1.00;0.16;-0.17;-5.77;17.60;4.31;412.63;-6.67;-10.00;1.03;-113.86;-63.54;21.95 
2.993;-0.98;0.24;-0.33;-3.48;20.24;3.90;413.63;-11.44;-11.00;1.06;-114.12;-63.03;22.24 
3.022;-0.93;0.24;-0.19;8.83;7.10;9.39;415.62;-7.62;-5.00;0.98;-114.42;-62.58;22.48 
3.052;-1.02;0.06;-0.26;11.34;10.92;0.83;415.62;-11.44;-4.00;1.05;-114.75;-62.18;22.69 
3.082;-1.02;0.25;-0.21;28.87;16.21;2.64;413.63;-11.44;3.00;1.07;-114.87;-61.91;22.59 
3.112;-0.96;0.32;-0.34;5.84;7.72;4.10;413.63;-12.39;8.00;1.07;-114.94;-61.64;22.68 
3.142;-0.98;0.21;-0.37;5.22;18.43;2.64;414.63;-16.20;12.00;1.07;-115.16;-61.28;22.86 
3.173;-0.90;0.08;-0.24;5.70;-5.57;-4.87;412.63;-15.25;14.00;0.93;-115.25;-61.03;22.87 
3.203;-1.03;0.10;-0.30;1.39;-13.70;0.07;414.63;-13.34;11.00;1.08;-115.20;-61.28;22.82 
3.233;-1.02;0.21;-0.35;-2.09;-14.89;5.08;415.62;-13.34;12.00;1.10;-115.34;-61.30;23.04 
3.264;-1.02;0.20;-0.40;9.60;-19.27;5.84;417.62;-15.25;7.00;1.11;-115.66;-61.24;23.36 
3.294;-1.02;0.25;-0.25;9.25;-19.41;1.18;418.61;-13.34;5.00;1.08;-115.82;-61.43;23.53 
3.324;-1.02;0.19;-0.30;19.83;-5.70;-0.35;419.61;-14.29;2.00;1.08;-115.86;-61.64;23.50 
3.354;-1.05;0.26;-0.37;35.97;18.92;0.70;415.62;-16.20;10.00;1.14;-115.98;-61.46;23.36 
3.384;-0.94;0.15;-0.21;21.08;0.49;-0.77;414.63;-14.29;13.00;0.97;-116.13;-61.18;23.21 
3.413;-1.07;0.19;-0.29;22.54;-12.17;-3.76;417.62;-14.29;17.00;1.12;-116.13;-61.33;23.03 
3.443;-1.05;0.17;-0.26;22.75;5.91;-2.71;413.63;-14.29;18.00;1.09;-116.14;-61.41;22.82 
3.473;-0.96;0.11;-0.29;21.57;2.02;-1.39;409.64;-13.34;22.00;1.01;-116.16;-61.36;22.61 
3.502;-0.90;0.12;-0.06;23.72;-15.10;-7.72;408.65;-15.25;23.00;0.91;-116.19;-61.40;22.48 
3.531;-0.77;0.02;-0.26;32.14;-40.90;-33.74;404.66;-11.44;27.00;0.81;-115.51;-62.22;21.53 
3.562;-1.25;0.06;-0.43;13.50;-37.50;-8.70;397.68;-7.62;24.00;1.32;-114.70;-63.54;20.68 
3.592;-1.12;0.12;-0.30;17.74;-9.46;-26.16;396.69;-2.86;18.00;1.17;-114.22;-64.25;20.18 
3.621;-1.06;-0.05;-0.16;19.76;-14.12;-13.36;389.71;0.95;22.00;1.07;-113.31;-65.17;19.26 
3.651;-1.00;0.06;-0.16;15.51;-11.55;-7.44;387.72;-1.91;20.00;1.01;-113.09;-65.61;19.01 
3.680;-0.98;0.06;-0.25;24.14;-5.57;0.90;385.72;4.76;19.00;1.01;-112.98;-65.90;18.79 
3.710;-1.10;0.05;-0.34;16.35;0.42;-0.77;385.72;0.00;20.00;1.15;-113.08;-65.94;18.68 
3.740;-1.11;0.11;-0.14;11.48;24.83;0.49;386.72;3.81;25.00;1.12;-113.17;-65.79;18.61 
3.771;-0.88;0.07;-0.28;16.28;15.72;1.25;384.73;2.86;31.00;0.93;-113.46;-65.29;18.54 
3.801;-1.01;0.02;-0.19;19.69;2.99;3.76;384.73;0.95;37.00;1.03;-113.71;-65.07;18.55 
3.830;-1.00;0.11;-0.35;13.36;3.06;1.81;384.73;1.91;38.00;1.07;-113.90;-64.94;18.53 
3.861;-1.06;0.10;-0.34;7.44;-2.23;-1.46;384.73;-2.86;38.00;1.12;-114.03;-64.86;18.56 
3.891;-0.97;0.16;-0.18;-1.32;-23.30;6.61;383.73;-2.86;37.00;1.00;-113.99;-65.05;18.53 
3.920;-1.10;0.14;-0.14;-5.43;-17.60;3.48;381.74;-0.95;32.00;1.12;-113.99;-65.41;18.77 
3.949;-1.02;0.02;-0.30;4.94;-9.46;0.70;383.73;0.95;30.00;1.06;-113.91;-65.63;18.84 
3.979;-1.00;0.02;-0.30;13.91;-12.73;6.40;386.72;0.00;32.00;1.04;-113.90;-65.81;18.88 
4.009;-0.86;-0.12;-0.21;8.63;-34.85;29.29;389.71;-0.95;30.00;0.89;-114.36;-65.66;19.38 
4.039;-1.11;0.15;-0.11;-4.87;-32.83;25.25;390.71;-2.86;23.00;1.13;-114.99;-65.57;20.36 
4.069;-0.97;0.13;-0.12;-9.74;-1.25;8.77;396.69;-4.76;15.00;0.99;-115.37;-65.37;20.99 
4.099;-0.96;0.14;-0.13;-3.76;1.81;1.53;401.67;-5.72;18.00;0.98;-115.40;-65.29;21.15 
4.129;-1.11;0.14;-0.15;4.17;17.04;0.07;396.69;-7.62;16.00;1.13;-115.44;-65.19;21.23 
4.160;-1.06;0.14;-0.20;11.34;23.37;-3.76;398.68;-7.62;23.00;1.09;-115.56;-64.89;21.18 
4.190;-1.02;0.13;-0.18;6.54;20.73;-7.79;395.69;-9.53;25.00;1.04;-115.62;-64.63;21.05 
4.220;-1.10;0.03;-0.28;9.04;19.90;-20.87;395.69;-5.72;31.00;1.14;-115.38;-64.66;20.65 
4.250;-0.99;0.06;-0.30;-2.02;5.43;-2.71;393.70;-4.76;35.00;1.04;-115.40;-64.47;20.67 
4.280;-1.00;0.20;-0.26;11.34;12.73;1.88;393.70;-5.72;35.00;1.05;-115.50;-64.27;20.68 
4.309;-1.06;0.16;-0.14;8.77;4.66;0.97;391.70;-6.67;42.00;1.08;-115.62;-64.11;20.72 
4.339;-1.02;0.11;-0.23;11.62;3.69;-2.78;393.70;-6.67;42.00;1.05;-115.66;-64.08;20.69 
4.370;-1.02;0.26;-0.22;6.33;8.28;-4.10;389.71;-7.62;44.00;1.08;-115.59;-64.10;20.54 
4.400;-0.99;0.23;-0.14;19.27;6.96;-1.18;393.70;-9.53;47.00;1.03;-115.29;-64.34;20.33 
4.430;-1.02;0.08;-0.34;3.62;1.46;-0.14;387.72;-9.53;47.00;1.08;-115.36;-64.28;20.28 
4.460;-0.95;0.09;-0.22;13.98;-6.68;-0.70;388.71;-7.62;50.00;0.98;-115.34;-64.34;20.22 
4.489;-0.97;0.08;-0.27;6.12;-13.57;0.14;388.71;-7.62;47.00;1.01;-115.28;-64.53;20.18 
4.518;-1.02;0.04;-0.25;2.43;-17.39;1.39;388.71;-5.72;45.00;1.05;-115.17;-64.81;20.16 
4.547;-1.05;0.06;-0.22;-2.16;-17.04;-0.28;385.72;-4.76;43.00;1.07;-114.99;-65.15;20.17 
4.577;-1.02;0.07;-0.18;-5.91;-17.04;-0.21;388.71;-4.76;36.00;1.04;-114.75;-65.53;20.19 
4.607;-1.02;0.09;-0.17;-6.33;-16.14;2.37;387.72;-2.86;36.00;1.04;-114.56;-65.84;20.27 
4.637;-1.05;0.12;-0.15;-6.54;-17.25;2.02;389.71;-2.86;30.00;1.07;-114.44;-66.08;20.41 
4.668;-1.10;0.13;-0.14;-5.43;-13.63;0.42;392.70;-3.81;28.00;1.12;-114.29;-66.32;20.53 
4.698;-1.07;0.12;-0.14;-5.63;-9.18;-0.90;393.70;-4.76;25.00;1.09;-114.11;-66.55;20.57 
4.728;-1.06;0.15;-0.14;-4.73;-7.79;-0.77;388.71;-1.91;22.00;1.08;-113.97;-66.71;20.61 
4.758;-0.97;0.16;-0.14;-1.25;-6.89;-0.42;392.70;-2.86;19.00;0.99;-113.85;-66.84;20.63 
4.788;-1.05;0.15;-0.15;1.11;-5.36;-1.32;391.70;-2.86;20.00;1.07;-113.77;-66.94;20.66 
4.818;-1.05;0.12;-0.20;2.71;-3.48;-1.81;389.71;-1.91;18.00;1.08;-113.67;-67.06;20.63 
4.847;-1.02;0.10;-0.21;0.63;-6.05;-1.67;387.72;-4.76;18.00;1.05;-113.57;-67.17;20.60 
4.877;-1.01;0.10;-0.22;-0.77;-7.65;-1.39;386.72;-3.81;16.00;1.04;-113.44;-67.31;20.56 
4.907;-1.04;0.12;-0.19;-1.25;-5.29;-1.25;390.71;-2.86;15.00;1.06;-113.36;-67.41;20.54 
4.937;-1.04;0.10;-0.16;-1.74;-1.67;-1.04;387.72;-3.81;15.00;1.06;-113.27;-67.49;20.52 
4.968;-1.05;0.10;-0.14;-2.71;1.11;-0.28;390.71;-0.95;13.00;1.06;-113.19;-67.56;20.51 
4.998;-1.06;0.07;-0.17;-5.01;4.66;0.70;389.71;0.00;13.00;1.08;-113.18;-67.53;20.52 
5.028;-1.05;0.10;-0.18;-8.77;4.17;1.74;390.71;0.00;15.00;1.07;-113.17;-67.49;20.57 
5.058;-1.03;0.08;-0.19;-10.71;5.08;1.60;388.71;-0.95;10.00;1.05;-113.21;-67.40;20.66 
5.087;-1.04;0.10;-0.15;-10.78;8.28;2.09;389.71;-0.95;11.00;1.06;-113.24;-67.28;20.76 
5.117;-1.02;0.10;-0.17;-12.10;9.95;2.16;391.70;-2.86;10.00;1.04;-113.29;-67.15;20.88 
5.147;-1.06;0.07;-0.17;-12.52;12.10;1.60;394.69;-3.81;13.00;1.08;-113.33;-67.00;20.99 
5.178;-1.04;0.10;-0.17;-13.63;14.19;1.53;394.69;-3.81;11.00;1.06;-113.37;-66.82;21.09 
5.208;-1.03;0.09;-0.19;-16.35;13.70;0.35;393.70;-4.76;11.00;1.05;-113.39;-66.66;21.19 
5.238;-1.02;0.10;-0.21;-18.43;15.93;-0.63;392.70;-3.81;13.00;1.05;-113.37;-66.53;21.25 
5.269;-1.00;0.10;-0.18;-20.52;16.35;-0.97;392.70;-2.86;14.00;1.02;-113.34;-66.36;21.32 
5.299;-0.97;0.12;-0.21;-22.61;12.10;-1.95;395.69;-2.86;16.00;1.00;-113.26;-66.25;21.37 
5.329;-1.01;0.10;-0.20;-23.79;9.81;-3.20;395.69;-5.72;9.00;1.03;-113.15;-66.21;21.39 
5.359;-1.02;0.08;-0.22;-24.97;9.53;-3.27;394.69;-1.91;12.00;1.05;-113.00;-66.21;21.39 
5.389;-1.04;0.07;-0.25;-25.39;8.07;-0.56;396.69;-6.67;7.00;1.07;-112.87;-66.20;21.44 
5.419;-1.01;0.10;-0.21;-26.43;6.61;1.39;395.69;-6.67;8.00;1.04;-112.82;-66.14;21.54 
5.449;-1.02;0.14;-0.22;-26.71;4.24;1.25;394.69;-2.86;2.00;1.05;-112.80;-66.07;21.69 
5.479;-1.02;0.18;-0.23;-24.90;4.10;0.21;398.68;-1.91;3.00;1.06;-112.80;-66.00;21.86 
5.509;-1.02;0.16;-0.23;-20.87;6.68;-1.25;401.67;-3.81;-3.00;1.06;-112.77;-65.96;21.97 
5.539;-1.03;0.11;-0.21;-18.92;7.58;-1.60;400.67;-3.81;-1.00;1.06;-112.69;-65.94;22.00 
5.569;-1.03;0.10;-0.21;-20.17;4.17;0.42;397.68;-4.76;-3.00;1.06;-112.61;-65.93;22.03 
5.599;-1.02;0.06;-0.21;-20.24;3.06;2.37;399.68;-1.91;-5.00;1.04;-112.59;-65.90;22.12 
5.629;-1.02;0.10;-0.22;-21.91;2.02;2.23;402.67;-5.72;-8.00;1.05;-112.61;-65.85;22.25 
5.659;-1.03;0.14;-0.22;-22.61;0.14;1.74;402.67;-4.76;-10.00;1.06;-112.63;-65.81;22.38 
5.690;-1.03;0.12;-0.21;-22.61;-1.32;0.56;398.68;-5.72;-14.00;1.06;-112.63;-65.81;22.49 
5.720;-1.04;0.07;-0.19;-24.90;-0.21;-0.56;401.67;-7.62;-15.00;1.06;-112.57;-65.88;22.53 
5.750;-1.03;0.07;-0.19;-29.01;0.90;-0.83;404.66;-3.81;-23.00;1.05;-112.48;-65.98;22.55 
5.781;-1.03;0.10;-0.13;-30.19;2.02;-0.07;407.65;-5.72;-26.00;1.04;-112.41;-66.05;22.59 
5.810;-1.02;0.13;-0.18;-29.63;3.48;0.00;403.66;-3.81;-29.00;1.04;-112.35;-66.08;22.65 
5.840;-0.99;0.11;-0.21;-28.80;2.43;1.04;401.67;-3.81;-32.00;1.02;-112.34;-66.09;22.72 
5.870;-1.01;0.15;-0.19;-28.66;1.04;1.32;405.66;-5.72;-34.00;1.04;-112.35;-66.07;22.82 
5.900;-1.03;0.14;-0.23;-28.31;-0.90;0.56;402.67;-4.76;-40.00;1.06;-112.35;-66.09;22.90 
5.930;-1.03;0.16;-0.19;-26.85;-0.42;1.25;402.67;-2.86;-46.00;1.06;-112.36;-66.10;22.96 
5.960;-1.02;0.14;-0.22;-24.00;-0.63;1.81;403.66;-2.86;-44.00;1.05;-112.39;-66.10;23.04 
5.991;-1.02;0.14;-0.18;-21.43;-2.09;2.43;403.66;-4.76;-53.00;1.05;-112.43;-66.09;23.12 
6.021;-1.02;0.16;-0.19;-18.64;-2.50;3.48;405.66;-4.76;-54.00;1.05;-112.53;-66.04;23.24 
6.051;-1.03;0.14;-0.17;-17.04;-1.53;3.69;402.67;-5.72;-56.00;1.05;-112.62;-65.98;23.35 
6.081;-1.02;0.17;-0.22;-13.84;-1.11;2.92;407.65;-6.67;-59.00;1.06;-112.71;-65.92;23.45 
6.111;-1.00;0.17;-0.23;-11.83;-3.06;1.60;408.65;-7.62;-67.00;1.04;-112.74;-65.89;23.50 
6.141;-1.02;0.16;-0.21;-9.18;-4.17;1.46;404.66;-6.67;-66.00;1.05;-112.78;-65.88;23.54 
6.171;-1.01;0.13;-0.18;-7.17;-3.90;1.67;409.64;-8.58;-64.00;1.03;-112.79;-65.91;23.54 
6.202;-1.04;0.15;-0.18;-7.03;-6.54;0.70;406.65;-7.62;-69.00;1.07;-112.79;-65.95;23.53 
6.232;-1.02;0.18;-0.21;-4.59;-9.74;-0.83;404.66;-9.53;-72.00;1.06;-112.79;-66.04;23.49 
6.262;-1.02;0.16;-0.21;0.21;-10.99;-2.64;409.64;-9.53;-77.00;1.05;-112.75;-66.17;23.41 
6.293;-1.01;0.14;-0.18;3.13;-12.52;-2.57;404.66;-7.62;-75.00;1.04;-112.67;-66.34;23.27 
6.322;-1.05;0.18;-0.13;4.52;-14.47;-3.34;409.64;-11.44;-76.00;1.07;-112.59;-66.54;23.13 
6.352;-1.03;0.20;-0.15;7.23;-13.57;-4.94;407.65;-8.58;-81.00;1.06;-112.48;-66.76;22.95 
6.381;-1.02;0.18;-0.12;9.74;-11.69;-5.29;405.66;-6.67;-79.00;1.04;-112.34;-66.99;22.75 
6.410;-1.03;0.18;-0.14;10.99;-10.09;-5.50;402.67;-7.62;-80.00;1.05;-112.18;-67.22;22.55 
6.439;-1.03;0.21;-0.11;14.54;-7.58;-6.82;406.65;-7.62;-84.00;1.06;-111.99;-67.44;22.33 
6.468;-1.03;0.20;-0.11;19.83;-6.33;-6.75;402.67;-6.67;-81.00;1.05;-111.78;-67.68;22.09 
6.497;-1.05;0.22;-0.11;24.90;-5.70;-6.12;399.68;-4.76;-83.00;1.08;-111.56;-67.90;21.85 
6.526;-1.02;0.22;-0.12;30.33;-6.96;-6.75;400.67;-3.81;-77.00;1.05;-111.35;-68.10;21.62 
6.555;-1.02;0.18;-0.14;35.97;-5.91;-7.30;398.68;-1.91;-70.00;1.05;-111.12;-68.33;21.36 
6.584;-1.03;0.18;-0.06;42.09;-2.99;-6.68;396.69;-0.95;-68.00;1.05;-110.85;-68.59;21.05 
6.613;-0.99;0.14;-0.10;46.33;-2.99;-5.50;398.68;-0.95;-67.00;1.00;-110.59;-68.81;20.74 
6.643;-0.99;0.14;-0.10;48.70;-5.70;-5.08;395.69;-2.86;-58.00;1.00;-110.35;-69.04;20.42 
6.674;-1.02;0.13;-0.12;51.83;-5.43;-4.31;398.68;-6.67;-58.00;1.04;-110.12;-69.27;20.09 
6.704;-1.01;0.13;-0.14;54.33;-5.70;-3.06;396.69;0.95;-46.00;1.03;-109.94;-69.47;19.78 
6.734;-1.01;0.10;-0.14;54.96;-7.93;-1.88;397.68;-2.86;-39.00;1.02;-109.80;-69.64;19.49 
6.764;-1.06;0.10;-0.07;56.42;-6.68;-1.18;396.69;-0.95;-36.00;1.07;-109.70;-69.81;19.22 
6.794;-1.04;0.10;-0.08;56.56;-3.34;-2.50;395.69;-1.91;-30.00;1.05;-109.59;-69.98;18.91 
6.823;-1.02;0.10;-0.10;56.07;-3.48;-2.57;393.70;0.95;-21.00;1.03;-109.47;-70.16;18.58 
6.852;-1.02;0.07;-0.07;53.84;-1.88;-2.23;392.70;-0.95;-16.00;1.02;-109.38;-70.31;18.27 
6.881;-1.02;0.06;-0.14;51.48;-0.49;-2.16;393.70;2.86;-11.00;1.03;-109.27;-70.49;17.92 
6.910;-1.02;0.05;-0.10;48.07;1.04;-1.95;391.70;-0.95;-3.00;1.03;-109.19;-70.63;17.58 
6.940;-1.02;0.03;-0.10;42.57;-0.35;-0.56;391.70;1.91;3.00;1.03;-109.13;-70.75;17.26 
6.971;-1.04;0.07;-0.12;37.57;-0.28;0.21;388.71;1.91;12.00;1.05;-109.12;-70.84;17.01 
7.000;-1.05;0.08;-0.14;32.90;1.39;-1.11;390.71;0.00;14.00;1.06;-109.10;-70.91;16.78 
7.030;-1.06;0.09;-0.14;28.94;2.85;-3.90;386.72;3.81;18.00;1.07;-109.01;-71.04;16.51 
7.061;-1.02;0.06;-0.14;24.21;5.91;-4.87;383.73;2.86;22.00;1.03;-108.86;-71.18;16.18 
7.091;-0.98;0.06;-0.10;21.70;6.96;-4.17;380.74;1.91;27.00;0.99;-108.70;-71.30;15.86 
7.121;-1.05;0.04;-0.11;17.11;7.37;-3.13;380.74;4.76;30.00;1.06;-108.58;-71.37;15.60 
7.151;-1.06;0.05;-0.14;12.45;9.60;-2.02;379.74;1.91;35.00;1.07;-108.47;-71.42;15.39 
7.181;-1.05;0.06;-0.10;8.49;12.31;-2.30;379.74;4.76;35.00;1.06;-108.40;-71.40;15.21 
7.211;-1.02;0.10;-0.14;7.37;11.97;-2.92;379.74;1.91;42.00;1.03;-108.34;-71.34;15.08 
7.241;-1.03;0.09;-0.16;9.74;10.23;-2.09;376.75;0.00;46.00;1.05;-108.31;-71.26;14.95 
7.271;-1.03;0.10;-0.18;12.59;12.38;-1.81;375.76;2.86;46.00;1.05;-108.28;-71.18;14.81 
7.301;-1.01;0.08;-0.17;13.77;11.62;-0.77;373.76;3.81;51.00;1.03;-108.31;-71.03;14.70 
7.331;-1.02;0.14;-0.17;16.63;11.76;0.83;374.76;0.00;56.00;1.04;-108.38;-70.86;14.61 
7.361;-1.05;0.15;-0.18;21.36;10.85;0.56;374.76;-0.95;58.00;1.08;-108.52;-70.65;14.52 
7.391;-1.03;0.19;-0.18;28.17;12.31;-0.56;371.77;0.00;64.00;1.06;-108.66;-70.45;14.38 
7.421;-1.02;0.18;-0.20;35.62;10.09;-0.77;371.77;1.91;67.00;1.05;-108.80;-70.25;14.17 
7.451;-1.02;0.15;-0.24;42.02;4.66;-0.21;368.78;0.95;71.00;1.06;-108.94;-70.13;13.91 
7.482;-1.01;0.16;-0.24;48.07;0.07;0.14;363.80;-1.91;81.00;1.05;-109.11;-70.07;13.59 
7.512;-0.98;0.14;-0.22;55.44;-5.36;1.60;364.79;-1.91;88.00;1.01;-109.28;-70.11;13.26 
7.541;-0.93;0.18;-0.28;67.13;-15.79;2.09;354.83;-1.91;92.00;0.99;-109.47;-70.25;12.94 
7.571;-1.05;0.10;-0.13;69.70;-16.90;1.74;352.83;0.95;91.00;1.06;-109.63;-70.58;12.56 
7.600;-1.13;0.10;-0.05;69.01;-3.41;-2.16;345.85;0.95;105.00;1.14;-109.65;-71.00;12.07 
7.629;-1.09;0.10;-0.18;70.47;11.83;-1.95;340.87;2.86;112.00;1.11;-109.85;-71.07;11.51 
7.658;-0.98;0.08;-0.22;71.93;4.17;-0.07;333.89;-0.95;121.00;1.01;-110.25;-70.92;10.97 
7.687;-1.02;0.06;-0.18;71.65;-5.70;-2.16;327.91;0.95;125.00;1.04;-110.53;-71.03;10.40 
7.716;-1.05;0.03;-0.16;68.59;-2.43;-3.41;320.94;0.00;134.00;1.06;-110.72;-71.28;9.77 
7.746;-1.06;0.04;-0.18;65.46;0.28;-4.24;316.95;0.95;136.00;1.08;-110.90;-71.48;9.13 
7.776;-1.02;0.01;-0.20;61.84;-0.21;-4.45;304.99;0.95;145.00;1.04;-111.10;-71.65;8.48 
7.806;-1.02;-0.02;-0.20;56.28;-0.07;-3.41;303.00;0.95;147.00;1.04;-111.28;-71.81;7.89 
7.835;-1.00;-0.05;-0.21;48.00;-0.56;-2.43;293.03;3.81;153.00;1.02;-111.48;-71.94;7.39 
7.864;-1.01;-0.05;-0.18;38.47;-2.64;-1.32;288.05;1.91;161.00;1.03;-111.59;-72.10;6.96 
7.894;-1.02;-0.05;-0.22;29.08;-1.88;-1.18;284.06;1.91;161.00;1.04;-111.59;-72.30;6.62 
7.924;-1.01;-0.05;-0.21;20.59;-1.18;0.35;279.08;0.95;164.00;1.03;-111.56;-72.47;6.40 
7.955;-1.04;0.00;-0.21;12.80;-2.02;2.09;281.07;4.76;163.00;1.06;-111.53;-72.60;6.31 
7.985;-1.03;0.04;-0.23;7.10;-4.66;1.53;279.08;5.72;167.00;1.06;-111.54;-72.69;6.40 
8.015;-1.06;0.01;-0.19;3.76;-2.02;0.83;277.08;3.81;166.00;1.08;-111.43;-72.84;6.49 
8.045;-1.04;0.02;-0.18;-0.77;2.78;-0.14;278.08;2.86;161.00;1.06;-111.31;-72.93;6.57 
8.075;-1.02;0.01;-0.22;-4.52;3.55;-1.11;277.08;5.72;167.00;1.04;-111.18;-72.94;6.63 
8.105;-1.02;0.04;-0.22;-7.65;3.06;-1.18;281.07;5.72;166.00;1.04;-111.01;-72.95;6.70 
8.135;-1.02;0.01;-0.21;-6.61;3.06;-0.28;279.08;2.86;165.00;1.04;-110.86;-72.95;6.79 
8.166;-1.04;0.02;-0.26;-6.89;0.56;0.21;277.08;2.86;166.00;1.07;-110.69;-72.98;6.89 
8.195;-1.02;0.03;-0.21;-5.15;2.16;0.77;281.07;1.91;163.00;1.04;-110.52;-73.04;7.00 
8.225;-1.02;0.04;-0.19;-3.76;1.53;1.04;281.07;0.00;163.00;1.04;-110.50;-73.04;7.10 
8.256;-1.04;0.06;-0.19;-2.43;-1.74;0.14;281.07;1.91;165.00;1.06;-110.38;-73.10;7.21 
8.286;-1.03;0.06;-0.19;-0.28;2.09;-0.77;284.06;3.81;162.00;1.05;-110.23;-73.20;7.29 
8.316;-1.02;0.05;-0.18;1.18;3.13;-2.23;280.07;1.91;165.00;1.04;-110.12;-73.23;7.31 
8.345;-1.02;0.02;-0.19;0.56;1.32;-2.50;280.07;2.86;164.00;1.04;-109.99;-73.29;7.30 
8.375;-1.03;0.02;-0.15;-1.25;2.30;-1.74;282.07;1.91;167.00;1.04;-109.79;-73.38;7.28 
8.405;-1.05;0.02;-0.20;-2.57;5.98;-1.18;279.08;2.86;163.00;1.07;-109.79;-73.30;7.36 
8.435;-1.03;0.02;-0.16;-4.31;6.47;-0.63;281.07;2.86;165.00;1.04;-109.86;-73.15;7.47 
8.466;-1.00;0.02;-0.22;-6.68;4.10;-0.97;282.07;2.86;169.00;1.02;-109.82;-73.07;7.56 
8.496;-1.02;0.03;-0.26;-7.93;1.95;-1.53;282.07;1.91;170.00;1.05;-109.68;-73.08;7.62 
8.526;-1.01;0.02;-0.27;-9.11;-1.11;-0.70;281.07;0.00;167.00;1.05;-109.52;-73.11;7.68 
8.556;-0.98;0.00;-0.33;-9.32;-4.87;1.04;283.06;0.95;163.00;1.03;-109.33;-73.20;7.76 
8.586;-1.02;0.04;-0.28;-10.37;-8.63;1.95;286.05;0.00;164.00;1.06;-109.12;-73.34;7.91 
8.616;-1.04;0.07;-0.22;-11.97;-8.90;1.60;288.05;1.91;162.00;1.07;-108.90;-73.56;8.06 
8.646;-1.01;0.05;-0.17;-10.85;-2.02;1.04;288.05;2.86;158.00;1.03;-108.76;-73.66;8.29 
8.677;-1.05;0.02;-0.19;-8.42;4.52;2.43;289.04;2.86;157.00;1.07;-108.71;-73.66;8.44 
8.707;-1.04;0.05;-0.26;-7.58;8.83;1.81;292.03;0.00;154.00;1.07;-108.76;-73.52;8.61 
8.736;-1.02;0.05;-0.21;-8.21;10.50;0.90;292.03;3.81;160.00;1.04;-108.84;-73.32;8.72 
8.767;-1.29;0.34;-0.17;0.42;-10.78;-1.67;294.03;-1.91;161.00;1.34;-109.33;-72.84;9.42 
8.797;-0.80;-0.02;-0.19;-6.75;-45.84;0.90;290.04;1.91;156.00;0.82;-108.71;-73.59;9.31 
8.827;-1.10;0.02;0.13;-49.74;-27.83;3.27;293.03;5.72;147.00;1.11;-107.66;-74.75;9.34 
8.857;-1.18;0.14;-0.29;-16.63;14.68;-23.44;294.03;6.67;141.00;1.22;-106.96;-75.20;9.22 
8.887;-1.22;0.22;-0.11;-27.55;46.05;-22.19;293.03;6.67;147.00;1.24;-106.76;-74.74;8.52 
8.917;-0.98;0.02;-0.25;-17.46;69.77;-46.82;282.07;1.91;162.00;1.01;-106.71;-73.65;7.50 
8.947;-0.55;-0.36;-0.26;-25.32;29.43;4.73;282.07;1.91;169.00;0.71;-106.86;-72.37;7.05 
8.978;-0.96;-0.03;-0.18;-24.56;-26.09;6.89;283.06;0.00;170.00;0.98;-106.69;-72.52;7.39 
9.007;-1.19;0.06;-0.28;-22.40;-10.78;0.14;290.04;0.00;160.00;1.22;-106.29;-73.15;7.68 
9.037;-0.89;0.01;-0.26;-17.04;-1.18;-2.78;293.03;3.81;158.00;0.93;-106.21;-73.10;7.83 
9.067;-0.98;0.02;-0.24;-15.03;-25.67;2.43;291.04;1.91;155.00;1.01;-105.89;-73.52;7.94 
9.097;-1.02;0.00;-0.39;-5.43;-8.56;-0.14;293.03;5.72;147.00;1.09;-105.50;-74.14;8.13 
9.127;-1.08;0.02;-0.08;0.07;-19.83;1.46;292.03;6.67;143.00;1.08;-105.14;-74.69;8.19 
9.157;-1.07;-0.03;-0.34;-7.65;3.55;0.07;295.02;7.62;143.00;1.12;-104.93;-74.99;8.21 
9.188;-0.98;0.02;-0.26;-8.70;7.79;0.83;295.02;7.62;140.00;1.01;-105.09;-74.76;8.39 
9.218;-0.98;0.02;-0.22;-10.57;-8.21;1.32;295.02;6.67;142.00;1.00;-105.10;-74.73;8.59 
9.248;-1.02;-0.02;-0.16;-10.50;-14.33;2.64;301.00;6.67;142.00;1.03;-104.84;-75.11;8.66 
9.278;-1.13;0.00;-0.22;-11.48;1.32;2.09;299.01;9.53;138.00;1.15;-104.75;-75.25;8.83 
9.307;-0.98;0.01;-0.21;-2.71;3.13;-0.90;297.02;11.44;134.00;1.00;-104.76;-75.16;8.89 
9.337;-0.99;0.01;-0.18;-3.34;-10.92;-0.14;298.01;9.53;134.00;1.01;-104.62;-75.32;8.87 
9.367;-1.07;0.04;-0.14;-4.03;-4.66;0.56;302.00;11.44;130.00;1.08;-104.44;-75.58;8.88 
9.397;-1.07;0.01;-0.19;-0.49;2.99;-0.56;303.00;11.44;130.00;1.09;-104.37;-75.69;8.93 
9.427;-1.02;0.00;-0.21;-5.15;4.10;0.35;301.00;8.58;132.00;1.04;-104.31;-75.68;8.91 
9.457;-1.04;-0.03;-0.14;-1.04;6.75;2.78;302.00;9.53;133.00;1.05;-104.39;-75.54;9.01 
9.488;-0.98;-0.04;-0.22;4.31;4.73;23.10;302.00;8.58;133.00;1.01;-104.68;-75.30;9.27 
9.518;-1.06;0.04;-0.24;-5.29;2.71;4.45;305.99;5.72;133.00;1.09;-105.30;-74.83;9.82 
9.548;-0.95;0.04;-0.15;0.56;1.95;-3.48;312.96;6.67;136.00;0.96;-105.40;-74.66;9.90 
9.579;-1.02;0.00;-0.16;-11.06;-14.26;-0.14;307.98;8.58;132.00;1.03;-105.15;-74.94;9.84 
9.608;-1.00;-0.07;-0.30;-5.84;-5.84;1.67;308.98;6.67;127.00;1.05;-105.02;-75.10;9.90 
9.638;-1.03;0.02;-0.18;-10.92;-10.71;1.25;310.97;12.39;127.00;1.05;-105.08;-75.08;10.10 
9.668;-1.12;0.08;-0.18;-9.18;-13.98;-0.21;309.97;8.58;121.00;1.14;-104.95;-75.34;10.26 
9.698;-0.92;0.07;-0.14;-2.43;-15.44;-2.23;313.96;8.58;120.00;0.93;-104.67;-75.65;10.17 
9.728;-0.92;0.06;-0.16;-2.57;-38.89;1.53;311.97;14.29;112.00;0.94;-104.15;-76.36;10.09 
9.758;-1.14;0.07;-0.20;-2.16;-32.28;1.67;313.96;9.53;110.00;1.16;-103.73;-77.05;10.16 
9.789;-1.06;0.00;-0.18;-7.79;-17.67;1.60;314.96;14.29;101.00;1.08;-103.51;-77.40;10.29 
9.819;-1.00;0.03;-0.14;-11.55;-24.21;6.33;315.95;18.11;98.00;1.01;-103.25;-77.75;10.37 
9.849;-1.10;0.01;-0.08;-11.06;-9.60;8.00;317.95;18.11;94.00;1.10;-103.12;-77.91;10.53 
9.879;-1.05;0.03;-0.09;-2.16;-4.03;4.94;318.94;19.06;95.00;1.05;-103.24;-77.81;10.84 
9.909;-1.08;0.07;-0.12;2.43;1.04;-3.27;319.94;19.06;90.00;1.09;-103.24;-77.80;10.85 
9.939;-1.02;0.02;-0.10;-2.57;-2.43;1.67;318.94;19.06;95.00;1.03;-103.27;-77.73;10.84 
9.969;-1.01;0.07;-0.17;-9.11;-42.02;9.18;324.92;16.20;83.00;1.03;-103.14;-77.91;11.06 
10.000;-1.02;0.07;0.04;-11.83;-9.53;3.20;322.93;18.11;78.00;1.02;-102.87;-78.13;11.29 
10.030;-1.02;0.00;-0.08;-4.87;13.70;-4.59;323.93;20.01;77.00;1.02;-102.86;-78.12;11.23 
10.059;-1.02;0.07;-0.15;1.53;-31.51;-2.99;324.92;20.01;76.00;1.03;-102.66;-78.29;11.10 
10.089;-1.00;0.12;-0.16;-1.18;-62.96;16.42;325.92;20.97;69.00;1.02;-102.43;-78.39;11.37 
10.119;-1.10;0.00;0.00;-7.30;-48.83;17.60;327.91;21.92;62.00;1.10;-102.20;-78.21;11.78 
10.149;-1.00;0.10;-0.10;9.74;-54.05;15.03;333.89;19.06;46.00;1.01;-102.10;-77.65;12.30 
10.179;-1.08;0.06;-0.12;15.10;-114.30;27.34;334.89;25.73;33.00;1.09;-102.00;-76.54;13.03 
10.209;-1.14;0.16;0.25;-3.27;-117.08;21.22;341.87;21.92;7.00;1.18;-101.33;-74.40;13.82 
10.239;-0.95;0.08;0.18;10.23;-78.75;4.94;343.86;25.73;-2.00;0.97;-100.55;-72.45;14.20 
10.269;-1.18;0.10;0.46;-0.14;-110.26;-7.37;345.85;24.78;-32.00;1.27;-99.33;-70.63;14.12 
10.300;-0.82;0.22;0.30;-0.07;-77.98;-20.80;342.86;22.87;-52.00;0.90;-97.69;-68.50;13.73 
10.330;-1.04;0.05;0.32;-3.41;-40.00;-21.22;336.88;22.87;-63.00;1.09;-96.50;-67.35;13.16 
10.360;-0.81;0.11;0.12;13.22;-42.99;-21.98;331.90;24.78;-71.00;0.83;-95.28;-66.64;12.35 
10.390;-0.72;0.18;0.26;21.84;-179.34;-8.35;331.90;22.87;-95.00;0.79;-93.48;-63.67;12.12 
10.420;-0.71;0.14;0.51;8.83;-130.85;34.30;335.89;16.20;-119.00;0.89;-92.15;-58.75;12.79 
10.450;-0.91;0.06;0.32;33.18;-162.57;44.24;342.86;6.67;-143.00;0.97;-91.88;-54.60;14.03 
10.480;-0.80;0.13;0.64;27.41;-185.04;10.64;350.84;-3.81;-167.00;1.03;-90.54;-49.63;15.18 
10.511;-0.41;0.10;0.67;14.26;-155.62;3.55;354.83;-27.64;-204.00;0.79;-88.54;-44.41;15.34 
10.541;-0.70;0.32;0.91;-2.02;-147.76;11.83;354.83;-33.35;-215.00;1.19;-87.21;-39.76;15.59 
10.571;-0.62;0.20;0.75;-26.16;-213.98;-5.15;356.82;-56.23;-252.00;0.99;-85.56;-34.51;15.21 
10.601;-0.10;0.12;0.57;-20.87;-223.17;-12.17;351.83;-82.91;-283.00;0.59;-83.05;-27.46;14.12 
10.631;-0.15;0.13;1.04;-0.77;-142.19;-8.42;344.86;-120.07;-319.00;1.06;-81.17;-21.56;13.39 
10.661;-0.11;0.02;0.90;5.57;-138.16;-1.95;344.86;-140.09;-333.00;0.91;-79.96;-16.49;13.13 
10.691;-0.26;0.10;0.92;20.52;-119.79;19.27;345.85;-157.24;-344.00;0.96;-79.63;-12.64;13.17 
10.721;-0.06;0.10;1.07;20.03;-131.62;34.71;347.85;-178.21;-352.00;1.08;-79.94;-7.84;13.75 
10.751;-0.03;0.17;1.00;40.07;-60.94;32.77;362.80;-209.65;-361.00;1.01;-80.39;-3.68;14.38 
10.781;0.15;0.73;0.67;24.35;-21.50;17.39;368.78;-217.28;-360.00;1.00;-81.24;-2.06;15.45 
10.812;0.07;0.07;0.47;-14.33;50.78;-34.43;371.77;-205.84;-355.00;0.48;-81.25;-3.59;15.81 
10.842;0.08;-0.03;0.58;-31.72;4.80;-4.80;368.78;-198.22;-354.00;0.59;-81.18;-4.45;14.93 
10.871;-0.12;0.19;0.92;-26.30;0.07;19.13;360.81;-199.17;-356.00;0.95;-81.88;-4.00;13.89 
10.900;-0.14;0.09;0.82;-0.21;5.29;21.22;359.81;-202.03;-363.00;0.84;-82.76;-3.66;13.09 
10.929;-0.02;0.06;0.79;7.30;-6.12;13.43;363.80;-202.98;-359.00;0.79;-83.59;-3.30;13.05 
10.959;0.06;0.18;0.83;3.55;4.24;15.17;364.79;-204.89;-359.00;0.85;-84.18;-2.62;13.01 
10.989;0.00;0.26;0.68;-14.05;-16.21;4.94;365.79;-205.84;-361.00;0.73;-84.69;-1.99;12.66 
11.019;-0.31;0.61;1.23;-24.90;-2.30;-29.36;360.81;-203.94;-362.00;1.41;-84.86;-1.49;12.09 
11.049;0.19;0.11;0.87;-61.29;31.17;-25.32;352.83;-208.70;-363.00;0.90;-84.83;-0.68;11.02 
11.079;-0.10;0.02;1.00;-37.08;41.53;-4.66;343.86;-200.12;-367.00;1.01;-84.99;-1.33;9.31 
11.110;-0.18;0.07;0.79;-4.94;10.57;6.47;338.88;-192.50;-364.00;0.81;-85.50;-1.69;8.30 
11.140;0.08;0.14;1.02;2.09;27.34;-3.41;337.88;-195.36;-366.00;1.03;-86.17;-1.74;8.24 
11.170;-0.02;-0.13;0.76;-3.20;8.35;6.12;341.87;-189.64;-362.00;0.77;-86.43;-2.11;8.00 
11.200;-0.10;0.04;0.86;-7.03;-11.55;2.37;338.88;-188.69;-364.00;0.87;-86.75;-1.65;7.74 
11.230;-0.18;-0.07;0.78;25.18;-61.22;5.36;337.88;-194.41;-368.00;0.80;-87.17;-0.59;7.41 
11.260;-0.07;-0.02;1.10;60.87;-64.42;22.05;350.84;-209.65;-371.00;1.10;-87.66;1.46;8.08 
11.290;0.26;0.42;1.21;10.57;-48.90;5.43;361.80;-221.09;-367.00;1.31;-88.11;3.70;9.53 
11.320;-0.03;0.15;0.57;67.62;-64.35;1.67;364.79;-230.62;-368.00;0.59;-88.36;5.17;10.18 
11.350;0.06;0.40;0.84;12.66;11.13;-17.60;374.76;-238.24;-366.00;0.93;-88.36;6.43;11.32 
11.380;-0.03;0.18;0.69;-18.09;16.00;-9.04;375.76;-233.48;-365.00;0.71;-88.26;6.06;11.26 
11.411;0.14;0.19;0.70;-36.52;21.08;16.70;367.78;-226.81;-365.00;0.74;-88.75;5.78;10.31 
11.441;0.07;0.21;0.86;-60.17;42.92;16.56;361.80;-223.00;-370.00;0.89;-89.69;5.49;8.76 
11.471;-0.08;0.21;0.79;-87.37;92.52;6.54;349.84;-219.18;-373.00;0.82;-90.70;3.68;6.49 
11.501;-0.07;0.28;1.03;-46.26;54.89;11.41;334.89;-206.79;-373.00;1.07;-91.43;1.67;4.04 
11.531;-0.10;0.21;0.81;10.92;47.72;4.73;330.90;-195.36;-373.00;0.84;-92.01;0.45;3.64 
11.561;-0.14;-0.22;0.75;3.55;10.02;5.08;333.89;-191.55;-369.00;0.79;-92.57;-0.14;3.70 
11.591;-0.08;0.07;0.86;-1.67;-3.97;7.79;333.89;-189.64;-369.00;0.87;-92.89;0.02;3.28 
11.622;-0.06;0.07;0.79;-2.85;-14.54;1.95;332.90;-192.50;-367.00;0.80;-93.23;0.42;3.06 
11.652;-0.20;0.30;0.72;-30.33;-11.20;5.63;333.89;-196.31;-370.00;0.81;-93.90;0.93;2.82 
11.682;0.03;0.01;0.93;-28.45;-19.27;5.98;327.91;-198.22;-376.00;0.93;-94.20;1.66;1.43 
11.713;-0.10;0.00;1.16;-22.19;29.91;7.72;320.94;-202.03;-375.00;1.16;-94.78;1.90;0.49 
11.743;-0.12;0.00;0.86;0.56;22.12;-1.53;319.94;-196.31;-375.00;0.87;-95.20;1.11;-0.28 
11.773;-0.07;-0.04;0.87;5.36;25.81;5.63;319.94;-192.50;-370.00;0.87;-95.50;0.37;-0.27 
