Time(s) acc_x(g) acc_y(g) acc_z(g) gyr_x(°/s) gyr_y(°/s) gyr_z(°/s) mag_x(G) mag_y(G) mag_z(G) SVM(g) yaw(°) pitch(°) roll(°)
0.000;-0.42;0.29;0.97;18.23;-20.66;0.70;-78.00;-230.92;-349.71;1.10;164.44;-28.40;20.38 
0.030;-0.39;0.14;0.80;6.12;-20.38;-0.28;-80.00;-232.83;-350.71;0.90;164.72;-27.62;20.64 
0.060;-0.40;0.18;0.74;0.00;2.30;-7.44;-75.00;-238.58;-352.71;0.86;164.93;-27.44;20.54 
0.090;-0.33;0.23;0.74;-3.48;-4.10;-5.36;-77.00;-238.58;-353.71;0.84;165.07;-27.49;20.32 
0.121;-0.35;0.22;0.66;-1.95;-6.47;7.65;-79.00;-239.54;-352.71;0.78;165.02;-27.25;20.22 
0.151;-0.34;0.20;0.68;-2.02;15.79;20.17;-77.00;-239.54;-351.71;0.79;164.54;-27.21;20.34 
0.181;-0.34;0.16;0.88;-4.59;20.66;24.90;-75.00;-236.67;-349.71;0.96;163.67;-27.45;20.50 
0.212;-0.34;0.09;0.91;-6.05;9.53;21.22;-72.00;-227.08;-347.71;0.98;162.70;-27.53;20.55 
0.242;-0.38;0.14;0.85;-3.20;4.87;15.58;-70.00;-225.17;-346.72;0.94;161.98;-27.41;20.51 
0.272;-0.38;0.16;0.78;-3.62;8.35;15.72;-74.00;-224.21;-349.71;0.88;161.41;-27.35;20.51 
0.302;-0.38;0.22;0.78;-5.84;7.58;19.83;-70.00;-222.29;-343.72;0.90;160.76;-27.35;20.55 
0.333;-0.35;0.16;0.77;-6.61;8.49;23.03;-71.00;-216.54;-346.72;0.86;159.92;-27.25;20.62 
0.363;-0.38;0.13;0.85;-6.19;10.78;21.15;-73.00;-211.75;-345.72;0.94;159.05;-27.22;20.66 
0.393;-0.38;0.12;0.86;-6.96;7.23;20.31;-71.00;-207.92;-343.72;0.95;158.25;-27.20;20.63 
0.424;-0.38;0.18;0.87;-7.93;2.99;20.17;-67.00;-206.00;-341.72;0.97;157.47;-27.03;20.60 
0.454;-0.37;0.18;0.86;-9.04;-1.88;19.69;-72.00;-203.13;-341.72;0.95;156.74;-26.74;20.58 
0.484;-0.38;0.21;0.80;-9.74;-5.36;22.47;-71.00;-203.13;-340.72;0.91;156.02;-26.34;20.54 
0.514;-0.35;0.18;0.78;-10.09;-6.40;24.00;-71.00;-200.26;-341.72;0.87;155.26;-25.86;20.51 
0.544;-0.38;0.16;0.76;-10.02;-4.59;24.42;-72.00;-201.21;-340.72;0.86;154.43;-25.33;20.51 
0.574;-0.34;0.14;0.74;-10.78;-3.83;24.35;-72.00;-198.34;-338.72;0.83;153.63;-24.91;20.49 
0.604;-0.38;0.18;0.80;-11.41;-3.06;25.67;-73.00;-199.30;-337.72;0.90;152.80;-24.48;20.44 
0.635;-0.37;0.16;0.82;-11.76;-2.23;28.38;-74.00;-197.38;-336.72;0.91;151.89;-24.07;20.40 
0.665;-0.36;0.15;0.79;-11.90;-2.78;29.70;-76.00;-195.47;-336.72;0.88;150.89;-23.63;20.36 
0.695;-0.34;0.17;0.78;-13.22;-0.77;31.03;-74.00;-191.63;-339.72;0.87;149.90;-23.23;20.34 
0.725;-0.39;0.20;0.82;-14.82;-1.88;34.57;-73.00;-189.72;-337.72;0.93;148.82;-22.85;20.31 
0.755;-0.43;0.18;0.76;-15.44;-2.57;38.61;-72.00;-185.88;-334.73;0.89;147.61;-22.35;20.31 
0.785;-0.31;0.20;0.75;-15.44;6.61;37.91;-73.00;-183.97;-332.73;0.84;146.34;-21.96;20.26 
0.815;-0.34;0.15;0.88;-13.84;7.65;35.06;-74.00;-178.22;-332.73;0.96;145.08;-21.78;20.20 
0.846;-0.35;0.00;0.83;-10.78;1.53;29.43;-73.00;-176.30;-330.73;0.90;143.99;-21.51;20.10 
0.876;-0.35;0.05;0.78;-7.23;3.55;22.96;-71.00;-174.39;-331.73;0.86;143.15;-21.23;20.19 
0.906;-0.38;0.07;0.81;-4.87;5.29;15.44;-71.00;-169.59;-332.73;0.90;142.58;-21.17;20.07 
0.937;-0.40;0.06;0.80;-3.41;0.70;9.39;-67.00;-164.80;-331.73;0.90;142.24;-21.12;19.96 
0.966;-0.35;0.08;0.83;-1.53;2.16;2.71;-69.00;-167.68;-329.73;0.90;142.14;-21.07;19.81 
0.995;-0.38;0.11;0.82;-0.07;1.11;-2.02;-70.00;-164.80;-328.73;0.91;142.23;-21.13;19.67 
1.025;-0.36;0.12;0.83;1.74;-1.39;-6.26;-75.00;-168.64;-328.73;0.91;142.50;-21.16;19.53 
1.055;-0.39;0.13;0.80;2.78;0.00;-7.86;-72.00;-167.68;-329.73;0.90;142.90;-21.17;19.39 
1.085;-0.37;0.17;0.78;2.23;2.16;-7.44;-71.00;-167.68;-330.73;0.88;143.28;-21.28;19.31 
1.115;-0.36;0.18;0.77;1.60;3.69;-6.19;-72.00;-167.68;-332.73;0.87;143.62;-21.44;19.22 
1.146;-0.37;0.16;0.82;2.64;1.95;-4.73;-72.00;-166.72;-330.73;0.91;143.93;-21.57;19.16 
1.176;-0.42;0.12;0.80;2.85;2.23;-5.22;-69.00;-165.76;-331.73;0.91;144.24;-21.65;19.09 
1.206;-0.38;0.16;0.78;0.07;8.35;-5.98;-70.00;-166.72;-330.73;0.88;144.52;-21.86;18.96 
1.236;-0.43;0.17;0.84;-0.21;10.02;-4.59;-72.00;-166.72;-327.73;0.96;144.71;-22.23;18.77 
1.266;-0.37;0.13;0.80;3.69;1.95;0.07;-70.00;-163.85;-331.73;0.89;144.89;-22.43;18.75 
1.295;-0.37;0.18;0.70;4.38;2.23;8.00;-72.00;-165.76;-330.73;0.81;144.98;-22.43;18.85 
1.324;-0.37;0.23;0.70;2.02;10.50;15.65;-68.00;-162.89;-330.73;0.82;144.78;-22.51;19.07 
1.353;-0.35;0.23;0.75;-1.39;16.70;23.44;-65.00;-160.01;-330.73;0.86;144.25;-22.73;19.29 
1.382;-0.38;0.26;0.83;-5.43;17.95;31.30;-66.00;-155.22;-323.73;0.95;143.42;-22.93;19.52 
1.412;-0.42;0.29;0.90;-9.88;10.09;43.06;-61.00;-146.60;-326.73;1.03;142.28;-22.95;19.76 
1.443;-0.40;0.27;0.77;-13.08;7.30;56.42;-57.00;-143.72;-322.74;0.91;140.70;-22.61;20.10 
1.473;-0.42;0.21;0.83;-18.09;12.31;61.57;-54.00;-137.02;-319.74;0.95;138.72;-22.20;20.42 
1.503;-0.45;0.14;0.88;-22.26;10.71;59.13;-49.00;-131.27;-323.73;1.00;136.69;-21.86;20.54 
1.534;-0.44;0.13;0.85;-24.42;2.85;47.65;-44.00;-124.56;-314.74;0.97;134.83;-21.50;20.44 
1.564;-0.45;0.24;0.73;-24.63;-0.97;48.49;-44.00;-118.81;-316.74;0.89;133.30;-21.00;20.28 
1.594;-0.42;0.30;0.68;-24.70;8.28;54.26;-41.00;-115.94;-310.74;0.85;131.70;-20.56;20.24 
1.624;-0.46;0.31;0.77;-28.59;9.04;63.37;-41.00;-112.11;-311.74;0.95;129.80;-20.23;20.26 
1.655;-0.45;0.33;0.78;-32.42;3.62;73.18;-37.00;-101.57;-309.75;0.96;127.55;-19.69;20.27 
1.685;-0.39;0.32;0.74;-33.88;5.50;81.67;-33.00;-94.86;-305.75;0.90;125.04;-18.97;20.33 
1.715;-0.42;0.32;0.68;-36.94;8.07;87.58;-25.00;-91.98;-303.75;0.86;122.40;-18.25;20.36 
1.746;-0.45;0.34;0.72;-40.00;13.77;98.09;-18.00;-80.49;-298.75;0.91;119.35;-17.50;20.33 
1.776;-0.46;0.28;0.73;-39.10;18.99;95.58;-9.00;-74.74;-295.76;0.91;116.08;-16.92;20.31 
1.806;-0.42;0.25;0.74;-39.93;15.86;88.28;-2.00;-62.28;-291.76;0.89;113.11;-16.43;20.18 
1.836;-0.46;0.26;0.73;-43.90;13.22;87.44;7.00;-55.57;-284.77;0.90;110.33;-15.93;19.92 
1.866;-0.41;0.24;0.76;-47.17;6.47;88.90;17.00;-49.82;-280.77;0.90;107.47;-15.27;19.55 
1.896;-0.41;0.28;0.75;-47.86;3.34;82.99;16.00;-46.95;-277.77;0.90;104.87;-14.51;19.06 
1.926;-0.38;0.27;0.77;-42.78;0.35;79.17;27.00;-43.12;-271.78;0.90;102.48;-13.70;18.57 
1.957;-0.41;0.32;0.66;-34.57;-3.34;77.01;36.00;-36.41;-273.78;0.84;100.17;-12.84;18.21 
1.987;-0.39;0.24;0.62;-31.03;-4.31;75.27;41.00;-38.33;-269.78;0.77;97.92;-12.02;18.03 
2.017;-0.35;0.17;0.51;-24.35;-12.03;70.75;49.00;-34.49;-272.78;0.64;95.91;-11.12;17.92 
2.047;-0.26;0.06;0.33;-13.57;-18.02;62.12;58.00;-37.37;-266.78;0.42;94.18;-10.16;17.84 
2.077;-0.21;0.00;0.18;2.50;-19.48;48.07;69.00;-35.45;-274.77;0.28;92.80;-8.88;18.17 
2.107;-0.21;0.04;0.01;10.71;-7.72;38.75;78.00;-34.49;-275.77;0.21;91.73;-7.81;18.80 
2.137;-0.26;0.18;0.02;22.19;22.05;32.63;83.00;-34.49;-279.77;0.32;90.76;-8.13;19.85 
2.168;-0.28;0.40;0.45;26.64;51.90;45.43;96.00;-34.49;-276.77;0.66;89.19;-9.03;21.43 
2.197;-0.31;0.22;0.83;23.93;45.22;44.94;113.00;-19.16;-262.78;0.91;87.10;-9.99;22.79 
2.227;-0.30;0.12;1.00;33.95;-13.63;25.60;123.00;-15.33;-256.79;1.05;85.88;-10.11;23.86 
2.258;-0.30;0.26;0.58;23.23;-51.62;17.39;132.00;-23.00;-261.79;0.70;85.74;-8.76;25.10 
2.288;-0.23;0.30;0.36;-9.46;-23.44;-2.50;136.00;-27.79;-263.78;0.52;86.03;-7.57;25.73 
2.317;-0.28;0.41;0.32;-19.34;0.35;-15.03;129.00;-28.74;-261.79;0.59;86.57;-7.48;25.73 
2.346;-0.18;0.30;0.41;-6.19;0.83;-1.53;129.00;-31.62;-257.79;0.54;86.86;-7.72;25.72 
2.376;-0.19;0.46;0.42;-30.26;5.29;6.47;128.00;-30.66;-261.79;0.65;86.82;-7.71;25.71 
2.406;-0.18;0.37;0.52;-62.75;19.55;11.48;125.00;-27.79;-256.79;0.66;86.46;-7.84;25.06 
2.436;-0.25;0.33;0.54;-96.35;7.17;5.08;117.00;-24.91;-248.80;0.68;86.10;-8.11;23.13 
2.467;-0.26;0.34;0.30;-122.50;-4.80;2.02;94.00;-22.04;-245.80;0.52;86.17;-8.05;20.38 
2.497;-0.40;0.18;0.37;-159.03;24.28;1.81;76.00;-23.00;-241.80;0.57;86.12;-8.41;16.75 
2.527;-0.64;0.00;0.73;-191.93;38.61;-17.25;54.00;-16.29;-224.82;0.97;86.24;-9.67;11.90 
2.558;-0.58;-0.69;1.28;-203.83;-0.14;-45.22;6.00;-12.46;-194.84;1.57;87.23;-10.70;5.54 
2.588;-0.76;-1.66;1.80;-176.97;-52.59;-87.03;-33.00;-14.37;-171.86;2.56;89.55;-9.73;-1.08 
2.618;-2.22;-2.12;3.03;-85.63;-117.57;-129.53;-86.00;-26.83;-139.89;4.31;92.28;-7.69;-5.39 
2.648;-0.90;0.36;4.00;-63.93;293.43;25.67;-159.00;-53.66;-132.89;4.12;95.24;-8.31;-6.73 
2.679;1.64;1.09;0.96;-470.40;-302.12;-46.82;-214.00;-54.62;-121.90;2.19;95.40;-5.28;-14.96 
2.708;0.12;0.84;-0.86;-305.81;-562.50;45.08;-250.00;-77.61;-119.90;1.21;92.12;7.49;-27.60 
2.738;-0.91;-0.43;-0.39;44.59;-176.77;292.73;-246.00;-89.11;-151.88;1.08;80.76;15.79;-32.08 
2.769;0.10;-2.47;-0.50;-198.12;91.13;142.68;-207.00;-62.28;-183.85;2.52;69.50;13.09;-36.42 
2.799;-0.60;-2.22;0.08;-347.48;217.46;26.71;-208.00;-47.91;-134.89;2.30;67.27;7.21;-45.65 
2.829;-0.29;-1.21;0.34;-274.43;236.87;-82.16;-228.00;-47.91;-60.95;1.29;70.37;3.17;-56.05 
2.858;0.00;-1.51;-0.26;-201.39;34.37;-47.65;-238.00;-62.28;2.00;1.53;79.29;2.32;-63.14 
2.887;-0.58;-1.56;-0.37;-82.78;-96.56;14.82;-244.00;-69.95;18.98;1.70;73.58;3.34;-67.96 
2.916;-0.65;-1.46;-0.37;18.78;41.74;-66.85;-243.00;-69.95;20.98;1.64;70.46;4.31;-69.19 
2.946;-0.04;-0.90;-0.14;71.65;86.68;-40.83;-254.00;-81.44;18.98;0.91;77.87;5.22;-68.07 
2.975;-0.07;-0.86;0.30;33.95;27.27;-23.17;-258.00;-91.03;12.99;0.91;84.19;5.63;-66.21 
3.004;0.11;-0.58;-0.07;-8.70;-32.49;12.59;-258.00;-97.73;8.99;0.59;84.71;6.15;-65.46 
3.034;-0.03;-0.76;-0.26;-25.60;-46.61;15.79;-256.00;-91.03;6.00;0.80;82.16;6.44;-66.01 
3.065;-0.16;-1.02;-0.36;-17.32;-44.45;0.63;-251.00;-89.11;4.00;1.09;77.84;6.98;-66.98 
3.095;-0.12;-1.02;-0.26;-8.28;-6.61;-18.64;-258.00;-92.94;2.00;1.06;76.16;7.60;-67.71 
3.124;0.02;-1.10;0.00;9.39;-14.54;-17.46;-260.00;-95.82;1.00;1.10;76.29;8.55;-67.65 
3.155;-0.10;-1.19;-0.06;28.94;-31.58;-0.07;-262.00;-97.73;-6.00;1.20;74.49;9.02;-67.34 
3.184;-0.06;-1.14;0.04;41.32;-14.26;2.85;-260.00;-95.82;-14.99;1.14;73.80;9.29;-66.61 
3.214;-0.12;-1.10;0.08;50.37;-27.06;10.78;-257.00;-97.73;-24.98;1.11;73.25;9.41;-65.59 
3.244;-0.15;-1.03;0.11;52.66;-38.61;9.60;-256.00;-92.94;-43.96;1.05;71.88;9.52;-64.42 
3.274;-0.12;-1.03;0.10;52.31;-29.08;-1.60;-251.00;-96.77;-52.96;1.04;70.86;9.91;-63.06 
3.304;-0.06;-0.90;0.14;54.75;-20.38;-1.53;-253.00;-101.57;-63.95;0.91;70.38;10.38;-61.72 
3.334;-0.06;-0.90;0.18;54.19;-13.15;-0.90;-247.00;-99.65;-76.94;0.92;70.57;10.76;-60.25 
3.365;-0.03;-0.96;0.26;53.50;-15.30;-3.34;-244.00;-99.65;-93.92;1.00;70.80;11.03;-58.83 
3.395;-0.14;-0.99;0.29;58.64;-16.14;-0.77;-242.00;-103.48;-100.92;1.04;71.04;11.38;-57.24 
3.425;-0.10;-0.95;0.29;48.00;0.97;-5.77;-236.00;-100.61;-111.91;1.00;71.45;11.57;-55.77 
3.455;0.00;-0.93;0.26;42.85;14.75;-8.97;-236.00;-103.48;-118.90;0.97;72.43;11.65;-54.56 
3.485;-0.07;-0.94;0.36;46.33;18.85;-9.46;-230.00;-103.48;-122.90;1.01;73.82;11.64;-53.28 
3.515;-0.05;-0.85;0.43;26.78;22.26;-2.78;-228.00;-105.40;-130.89;0.95;75.17;11.46;-52.19 
3.545;0.00;-0.79;0.42;30.05;13.08;-0.35;-226.00;-104.44;-131.89;0.89;76.17;11.24;-51.37 
3.576;-0.06;-0.90;0.41;29.15;5.70;1.04;-223.00;-101.57;-131.89;0.99;76.73;11.13;-50.48 
3.606;-0.06;-0.82;0.36;17.95;13.63;-1.11;-219.00;-102.52;-138.89;0.90;77.32;10.89;-49.83 
3.636;-0.02;-0.78;0.42;14.89;9.67;-2.71;-221.00;-100.61;-137.89;0.89;78.03;10.88;-49.22 
3.667;-0.06;-0.87;0.48;14.47;0.70;-3.90;-217.00;-99.65;-140.88;1.00;78.46;10.90;-48.84 
3.697;-0.14;-0.94;0.53;15.93;1.18;-7.65;-217.00;-100.61;-142.88;1.09;78.85;10.98;-48.28 
3.727;-0.11;-0.78;0.47;9.04;16.35;-11.06;-214.00;-102.52;-142.88;0.92;79.56;10.92;-47.88 
3.757;-0.05;-0.78;0.48;17.67;33.74;-16.49;-216.00;-101.57;-141.88;0.92;80.82;10.74;-47.42 
3.787;-0.05;-0.82;0.47;35.34;44.80;-24.14;-217.00;-101.57;-141.88;0.95;82.85;10.46;-46.57 
3.817;0.00;-0.77;0.46;35.48;51.27;-15.72;-217.00;-101.57;-141.88;0.90;85.09;9.92;-45.44 
3.847;0.00;-0.85;0.54;20.31;26.71;-12.17;-218.00;-98.69;-138.89;1.01;86.92;9.50;-44.44 
3.878;-0.02;-0.84;0.58;-0.83;1.46;-0.49;-216.00;-100.61;-135.89;1.02;87.66;9.56;-44.00 
3.908;-0.07;-0.86;0.52;-8.28;-4.66;-0.63;-217.00;-100.61;-141.88;1.01;87.63;9.67;-44.24 
3.938;-0.04;-0.81;0.50;-11.34;-9.18;0.83;-218.00;-97.73;-138.89;0.95;87.49;9.85;-44.63 
3.968;-0.03;-0.78;0.38;-8.42;-5.70;-1.11;-218.00;-99.65;-137.89;0.87;87.25;10.09;-45.05 
3.998;-0.05;-0.83;0.40;-4.17;2.09;-1.46;-220.00;-102.52;-135.89;0.92;87.29;10.18;-45.39 
4.028;-0.06;-0.83;0.43;-1.53;2.64;-2.99;-222.00;-103.48;-135.89;0.94;87.50;10.22;-45.57 
4.058;-0.06;-0.83;0.42;-1.46;3.62;0.90;-222.00;-100.61;-135.89;0.93;87.71;10.23;-45.72 
4.088;-0.07;-0.88;0.50;-2.37;0.21;3.41;-219.00;-100.61;-137.89;1.01;87.75;10.15;-45.90 
4.117;-0.10;-0.86;0.47;-3.13;-4.31;1.88;-222.00;-100.61;-134.89;0.99;87.66;10.15;-46.08 
4.147;-0.11;-0.82;0.46;-1.53;-5.70;-2.23;-219.00;-102.52;-133.89;0.95;87.54;10.27;-46.27 
4.178;-0.13;-0.86;0.42;-1.88;0.21;-5.84;-222.00;-101.57;-136.89;0.97;87.60;10.44;-46.39 
4.208;-0.10;-0.86;0.49;-1.60;3.48;-4.45;-226.00;-101.57;-136.89;0.99;87.89;10.52;-46.49 
4.238;-0.09;-0.82;0.47;-4.24;1.67;-4.31;-221.00;-101.57;-134.89;0.95;88.16;10.58;-46.61 
4.268;-0.07;-0.85;0.46;-4.38;0.42;-5.15;-222.00;-102.52;-132.89;0.97;88.40;10.64;-46.78 
4.298;-0.04;-0.82;0.45;-2.64;-1.53;-6.54;-223.00;-106.36;-131.89;0.94;88.63;10.81;-46.91 
4.328;-0.03;-0.85;0.46;-2.64;-0.70;-4.45;-228.00;-106.36;-130.89;0.97;88.83;11.01;-47.03 
4.358;-0.06;-0.86;0.43;-3.83;0.00;-0.35;-228.00;-106.36;-131.89;0.96;88.95;11.11;-47.21 
4.389;-0.07;-0.85;0.44;-4.80;-2.64;-0.49;-226.00;-107.31;-128.89;0.96;88.98;11.17;-47.45 
4.419;-0.06;-0.85;0.43;-3.41;-4.31;-2.16;-228.00;-108.27;-131.89;0.95;88.95;11.30;-47.66 
4.449;-0.05;-0.86;0.40;-0.70;-1.18;-2.71;-230.00;-109.23;-128.89;0.95;88.98;11.41;-47.79 
4.479;-0.05;-0.86;0.42;0.42;0.97;-3.13;-231.00;-108.27;-130.89;0.96;89.13;11.48;-47.87 
4.508;-0.06;-0.86;0.42;1.88;2.37;-0.28;-232.00;-106.36;-134.89;0.96;89.31;11.52;-47.90 
4.537;-0.07;-0.86;0.44;2.64;3.76;0.42;-231.00;-106.36;-131.89;0.97;89.45;11.47;-47.93 
4.567;-0.05;-0.86;0.46;0.90;1.95;-0.77;-229.00;-108.27;-131.89;0.98;89.63;11.42;-47.96 
4.597;-0.03;-0.85;0.45;-0.56;-0.21;-1.60;-230.00;-108.27;-131.89;0.96;89.75;11.45;-48.06 
4.627;-0.02;-0.86;0.46;-0.97;-0.49;-0.49;-231.00;-108.27;-131.89;0.98;89.85;11.50;-48.14 
4.657;-0.05;-0.84;0.46;-1.74;-0.97;-0.77;-230.00;-110.19;-131.89;0.96;89.92;11.56;-48.28 
4.688;-0.05;-0.85;0.45;-1.88;-0.35;-0.90;-230.00;-107.31;-133.89;0.96;89.99;11.61;-48.41 
4.718;-0.04;-0.86;0.45;-2.09;-2.16;-0.56;-230.00;-109.23;-134.89;0.97;90.00;11.67;-48.56 
4.748;-0.06;-0.86;0.45;-1.53;-1.81;-1.81;-231.00;-108.27;-131.89;0.97;90.01;11.74;-48.70 
4.778;-0.08;-0.86;0.49;-2.02;-1.46;-3.90;-230.00;-111.15;-132.89;0.99;90.11;11.81;-48.80 
4.808;-0.07;-0.84;0.45;-3.20;-3.41;-4.24;-232.00;-112.11;-129.89;0.96;90.22;11.94;-48.91 
4.838;-0.02;-0.89;0.47;-3.55;-6.54;-2.92;-234.00;-112.11;-130.89;1.01;90.22;12.11;-49.03 
4.868;-0.04;-0.84;0.44;-1.74;-8.63;-2.23;-232.00;-111.15;-134.89;0.95;90.10;12.31;-49.15 
4.898;-0.02;-0.85;0.39;-0.21;-8.21;-0.56;-233.00;-114.02;-129.89;0.94;89.89;12.51;-49.26 
4.927;0.00;-0.86;0.42;1.39;-4.94;0.63;-234.00;-113.06;-134.89;0.96;89.68;12.65;-49.37 
4.957;-0.04;-0.84;0.39;0.97;1.53;0.49;-235.00;-115.94;-132.89;0.93;89.69;12.84;-49.26 
4.988;-0.04;-0.85;0.48;-0.28;1.74;-0.70;-233.00;-114.98;-131.89;0.98;89.82;12.84;-49.30 
5.018;0.00;-0.86;0.40;-0.97;1.04;-1.25;-235.00;-112.11;-136.89;0.95;89.97;12.81;-49.39 
5.047;-0.03;-0.84;0.46;-1.11;-0.14;-0.63;-234.00;-116.90;-135.89;0.96;90.06;12.82;-49.50 
5.077;0.00;-0.84;0.44;-0.42;1.11;-0.90;-234.00;-114.02;-134.89;0.95;90.15;12.85;-49.59 
5.107;-0.02;-0.86;0.45;-1.53;2.71;-0.28;-237.00;-114.98;-131.89;0.97;90.32;12.82;-49.67 
5.137;0.00;-0.85;0.43;-1.95;0.35;1.53;-235.00;-116.90;-131.89;0.95;90.45;12.93;-49.63 
5.167;-0.03;-0.86;0.46;-1.25;1.04;3.06;-232.00;-115.94;-132.89;0.98;90.51;13.02;-49.61 
5.198;-0.04;-0.86;0.43;-1.18;0.35;1.95;-237.00;-114.02;-133.89;0.96;90.52;13.00;-49.71 
5.228;-0.03;-0.86;0.42;-1.25;0.97;1.60;-236.00;-114.98;-131.89;0.96;90.57;12.91;-49.83 
5.258;-0.02;-0.88;0.42;-0.56;0.49;1.32;-232.00;-113.06;-130.89;0.98;90.61;12.90;-49.91 
5.289;0.00;-0.85;0.42;-1.04;0.63;1.67;-235.00;-113.06;-132.89;0.95;90.72;13.02;-49.83 
5.319;-0.02;-0.84;0.42;-1.88;-1.39;2.71;-234.00;-115.94;-134.89;0.94;90.69;12.97;-49.97 
5.349;-0.04;-0.84;0.45;-1.88;0.00;4.03;-234.00;-113.06;-132.89;0.95;90.65;12.93;-50.11 
5.379;-0.04;-0.87;0.43;-1.18;0.83;3.27;-234.00;-109.23;-128.89;0.97;90.59;12.81;-50.28 
5.410;-0.04;-0.83;0.44;-1.53;2.16;4.31;-231.00;-113.06;-131.89;0.94;90.63;12.66;-50.42 
5.439;-0.06;-0.86;0.47;-2.57;0.35;6.54;-235.00;-108.27;-132.89;0.98;90.57;12.47;-50.61 
5.468;-0.06;-0.93;0.45;-3.41;-1.18;4.94;-231.00;-112.11;-131.89;1.03;90.45;12.31;-50.83 
5.498;-0.06;-0.88;0.46;-4.10;-4.31;3.27;-233.00;-108.27;-131.89;0.99;90.30;12.22;-51.04 
5.528;-0.02;-0.87;0.41;-4.52;-8.00;1.81;-231.00;-110.19;-132.89;0.96;90.03;12.26;-51.28 
5.558;-0.03;-0.88;0.38;-4.10;-6.19;0.90;-230.00;-110.19;-129.89;0.96;89.69;12.33;-51.53 
5.588;0.00;-0.87;0.44;-1.81;-1.60;0.83;-230.00;-106.36;-132.89;0.97;89.55;12.38;-51.72 
5.618;-0.02;-0.86;0.39;0.35;2.30;1.95;-230.00;-110.19;-134.89;0.94;89.55;12.32;-51.84 
5.648;-0.05;-0.86;0.42;1.18;3.48;3.27;-229.00;-108.27;-131.89;0.96;89.65;12.19;-51.91 
5.678;-0.06;-0.84;0.38;2.78;4.17;1.88;-229.00;-107.31;-134.89;0.92;89.75;12.04;-51.97 
5.709;-0.06;-0.87;0.40;2.92;5.15;1.60;-231.00;-106.36;-130.89;0.96;89.94;11.88;-51.99 
5.739;-0.06;-0.87;0.43;2.23;2.99;1.81;-229.00;-107.31;-129.89;0.97;90.15;11.73;-51.99 
5.769;-0.06;-0.87;0.44;1.81;1.11;0.77;-231.00;-106.36;-127.89;0.98;90.26;11.64;-52.01 
5.800;-0.08;-0.86;0.45;2.23;2.37;0.42;-224.00;-108.27;-129.89;0.97;90.39;11.58;-52.01 
5.829;-0.06;-0.87;0.42;-0.28;-0.07;0.35;-227.00;-107.31;-131.89;0.97;90.51;11.55;-52.02 
5.859;-0.07;-0.86;0.43;-0.83;1.53;0.49;-228.00;-105.40;-128.89;0.96;90.58;11.53;-52.08 
5.889;-0.06;-0.85;0.44;-0.70;2.23;0.49;-228.00;-106.36;-129.89;0.96;90.71;11.47;-52.17 
5.919;-0.06;-0.87;0.46;-1.60;0.07;0.70;-227.00;-106.36;-129.89;0.99;90.85;11.43;-52.25 
5.949;-0.05;-0.86;0.43;-2.37;-2.57;1.88;-231.00;-106.36;-131.89;0.96;90.84;11.43;-52.35 
5.979;-0.08;-0.89;0.41;-2.37;-2.78;0.21;-227.00;-109.23;-131.89;0.98;90.76;11.42;-52.49 
6.010;-0.06;-0.86;0.42;-1.81;-2.71;-2.09;-230.00;-103.48;-133.89;0.96;90.74;11.47;-52.62 
6.040;-0.06;-0.86;0.44;-1.95;-3.20;-3.06;-232.00;-109.23;-130.89;0.97;90.77;11.56;-52.70 
6.070;-0.03;-0.86;0.40;-0.97;-2.78;-2.64;-231.00;-110.19;-129.89;0.95;90.78;11.70;-52.77 
6.100;-0.04;-0.87;0.43;-0.63;-0.49;-2.02;-229.00;-111.15;-132.89;0.97;90.87;11.78;-52.81 
6.130;-0.06;-0.86;0.40;0.14;0.28;-2.37;-229.00;-109.23;-131.89;0.95;91.01;11.84;-52.83 
6.160;-0.02;-0.86;0.43;0.21;0.28;-1.18;-230.00;-110.19;-130.89;0.96;91.20;11.89;-52.83 
6.190;-0.04;-0.88;0.42;1.11;1.74;-0.90;-232.00;-109.23;-131.89;0.98;91.32;11.90;-52.86 
6.221;-0.05;-0.88;0.43;-0.56;-2.23;-0.56;-229.00;-111.15;-131.89;0.98;91.45;11.92;-52.86 
6.251;-0.05;-0.86;0.38;0.42;-1.88;-1.32;-232.00;-112.11;-137.89;0.94;91.44;11.96;-52.88 
6.281;-0.02;-0.86;0.40;0.83;-0.49;-1.39;-233.00;-111.15;-131.89;0.95;91.53;12.00;-52.91 
6.311;-0.03;-0.86;0.39;1.88;1.95;-1.88;-234.00;-111.15;-137.89;0.94;91.67;12.00;-52.89 
6.340;-0.02;-0.85;0.46;1.81;2.57;-0.07;-232.00;-113.06;-134.89;0.97;91.90;11.99;-52.86 
6.370;-0.03;-0.87;0.42;0.90;2.02;0.77;-233.00;-111.15;-136.89;0.97;92.09;11.96;-52.82 
6.400;-0.05;-0.86;0.41;-0.07;-0.42;1.39;-235.00;-109.23;-129.89;0.95;92.18;11.93;-52.84 
6.430;-0.05;-0.86;0.40;0.83;0.21;0.56;-237.00;-112.11;-132.89;0.95;92.22;11.88;-52.89 
6.460;-0.06;-0.85;0.42;1.25;0.90;-0.14;-237.00;-111.15;-129.89;0.95;92.34;11.85;-52.91 
6.490;-0.05;-0.86;0.46;1.67;1.04;0.14;-235.00;-111.15;-129.89;0.98;92.46;11.80;-52.91 
6.521;-0.06;-0.86;0.42;1.53;1.18;-0.83;-241.00;-112.11;-127.89;0.96;92.59;11.79;-52.91 
6.551;-0.02;-0.86;0.43;2.71;3.06;-0.28;-239.00;-110.19;-127.89;0.96;92.85;11.98;-52.68 
6.581;-0.02;-0.88;0.44;-0.14;1.88;0.21;-236.00;-107.31;-126.90;0.98;93.03;11.90;-52.69 
6.612;-0.06;-0.86;0.40;-0.77;2.64;-0.70;-236.00;-110.19;-124.90;0.95;93.21;11.86;-52.75 
6.642;-0.05;-0.85;0.42;-1.53;1.60;-0.35;-238.00;-105.40;-123.90;0.95;93.42;11.82;-52.83 
6.672;-0.04;-0.86;0.38;-1.11;1.46;0.07;-239.00;-108.27;-121.90;0.94;93.59;11.76;-52.91 
6.702;-0.06;-0.86;0.46;-1.32;0.14;0.90;-237.00;-109.23;-121.90;0.98;93.70;11.72;-53.00 
6.731;-0.06;-0.86;0.42;-2.23;-1.60;1.04;-235.00;-107.31;-122.90;0.96;93.73;11.68;-53.12 
6.760;-0.04;-0.86;0.42;-1.53;-0.90;0.07;-237.00;-106.36;-122.90;0.96;93.74;11.66;-53.26 
6.790;-0.04;-0.86;0.40;-0.14;0.77;-0.77;-238.00;-102.52;-122.90;0.95;93.84;11.63;-53.33 
6.821;-0.04;-0.86;0.44;0.49;1.95;-0.63;-234.00;-103.48;-122.90;0.97;94.00;11.59;-53.39 
6.851;-0.06;-0.86;0.45;-0.07;0.70;0.42;-233.00;-103.48;-121.90;0.97;94.16;11.54;-53.45 
6.881;-0.05;-0.88;0.43;0.14;0.97;0.00;-235.00;-104.44;-121.90;0.98;94.28;11.47;-53.51 
6.911;-0.03;-0.86;0.42;0.00;0.56;0.21;-234.00;-105.40;-121.90;0.96;94.42;11.42;-53.55 
6.941;-0.02;-0.87;0.38;-0.49;-0.49;0.00;-234.00;-104.44;-120.90;0.95;94.51;11.38;-53.62 
6.971;-0.02;-0.86;0.42;-0.21;0.83;-0.14;-234.00;-102.52;-123.90;0.96;94.64;11.33;-53.65 
7.000;-0.04;-0.85;0.42;-0.14;0.70;0.35;-231.00;-103.48;-124.90;0.95;94.72;11.28;-53.74 
7.031;-0.03;-0.87;0.43;0.35;1.46;0.07;-233.00;-106.36;-123.90;0.97;94.89;11.23;-53.80 
7.061;-0.08;-0.83;0.44;-0.97;0.77;0.83;-234.00;-103.48;-124.90;0.94;95.02;11.18;-53.84 
7.091;-0.05;-0.86;0.44;-1.25;0.90;0.28;-232.00;-105.40;-121.90;0.97;95.14;11.10;-53.96 
7.122;-0.06;-0.85;0.42;-0.97;0.77;-0.35;-233.00;-105.40;-121.90;0.95;95.31;11.06;-54.03 
7.152;-0.03;-0.87;0.43;-0.70;0.77;0.70;-229.00;-103.48;-123.90;0.97;95.46;11.02;-54.09 
7.182;-0.05;-0.87;0.40;-0.90;-1.04;0.70;-230.00;-103.48;-122.90;0.96;95.54;10.99;-54.14 
7.212;-0.05;-0.86;0.42;-1.25;-1.04;0.28;-230.00;-102.52;-121.90;0.96;95.59;10.97;-54.21 
7.241;-0.06;-0.87;0.43;-0.07;0.97;0.14;-231.00;-102.52;-124.90;0.97;95.68;10.96;-54.29 
7.270;-0.04;-0.86;0.39;0.63;2.16;-0.83;-232.00;-106.36;-122.90;0.95;95.86;10.92;-54.31 
7.299;-0.03;-0.84;0.45;0.42;1.60;-0.42;-231.00;-104.44;-124.90;0.95;96.07;11.03;-54.19 
7.330;-0.03;-0.88;0.43;-0.28;1.11;0.00;-230.00;-106.36;-120.90;0.98;96.25;11.00;-54.17 
7.360;-0.05;-0.84;0.38;-0.56;0.14;0.49;-233.00;-104.44;-122.90;0.92;96.38;10.96;-54.23 
7.390;-0.04;-0.87;0.42;-0.56;0.21;0.21;-232.00;-103.48;-123.90;0.97;96.50;10.94;-54.27 
7.421;-0.04;-0.86;0.41;-0.49;0.35;-0.42;-229.00;-104.44;-122.90;0.95;96.64;10.92;-54.31 
7.451;-0.05;-0.86;0.42;-0.56;0.07;0.42;-231.00;-102.52;-120.90;0.96;96.77;10.90;-54.36 
7.480;-0.05;-0.87;0.39;-0.35;-0.07;0.49;-230.00;-107.31;-120.90;0.95;96.88;10.88;-54.39 
7.509;-0.03;-0.87;0.44;-0.35;0.63;0.00;-232.00;-105.40;-124.90;0.98;97.00;10.85;-54.43 
7.539;-0.04;-0.90;0.42;0.00;1.18;0.00;-232.00;-104.44;-125.90;0.99;97.16;10.81;-54.47 
7.569;-0.05;-0.85;0.44;-0.28;0.42;0.28;-229.00;-103.48;-120.90;0.96;97.32;10.75;-54.48 
7.599;-0.04;-0.86;0.42;-0.97;1.18;0.35;-230.00;-105.40;-119.90;0.96;97.46;10.72;-54.53 
7.630;-0.05;-0.86;0.44;-1.11;0.35;0.21;-234.00;-103.48;-124.90;0.97;97.61;10.67;-54.61 
7.660;-0.04;-0.87;0.47;-0.83;-0.28;0.07;-231.00;-102.52;-119.90;0.99;97.76;10.66;-54.67 
7.690;-0.06;-0.86;0.42;-1.04;-1.88;0.35;-236.00;-103.48;-121.90;0.96;97.81;10.63;-54.74 
7.721;-0.05;-0.87;0.43;-0.42;-0.63;-0.14;-234.00;-103.48;-123.90;0.97;97.86;10.63;-54.79 
7.750;-0.05;-0.86;0.43;0.07;0.28;-0.63;-235.00;-104.44;-123.90;0.96;97.97;10.62;-54.82 
7.780;-0.04;-0.88;0.41;0.56;0.83;-1.04;-237.00;-103.48;-125.90;0.97;98.12;10.61;-54.83 
7.810;-0.04;-0.86;0.44;0.56;1.25;-0.70;-236.00;-101.57;-125.90;0.97;98.31;10.58;-54.82 
7.840;-0.06;-0.88;0.45;0.49;2.16;-0.42;-233.00;-102.52;-126.90;0.99;98.53;10.54;-54.83 
7.870;-0.06;-0.85;0.46;-0.63;-0.07;0.14;-231.00;-103.48;-127.89;0.97;98.70;10.50;-54.85 
7.900;-0.04;-0.86;0.42;-1.46;-0.28;0.21;-229.00;-100.61;-123.90;0.96;98.81;10.46;-54.91 
7.931;-0.05;-0.86;0.43;-1.11;-0.35;0.35;-235.00;-100.61;-124.90;0.96;98.93;10.43;-54.97 
7.961;-0.06;-0.86;0.42;-1.11;-0.83;-0.28;-232.00;-101.57;-124.90;0.96;99.02;10.40;-55.06 
7.991;-0.06;-0.85;0.41;-0.35;-0.28;0.07;-235.00;-103.48;-127.89;0.95;99.12;10.40;-55.12 
8.021;-0.06;-0.85;0.41;0.00;0.90;-0.28;-238.00;-99.65;-122.90;0.95;99.26;10.36;-55.15 
8.050;-0.04;-0.88;0.42;0.14;0.97;0.00;-237.00;-101.57;-125.90;0.98;99.42;10.34;-55.17 
8.079;-0.05;-0.87;0.41;0.70;1.11;0.00;-234.00;-102.52;-124.90;0.96;99.57;10.31;-55.17 
8.109;-0.05;-0.84;0.44;-0.63;1.32;-0.07;-239.00;-101.57;-127.89;0.95;99.76;10.27;-55.19 
8.139;-0.04;-0.88;0.41;-1.60;-0.07;0.21;-235.00;-100.61;-123.90;0.97;99.91;10.22;-55.25 
8.169;-0.06;-0.88;0.41;-1.32;-0.56;0.21;-232.00;-98.69;-127.89;0.97;100.00;10.18;-55.32 
8.199;-0.06;-0.89;0.42;-0.77;-1.25;-0.07;-233.00;-104.44;-123.90;0.99;100.10;10.16;-55.37 
8.230;-0.03;-0.86;0.44;-0.42;-0.77;0.21;-236.00;-104.44;-126.90;0.97;100.18;10.16;-55.40 
8.260;-0.05;-0.88;0.40;-0.14;0.00;-0.21;-236.00;-102.52;-124.90;0.97;100.27;10.15;-55.44 
8.290;-0.02;-0.88;0.41;0.70;0.90;-1.04;-235.00;-104.44;-127.89;0.97;100.45;10.15;-55.46 
8.320;-0.02;-0.88;0.43;0.70;1.18;-0.63;-236.00;-103.48;-123.90;0.98;100.63;10.13;-55.45 
8.350;0.00;-0.87;0.42;0.14;1.67;-0.14;-237.00;-103.48;-124.90;0.97;100.84;10.11;-55.43 
8.380;-0.05;-0.86;0.43;-0.42;0.07;0.14;-237.00;-106.36;-124.90;0.96;101.01;10.07;-55.43 
8.410;-0.05;-0.86;0.43;-0.56;-0.14;0.42;-237.00;-103.48;-127.89;0.96;101.16;10.05;-55.46 
8.441;-0.02;-0.85;0.46;-0.70;-0.63;0.00;-237.00;-103.48;-124.90;0.97;101.28;10.02;-55.50 
8.471;-0.06;-0.86;0.42;-0.35;0.35;0.49;-237.00;-104.44;-126.90;0.96;101.41;10.00;-55.53 
8.500;-0.06;-0.86;0.42;-0.90;-0.07;0.21;-234.00;-104.44;-124.90;0.96;101.54;9.96;-55.57 
8.530;-0.06;-0.86;0.42;-0.35;1.39;0.56;-235.00;-101.57;-124.90;0.96;101.70;9.93;-55.60 
8.559;-0.04;-0.86;0.46;-0.28;0.63;0.35;-233.00;-102.52;-124.90;0.98;101.87;9.87;-55.62 
8.589;-0.05;-0.86;0.42;-0.28;0.63;-0.35;-237.00;-100.61;-122.90;0.96;102.00;9.83;-55.65 
8.619;-0.06;-0.90;0.44;0.63;0.28;-0.14;-238.00;-101.57;-122.90;1.00;102.19;9.79;-55.65 
8.649;-0.06;-0.87;0.40;-0.21;0.83;0.49;-236.00;-101.57;-121.90;0.96;102.35;9.75;-55.67 
8.679;-0.06;-0.86;0.44;-0.56;0.90;0.07;-236.00;-100.61;-124.90;0.97;102.51;9.72;-55.68 
8.709;-0.05;-0.87;0.40;-0.56;0.21;0.49;-236.00;-100.61;-124.90;0.96;102.67;9.67;-55.71 
8.740;-0.05;-0.86;0.41;-0.35;-0.07;0.90;-236.00;-99.65;-128.89;0.95;102.79;9.65;-55.74 
8.770;-0.05;-0.86;0.42;0.07;-0.63;0.21;-236.00;-98.69;-122.90;0.96;102.90;9.61;-55.76 
8.800;-0.03;-0.88;0.41;-0.21;0.70;-0.35;-238.00;-103.48;-125.90;0.97;103.04;9.60;-55.77 
8.829;-0.04;-0.87;0.42;-0.07;0.07;0.07;-236.00;-103.48;-122.90;0.97;103.20;9.57;-55.78 
8.858;-0.03;-0.88;0.42;0.49;1.74;0.00;-238.00;-104.44;-124.90;0.98;103.34;9.53;-55.79 
8.888;-0.04;-0.87;0.41;0.28;1.81;-0.28;-237.00;-102.52;-124.90;0.96;103.56;9.50;-55.76 
8.918;-0.04;-0.86;0.45;-0.70;0.70;-0.07;-238.00;-102.52;-120.90;0.97;103.77;9.45;-55.77 
8.948;-0.05;-0.87;0.42;-0.70;-1.04;-0.07;-236.00;-102.52;-124.90;0.97;103.90;9.46;-55.78 
8.978;-0.02;-0.88;0.42;-0.28;-0.42;-0.21;-238.00;-101.57;-124.90;0.98;104.03;9.47;-55.84 
9.008;-0.03;-0.88;0.39;-0.28;0.00;-0.49;-236.00;-103.48;-124.90;0.96;104.17;9.48;-55.86 
9.039;-0.06;-0.85;0.43;-0.56;0.14;-0.21;-236.00;-102.52;-123.90;0.95;104.31;9.48;-55.87 
9.069;-0.05;-0.87;0.42;-0.07;0.21;-0.07;-236.00;-103.48;-126.90;0.97;104.45;9.46;-55.94 
9.098;-0.05;-0.88;0.41;0.83;1.81;-0.42;-237.00;-101.57;-122.90;0.97;104.63;9.43;-55.92 
9.127;-0.04;-0.86;0.45;-0.14;0.77;-0.28;-236.00;-103.48;-124.90;0.97;104.84;9.39;-55.89 
9.156;-0.05;-0.85;0.42;-0.07;0.90;0.28;-236.00;-104.44;-126.90;0.95;105.00;9.39;-55.92 
9.186;-0.04;-0.88;0.42;0.49;1.04;-0.14;-240.00;-104.44;-120.90;0.98;105.17;9.35;-55.92 
9.216;-0.02;-0.87;0.38;-0.63;0.70;0.35;-237.00;-100.61;-124.90;0.95;105.32;9.33;-55.94 
9.246;-0.04;-0.89;0.46;-0.77;0.97;0.21;-237.00;-103.48;-125.90;1.00;105.53;9.29;-55.95 
9.276;-0.09;-0.86;0.42;-0.63;-0.14;-0.28;-232.00;-100.61;-124.90;0.96;105.68;9.28;-55.97 
9.306;-0.06;-0.84;0.42;-0.07;0.28;-0.28;-232.00;-102.52;-125.90;0.94;105.85;9.28;-55.95 
9.337;-0.03;-0.86;0.41;-0.49;0.14;-0.21;-233.00;-101.57;-128.89;0.95;106.02;9.29;-55.93 
9.367;-0.04;-0.86;0.42;-1.18;-0.49;-0.28;-231.00;-104.44;-126.90;0.96;106.16;9.30;-55.92 
9.397;-0.03;-0.86;0.41;-0.63;1.39;-0.70;-229.00;-105.40;-126.90;0.95;106.36;9.28;-55.93 
9.428;-0.04;-0.86;0.41;-0.35;-0.28;-0.35;-230.00;-105.40;-125.90;0.95;106.56;9.28;-55.91 
9.457;-0.02;-0.87;0.44;-0.07;0.35;-0.63;-230.00;-107.31;-128.89;0.98;106.72;9.28;-55.90 
9.487;-0.05;-0.86;0.41;0.56;0.77;-0.07;-228.00;-108.27;-128.89;0.95;106.91;9.28;-55.88 
9.517;-0.06;-0.88;0.42;0.56;0.35;-0.14;-230.00;-107.31;-127.89;0.98;107.09;9.27;-55.84 
9.547;-0.09;-0.88;0.36;0.21;0.70;0.14;-229.00;-107.31;-129.89;0.96;107.25;9.25;-55.79 
9.577;-0.06;-0.85;0.39;0.42;0.77;-0.14;-230.00;-106.36;-128.89;0.94;107.43;9.23;-55.76 
9.607;-0.04;-0.85;0.42;0.14;1.67;-0.49;-228.00;-104.44;-125.90;0.95;107.64;9.21;-55.72 
9.638;-0.05;-0.86;0.40;0.00;0.90;0.56;-232.00;-105.40;-128.89;0.95;107.85;9.20;-55.69 
9.668;-0.02;-0.86;0.44;0.00;0.77;0.14;-228.00;-108.27;-130.89;0.97;108.04;9.23;-55.66 
9.698;-0.06;-0.89;0.42;-0.56;-0.14;0.49;-230.00;-107.31;-128.89;0.99;108.22;9.20;-55.63 
9.728;-0.06;-0.86;0.42;-0.35;0.21;0.77;-231.00;-106.36;-127.89;0.96;108.38;9.20;-55.65 
9.758;-0.05;-0.86;0.42;0.28;0.70;0.14;-230.00;-106.36;-129.89;0.96;108.54;9.18;-55.63 
9.788;-0.04;-0.84;0.41;-0.42;1.04;0.63;-230.00;-106.36;-129.89;0.94;108.71;9.16;-55.62 
9.818;-0.06;-0.86;0.42;-0.14;1.04;0.21;-229.00;-107.31;-130.89;0.96;108.91;9.14;-55.57 
9.849;-0.03;-0.88;0.40;-0.35;0.00;0.70;-231.00;-108.27;-127.89;0.97;109.08;9.11;-55.55 
9.879;-0.06;-0.86;0.42;0.21;0.42;0.07;-227.00;-107.31;-128.89;0.96;109.26;9.08;-55.56 
9.909;-0.06;-0.86;0.42;-0.28;-0.42;-0.14;-230.00;-105.40;-127.89;0.96;109.41;9.07;-55.53 
9.940;-0.05;-0.86;0.39;0.21;0.00;-0.14;-230.00;-109.23;-132.89;0.95;109.56;9.07;-55.49 
9.970;-0.04;-0.86;0.42;0.14;0.56;-0.28;-226.00;-106.36;-130.89;0.96;109.73;9.06;-55.47 
10.000;-0.06;-0.86;0.40;0.56;1.88;-0.77;-231.00;-108.27;-130.89;0.95;109.94;9.04;-55.43 
10.030;-0.05;-0.86;0.44;-0.07;0.49;0.00;-228.00;-107.31;-130.89;0.97;110.18;9.03;-55.39 
10.061;-0.06;-0.86;0.41;-0.63;0.56;-0.49;-228.00;-107.31;-128.89;0.95;110.39;9.02;-55.38 
10.090;-0.05;-0.86;0.43;-0.56;-0.21;-0.07;-231.00;-105.40;-129.89;0.96;110.57;9.03;-55.37 
10.119;-0.02;-0.89;0.42;-0.42;-0.07;0.56;-231.00;-106.36;-131.89;0.98;110.71;9.02;-55.37 
10.150;-0.02;-0.87;0.42;-0.35;0.14;0.00;-228.00;-107.31;-129.89;0.97;110.88;9.02;-55.36 
10.180;-0.06;-0.86;0.40;0.07;0.56;-0.07;-226.00;-105.40;-125.90;0.95;111.05;9.00;-55.32 
10.210;-0.06;-0.87;0.42;0.21;0.97;0.00;-228.00;-107.31;-129.89;0.97;111.25;8.98;-55.32 
10.240;-0.04;-0.86;0.40;-0.07;1.25;-0.14;-227.00;-106.36;-128.89;0.95;111.44;8.96;-55.30 
10.270;-0.02;-0.89;0.42;0.00;0.35;-0.28;-231.00;-105.40;-129.89;0.98;111.64;8.96;-55.29 
10.299;-0.05;-0.86;0.42;0.56;0.28;0.07;-228.00;-108.27;-127.89;0.96;111.82;8.92;-55.28 
10.329;-0.05;-0.86;0.42;-0.21;1.46;0.21;-229.00;-106.36;-127.89;0.96;112.01;8.88;-55.24 
10.360;-0.02;-0.89;0.44;-1.04;0.83;0.14;-228.00;-108.27;-129.89;0.99;112.23;8.83;-55.26 
10.390;-0.03;-0.88;0.40;-0.77;0.14;-0.21;-228.00;-107.31;-129.89;0.97;112.42;8.82;-55.26 
10.420;-0.02;-0.87;0.46;-0.42;0.21;0.49;-226.00;-107.31;-126.90;0.98;112.60;8.81;-55.28 
10.451;-0.06;-0.87;0.42;-0.42;-0.35;0.42;-229.00;-107.31;-128.89;0.97;112.75;8.78;-55.29 
10.481;-0.06;-0.85;0.42;-0.63;-0.21;0.56;-229.00;-103.48;-127.89;0.95;112.92;8.77;-55.28 
10.510;-0.04;-0.86;0.43;-0.49;0.49;-0.14;-231.00;-104.44;-130.89;0.96;113.07;8.75;-55.30 
10.539;-0.04;-0.86;0.46;-0.21;1.81;-0.28;-228.00;-107.31;-128.89;0.98;113.27;8.74;-55.27 
10.569;-0.05;-0.86;0.46;-0.70;0.63;0.21;-230.00;-105.40;-128.89;0.98;113.48;8.72;-55.27 
10.599;-0.04;-0.86;0.44;-1.32;0.35;-0.21;-231.00;-107.31;-126.90;0.97;113.66;8.69;-55.28 
10.629;-0.05;-0.86;0.44;-1.74;-0.90;-0.07;-229.00;-104.44;-128.89;0.97;113.84;8.69;-55.32 
10.660;-0.04;-0.78;0.41;-1.04;-0.49;0.14;-228.00;-108.27;-125.90;0.88;114.01;8.67;-55.38 
10.690;-0.03;-0.86;0.43;-1.11;-1.04;0.35;-231.00;-105.40;-127.89;0.96;114.16;8.67;-55.39 
10.720;-0.05;-0.86;0.42;-0.70;-0.42;-0.21;-228.00;-104.44;-128.89;0.96;114.31;8.68;-55.42 
10.750;-0.04;-0.89;0.41;-0.49;-1.11;-0.14;-231.00;-109.23;-129.89;0.98;114.47;8.68;-55.42 
10.780;-0.08;-0.89;0.45;0.28;-2.16;-0.07;-229.00;-108.27;-127.89;1.00;114.57;8.68;-55.40 
10.810;-0.06;-0.89;0.46;0.49;-3.27;-1.53;-230.00;-107.31;-130.89;1.00;114.65;8.72;-55.35 
10.840;-0.03;-0.90;0.41;-1.18;-5.29;-2.37;-230.00;-108.27;-127.89;0.99;114.71;8.83;-55.34 
10.871;-0.04;-0.86;0.46;-4.24;-12.52;-2.37;-230.00;-106.36;-129.89;0.98;114.67;9.00;-55.37 
10.901;-0.07;-0.87;0.43;-8.14;-20.38;-5.22;-231.00;-110.19;-132.89;0.97;114.33;9.35;-55.47 
10.931;-0.04;-0.82;0.44;-8.07;-17.74;-5.15;-233.00;-111.15;-132.89;0.93;114.02;9.80;-55.63 
10.962;0.01;-0.82;0.48;-9.67;-20.38;1.04;-232.00;-115.94;-134.89;0.95;113.67;10.15;-55.79 
10.992;0.00;-0.82;0.39;-17.39;-32.42;9.67;-235.00;-115.94;-129.89;0.91;112.75;10.57;-56.10 
11.021;-0.03;-0.89;0.35;-5.77;-19.41;-0.56;-234.00;-114.98;-135.89;0.96;111.73;10.88;-56.48 
11.051;0.01;-0.90;0.34;-2.09;-6.82;-5.08;-233.00;-120.73;-136.89;0.96;111.50;11.22;-56.42 
11.081;0.05;-0.90;0.37;-0.90;-5.63;0.28;-236.00;-120.73;-137.89;0.97;111.42;11.52;-56.35 
11.111;0.02;-0.86;0.33;-1.60;-7.58;2.37;-238.00;-121.69;-136.89;0.92;111.32;11.63;-56.36 
11.141;-0.02;-0.87;0.36;-0.42;-6.68;2.30;-238.00;-119.77;-139.89;0.94;111.11;11.69;-56.38 
11.172;-0.02;-0.90;0.37;0.21;-2.30;-0.83;-236.00;-119.77;-140.88;0.97;111.05;11.91;-56.18 
11.202;0.00;-0.90;0.36;0.90;0.28;-2.16;-235.00;-119.77;-138.89;0.97;111.21;12.08;-55.98 
11.232;0.00;-0.86;0.40;1.67;0.14;-0.56;-237.00;-121.69;-139.89;0.95;111.41;12.11;-55.91 
11.261;0.00;-0.89;0.38;1.88;-0.77;-1.04;-236.00;-123.60;-138.89;0.97;111.57;12.13;-55.82 
11.290;0.00;-0.92;0.42;0.83;-0.49;-2.92;-240.00;-119.77;-138.89;1.01;111.73;12.13;-55.75 
11.319;-0.02;-0.86;0.44;-0.28;-0.56;-4.52;-236.00;-122.64;-141.88;0.97;111.90;12.36;-55.53 
11.349;0.02;-0.89;0.42;-0.56;-2.16;-6.89;-238.00;-125.52;-143.88;0.98;112.12;12.55;-55.42 
11.379;0.02;-0.87;0.41;-0.21;-2.50;-4.80;-236.00;-123.60;-140.88;0.96;112.37;12.74;-55.32 
11.409;0.04;-0.87;0.38;-1.67;-3.41;-4.17;-238.00;-125.52;-139.89;0.95;112.56;12.88;-55.26 
11.439;0.02;-0.88;0.38;-1.11;-3.13;-3.41;-243.00;-127.44;-144.88;0.96;112.72;13.02;-55.24 
11.469;0.06;-0.90;0.30;0.42;-3.41;-4.94;-243.00;-126.48;-146.88;0.95;112.87;13.15;-55.20 
11.498;0.02;-0.88;0.39;2.50;1.88;-5.91;-239.00;-131.27;-143.88;0.96;113.16;13.24;-55.10 
11.527;0.02;-0.89;0.38;-0.07;-0.49;-4.10;-241.00;-129.35;-143.88;0.97;113.51;13.35;-54.97 
11.557;0.03;-0.88;0.38;0.21;-1.88;-3.20;-242.00;-130.31;-144.88;0.96;113.72;13.44;-54.93 
11.586;0.04;-0.90;0.40;0.56;-0.28;-3.20;-244.00;-131.27;-145.88;0.99;113.98;13.50;-54.88 
11.616;0.02;-0.90;0.39;0.42;-2.30;-3.20;-242.00;-132.23;-144.88;0.98;114.17;13.58;-54.82 
11.646;0.06;-0.93;0.43;1.32;0.42;-2.50;-243.00;-131.27;-142.88;1.03;114.39;13.63;-54.76 
11.676;0.03;-0.93;0.41;1.67;-0.28;0.28;-246.00;-133.18;-145.88;1.02;114.57;13.63;-54.71 
