Time(s) acc_x(g) acc_y(g) acc_z(g) gyr_x(°/s) gyr_y(°/s) gyr_z(°/s) mag_x(G) mag_y(G) mag_z(G) SVM(g) yaw(°) pitch(°) roll(°)
0.000;-0.34;0.26;0.82;-1.60;2.57;9.11;-43.56;-89.78;-414.00;0.92;128.91;-11.81;15.04 
0.030;-0.29;0.11;0.86;-2.30;1.32;5.98;-43.56;-91.69;-418.00;0.91;128.73;-11.87;15.09 
0.059;-0.30;0.11;0.89;-7.03;-2.64;2.92;-44.55;-89.78;-411.00;0.95;128.66;-11.90;14.96 
0.089;-0.29;0.16;0.79;-7.17;-2.02;3.55;-41.58;-92.64;-413.00;0.86;128.61;-11.85;14.75 
0.119;-0.25;0.18;0.82;-4.10;2.57;2.99;-44.55;-87.87;-417.00;0.88;128.56;-11.85;14.63 
0.149;-0.26;0.19;0.87;-1.74;2.71;2.78;-45.54;-91.69;-412.00;0.93;128.52;-11.92;14.59 
0.180;-0.26;0.19;0.93;-0.90;-4.24;2.30;-45.54;-86.91;-410.00;0.98;128.53;-11.87;14.59 
0.210;-0.26;0.19;0.83;-0.83;-5.84;2.30;-47.52;-90.73;-412.00;0.89;128.59;-11.72;14.59 
0.240;-0.26;0.21;0.83;-2.23;-2.57;3.20;-46.53;-93.60;-413.00;0.89;128.62;-11.59;14.62 
0.270;-0.26;0.18;0.82;-3.76;-0.63;5.98;-49.50;-90.73;-414.00;0.88;128.58;-11.53;14.63 
0.300;-0.26;0.18;0.89;-3.97;0.90;7.03;-46.53;-92.64;-410.00;0.94;128.44;-11.48;14.58 
0.330;-0.30;0.18;0.82;-2.43;1.39;7.37;-47.52;-90.73;-408.00;0.89;128.29;-11.48;14.55 
0.359;-0.28;0.20;0.88;-2.09;-0.14;7.10;-51.48;-87.87;-410.00;0.94;128.14;-11.48;14.55 
0.390;-0.25;0.18;0.86;-2.57;-2.02;8.28;-49.50;-87.87;-413.00;0.91;127.99;-11.39;14.56 
0.420;-0.26;0.14;0.84;-2.99;-2.30;9.11;-48.51;-91.69;-410.00;0.89;127.81;-11.28;14.57 
0.450;-0.26;0.15;0.83;-3.27;-1.67;10.64;-50.49;-89.78;-409.00;0.88;127.59;-11.15;14.57 
0.481;-0.26;0.17;0.84;-2.92;-0.70;12.17;-49.50;-90.73;-410.00;0.90;127.32;-11.05;14.56 
0.511;-0.26;0.22;0.85;-3.97;1.25;12.59;-49.50;-85.00;-409.00;0.92;127.02;-10.98;14.57 
0.541;-0.26;0.20;0.84;-4.94;1.11;16.07;-50.49;-86.91;-411.00;0.90;126.64;-10.92;14.56 
0.571;-0.26;0.20;0.86;-5.91;1.60;18.50;-53.46;-85.00;-406.00;0.92;126.18;-10.86;14.54 
0.601;-0.24;0.20;0.85;-6.12;1.81;21.36;-49.50;-81.18;-410.00;0.91;125.61;-10.78;14.52 
0.631;-0.27;0.22;0.84;-6.19;1.46;24.63;-51.48;-82.14;-401.00;0.91;124.98;-10.68;14.52 
0.661;-0.27;0.21;0.85;-6.54;2.50;27.13;-50.49;-80.23;-407.00;0.92;124.26;-10.58;14.54 
0.692;-0.26;0.22;0.81;-7.44;2.99;29.70;-48.51;-79.27;-407.00;0.88;123.42;-10.46;14.53 
0.721;-0.26;0.16;0.82;-8.07;3.34;33.04;-48.51;-69.72;-405.00;0.87;122.49;-10.34;14.54 
0.750;-0.27;0.18;0.82;-9.60;4.66;36.03;-49.50;-69.72;-400.00;0.88;121.52;-10.24;14.51 
0.779;-0.27;0.18;0.81;-10.92;5.84;38.96;-49.50;-63.99;-405.00;0.87;120.45;-10.16;14.46 
0.808;-0.30;0.19;0.83;-11.62;6.19;43.41;-49.50;-63.99;-404.00;0.90;119.22;-10.07;14.42 
0.837;-0.28;0.21;0.78;-13.22;7.72;46.61;-54.45;-59.21;-402.00;0.85;117.93;-9.98;14.35 
0.866;-0.30;0.22;0.82;-15.51;9.18;51.06;-49.50;-53.48;-406.00;0.90;116.50;-9.94;14.25 
0.895;-0.30;0.26;0.78;-18.23;11.83;56.14;-52.47;-42.98;-398.00;0.88;114.86;-9.91;14.09 
0.924;-0.30;0.22;0.77;-22.05;16.14;62.82;-48.51;-39.16;-399.00;0.86;113.07;-9.96;13.91 
0.953;-0.33;0.20;0.77;-24.42;15.79;67.27;-52.47;-31.52;-393.00;0.86;111.07;-10.05;13.66 
0.983;-0.38;0.18;0.76;-31.17;15.10;78.96;-48.51;-23.88;-392.00;0.87;108.80;-10.11;13.31 
1.013;-0.38;0.14;0.72;-40.70;17.67;82.50;-53.46;-13.37;-390.00;0.83;106.23;-10.20;12.72 
1.043;-0.34;0.16;0.70;-45.57;16.35;88.07;-51.48;0.00;-380.00;0.79;103.55;-10.35;11.96 
1.074;-0.36;0.06;0.70;-46.82;19.34;91.48;-51.48;11.46;-378.00;0.79;100.68;-10.44;11.10 
1.104;-0.30;-0.04;0.88;-53.43;30.12;93.84;-52.47;19.10;-371.00;0.93;97.71;-10.78;10.01 
1.134;-0.34;0.06;0.98;-60.31;20.45;98.57;-52.47;32.47;-362.00;1.04;94.76;-11.17;8.79 
1.165;-0.30;0.38;0.83;-56.42;5.36;107.48;-48.51;44.89;-357.00;0.96;91.61;-11.19;7.70 
1.195;-0.29;0.26;0.65;-38.61;5.29;116.73;-45.54;59.21;-354.00;0.76;88.09;-10.94;7.17 
1.225;-0.24;0.06;0.48;-22.12;3.27;108.94;-41.58;67.81;-350.00;0.54;84.72;-10.79;7.04 
1.255;-0.31;-0.07;0.45;-18.02;-0.14;97.53;-30.69;72.59;-348.00;0.55;81.73;-10.63;6.96 
1.286;-0.30;-0.11;0.51;-37.01;31.37;83.62;-19.80;85.96;-344.00;0.60;79.01;-11.09;6.58 
1.316;0.00;0.03;0.59;-37.57;29.43;56.49;-15.84;91.69;-341.00;0.59;76.92;-11.87;5.70 
1.346;-0.34;0.17;0.71;-31.44;13.15;48.07;-11.88;100.28;-336.00;0.81;75.26;-12.50;5.12 
1.377;-0.36;0.05;0.74;-27.06;-0.70;44.38;-9.90;107.92;-333.00;0.82;73.89;-12.72;4.72 
1.407;-0.32;-0.09;0.83;-29.08;6.89;21.01;-8.91;109.83;-326.00;0.89;72.83;-13.03;4.10 
1.437;-0.38;-0.03;0.85;-29.91;-22.26;4.73;-12.87;111.74;-323.00;0.93;72.54;-13.03;3.28 
1.467;-0.24;0.02;0.70;-26.78;-41.46;-9.25;-18.81;107.92;-328.00;0.74;72.57;-12.32;2.40 
1.496;-0.26;0.16;0.69;-26.16;-43.83;-4.66;-21.78;103.15;-329.00;0.75;72.83;-11.14;1.69 
1.525;-0.37;0.22;0.69;-25.74;-48.63;-2.71;-27.72;92.64;-335.00;0.81;72.85;-10.11;1.15 
1.554;-0.32;0.36;0.58;-30.54;-38.05;8.83;-33.66;86.91;-335.00;0.75;72.78;-9.11;0.72 
1.585;-0.26;0.25;0.70;-37.91;-13.15;19.83;-35.64;85.96;-337.00;0.79;72.25;-8.56;0.23 
1.615;-0.25;0.11;0.90;-54.75;-22.40;9.04;-40.59;87.87;-335.00;0.94;71.74;-8.27;-0.81 
1.645;-0.35;0.18;0.81;-68.87;-46.26;8.63;-51.48;83.09;-330.00;0.90;71.41;-7.50;-2.38 
1.676;-0.28;0.08;0.65;-66.16;-51.76;4.03;-58.41;75.45;-335.00;0.71;71.01;-6.27;-4.11 
1.706;-0.25;-0.08;0.78;-72.35;-35.90;-15.17;-74.25;68.77;-327.00;0.82;70.86;-5.33;-6.07 
1.736;-0.28;0.09;0.81;-85.50;-36.94;-11.20;-81.18;65.90;-322.00;0.86;71.12;-4.41;-8.17 
1.766;-0.27;-0.12;1.01;-95.37;-53.29;-3.83;-100.98;57.30;-319.00;1.05;71.06;-3.40;-10.60 
1.796;-0.44;-0.35;1.24;-94.96;-105.04;-15.93;-121.77;49.66;-311.00;1.36;70.66;-1.34;-13.51 
1.826;-0.12;-0.50;1.43;-80.70;-163.97;-37.29;-137.61;32.47;-313.00;1.52;70.28;2.30;-16.14 
1.856;-0.36;-0.31;0.98;-80.70;-208.07;-58.57;-156.42;0.96;-317.00;1.09;70.06;7.82;-18.30 
1.887;-0.07;0.13;0.45;-103.86;-167.03;-66.50;-184.14;-51.57;-316.00;0.47;70.40;13.64;-20.29 
1.917;0.41;-1.59;1.48;-109.98;-70.75;-105.60;-203.94;-74.50;-309.00;2.21;71.43;17.77;-22.77 
1.947;1.34;-3.73;2.90;-85.98;-256.90;-192.35;-222.75;-106.97;-299.00;4.91;74.48;22.59;-24.05 
1.977;0.78;0.26;0.89;-173.63;-338.99;-60.52;-247.50;-162.36;-279.00;1.21;76.35;30.62;-25.92 
2.007;-0.14;0.06;0.06;-165.98;-101.15;7.58;-281.16;-209.16;-221.00;0.16;73.33;36.66;-29.78 
2.037;0.38;-0.51;0.77;-185.95;-134.19;-16.70;-304.93;-219.67;-186.00;1.00;71.48;38.97;-33.10 
2.067;0.74;0.02;0.54;-189.98;-275.27;9.81;-320.77;-236.86;-144.00;0.92;67.44;42.90;-36.11 
2.097;0.93;0.05;-0.62;-178.43;-337.60;40.14;-331.66;-248.32;-97.00;1.12;60.08;47.45;-38.62 
2.127;0.96;-0.59;-1.79;-203.83;-266.57;87.72;-338.59;-248.32;-46.00;2.12;51.23;48.87;-40.94 
2.157;0.57;-1.55;-1.71;-151.23;-85.70;85.36;-342.55;-221.58;25.00;2.38;42.65;45.38;-44.22 
2.188;0.85;-1.08;-1.49;-4.31;62.54;30.96;-340.57;-209.16;42.00;2.03;39.06;43.63;-45.31 
2.218;0.42;-0.53;-0.34;3.83;151.58;58.09;-346.51;-205.34;48.00;0.76;38.87;42.66;-46.76 
2.248;0.53;-0.25;0.45;-13.84;40.70;44.31;-342.55;-195.79;41.00;0.74;39.26;41.59;-48.23 
2.278;0.33;-0.13;0.00;-8.83;-82.57;48.90;-342.55;-184.33;45.00;0.35;38.13;40.52;-49.29 
2.308;0.22;-0.39;-0.52;12.24;-103.72;50.43;-343.54;-170.96;47.00;0.69;35.18;38.83;-50.65 
2.338;0.38;-0.82;-1.21;25.88;-70.54;34.23;-343.54;-159.50;39.00;1.51;32.64;36.96;-52.10 
2.368;0.34;-1.09;-1.01;26.43;44.87;4.66;-345.52;-149.95;37.00;1.52;31.83;36.02;-53.02 
2.398;0.46;-0.84;-0.38;18.71;57.18;-8.35;-347.50;-153.77;30.00;1.03;32.62;36.21;-53.14 
2.427;0.72;-0.90;-0.22;33.39;6.68;1.67;-344.53;-152.81;24.00;1.17;33.52;36.44;-53.15 
2.456;0.75;-0.89;-0.42;40.70;-26.30;28.03;-344.53;-153.77;19.00;1.24;33.69;36.07;-53.63 
2.486;0.66;-1.01;-0.67;36.17;-27.83;28.87;-345.52;-148.99;10.00;1.38;33.10;35.20;-54.54 
2.516;0.56;-0.83;-0.69;51.27;4.45;32.42;-345.52;-144.22;4.00;1.22;32.54;34.23;-55.59 
2.546;0.46;-0.73;-0.47;67.48;40.56;43.55;-346.51;-131.80;-15.00;0.98;32.34;33.13;-56.82 
2.576;0.54;-0.82;-0.25;72.28;53.08;43.55;-337.60;-125.11;-28.00;1.01;32.40;31.84;-58.14 
2.606;0.54;-0.94;-0.08;67.13;55.23;45.29;-337.60;-116.52;-41.00;1.09;32.73;30.53;-59.23 
2.636;0.42;-0.97;-0.02;68.52;65.95;53.84;-334.63;-104.10;-53.00;1.06;32.80;28.83;-60.39 
2.666;0.24;-0.90;0.11;84.87;54.89;38.40;-327.70;-87.87;-76.00;0.94;33.29;27.20;-61.01 
2.697;0.18;-0.96;0.11;75.69;44.10;30.61;-323.74;-83.09;-88.00;0.98;33.73;25.68;-61.20 
2.727;0.34;-1.42;0.26;57.74;37.91;14.68;-319.78;-76.41;-97.00;1.48;34.34;24.40;-60.94 
2.757;0.23;-1.22;0.24;40.90;26.99;3.13;-317.80;-73.54;-107.00;1.26;34.95;23.65;-60.47 
2.787;0.38;-0.75;0.41;38.40;44.52;-3.13;-312.85;-73.54;-117.00;0.94;35.90;23.25;-59.70 
2.817;0.26;-0.63;0.71;18.99;32.35;13.98;-310.87;-68.77;-125.00;0.98;36.96;22.58;-58.88 
2.847;0.10;-0.94;0.60;-0.42;-33.88;18.92;-307.90;-62.08;-128.00;1.12;36.76;21.93;-58.81 
2.877;0.09;-1.02;0.29;-20.24;-34.09;1.53;-307.90;-63.99;-125.00;1.06;35.81;21.75;-59.31 
2.908;0.26;-1.06;0.18;-27.34;2.23;-28.80;-311.86;-66.86;-126.00;1.11;35.45;22.03;-59.68 
2.938;0.52;-0.90;0.17;-27.13;7.79;-30.05;-313.84;-69.72;-121.00;1.05;36.11;22.92;-59.47 
2.968;0.56;-0.94;0.22;-19.27;-7.79;-17.53;-312.85;-74.50;-111.00;1.12;36.51;23.59;-59.36 
2.999;0.40;-0.83;0.14;-2.43;-30.19;-12.59;-314.83;-77.36;-112.00;0.93;36.68;24.29;-59.12 
3.029;0.42;-0.83;0.02;7.51;-31.58;-9.74;-319.78;-85.00;-113.00;0.93;36.67;24.95;-58.83 
3.059;0.51;-0.88;0.04;3.27;-16.14;-6.33;-315.82;-87.87;-114.00;1.02;36.73;25.46;-58.54 
3.089;0.51;-0.93;0.06;-5.36;-5.57;-1.11;-315.82;-89.78;-119.00;1.06;36.75;25.76;-58.42 
3.120;0.46;-0.98;0.00;-12.52;7.17;0.77;-317.80;-89.78;-113.00;1.08;36.57;25.77;-58.62 
3.149;0.39;-0.88;0.04;-10.71;13.43;-2.92;-318.79;-88.82;-108.00;0.96;36.49;25.68;-58.84 
3.179;0.44;-0.91;0.05;-5.01;9.60;-4.66;-321.76;-88.82;-110.00;1.01;36.58;25.68;-58.90 
3.209;0.42;-0.94;0.08;1.60;3.83;-3.48;-320.77;-91.69;-107.00;1.03;36.69;25.73;-58.87 
3.239;0.44;-0.96;0.07;5.77;-0.42;-1.18;-318.79;-91.69;-107.00;1.06;36.80;25.77;-58.77 
3.269;0.45;-0.92;0.08;7.51;-0.28;1.32;-319.78;-89.78;-112.00;1.03;36.84;25.76;-58.70 
3.299;0.42;-0.90;0.12;6.19;0.90;2.23;-321.76;-89.78;-110.00;1.00;36.86;25.71;-58.64 
3.329;0.42;-0.90;0.14;3.34;2.30;1.25;-316.81;-88.82;-115.00;1.00;36.85;25.59;-58.63 
3.359;0.44;-0.90;0.14;0.42;3.83;0.77;-321.76;-90.73;-113.00;1.01;36.88;25.53;-58.61 
3.389;0.42;-0.91;0.14;-0.56;2.02;0.90;-318.79;-86.91;-112.00;1.01;36.88;25.47;-58.63 
3.420;0.41;-0.92;0.14;-0.14;1.04;0.42;-317.80;-89.78;-110.00;1.02;36.86;25.42;-58.66 
3.450;0.42;-0.92;0.16;-0.49;-1.11;0.70;-318.79;-88.82;-110.00;1.02;36.78;25.36;-58.72 
3.479;0.42;-0.90;0.13;-0.90;-2.64;1.81;-322.75;-87.87;-114.00;1.00;36.67;25.30;-58.80 
3.509;0.43;-0.94;0.14;-1.32;-2.37;2.16;-320.77;-90.73;-109.00;1.04;36.54;25.27;-58.88 
3.539;0.43;-0.94;0.07;-1.74;0.35;1.74;-319.78;-87.87;-110.00;1.04;36.39;25.19;-59.00 
3.569;0.41;-0.92;0.09;-1.39;2.09;0.49;-319.78;-85.96;-109.00;1.01;36.30;25.11;-59.10 
3.599;0.40;-0.92;0.10;-0.14;1.39;0.21;-320.77;-87.87;-113.00;1.01;36.24;25.06;-59.16 
3.629;0.42;-0.94;0.13;0.35;1.39;0.28;-319.78;-87.87;-111.00;1.04;36.20;25.00;-59.20 
3.659;0.42;-0.93;0.11;0.77;1.53;-0.28;-317.80;-85.00;-111.00;1.03;36.16;24.96;-59.24 
3.689;0.41;-0.90;0.07;0.83;2.23;-0.28;-315.82;-85.96;-113.00;0.99;36.16;24.91;-59.25 
3.720;0.41;-0.91;0.13;0.56;2.16;-0.49;-320.77;-85.00;-112.00;1.01;36.16;24.88;-59.26 
3.749;0.42;-0.92;0.11;0.28;0.90;-0.49;-319.78;-87.87;-114.00;1.02;36.15;24.84;-59.27 
3.779;0.43;-0.91;0.17;0.63;-0.07;0.14;-319.78;-86.91;-111.00;1.02;36.13;24.84;-59.28 
3.810;0.43;-0.92;0.14;0.35;0.35;0.70;-318.79;-85.96;-112.00;1.03;36.10;24.83;-59.30 
3.840;0.42;-0.93;0.10;0.14;1.04;0.28;-315.82;-88.82;-112.00;1.03;36.07;24.83;-59.32 
3.870;0.40;-0.91;0.10;-0.28;1.04;-0.14;-314.83;-85.96;-112.00;1.00;36.05;24.81;-59.34 
3.900;0.43;-0.93;0.13;-0.49;0.83;-0.14;-316.81;-86.91;-112.00;1.03;36.02;24.79;-59.37 
3.931;0.42;-0.90;0.11;-0.35;0.42;-0.21;-318.79;-86.91;-110.00;1.00;35.98;24.76;-59.41 
3.961;0.42;-0.93;0.12;-0.56;0.14;0.14;-321.76;-86.91;-109.00;1.03;35.93;24.73;-59.45 
3.990;0.41;-0.92;0.06;-0.49;0.00;0.63;-316.81;-87.87;-113.00;1.01;35.88;24.71;-59.49 
4.021;0.43;-0.94;0.10;-0.35;0.21;0.63;-316.81;-86.91;-109.00;1.04;35.80;24.65;-59.55 
4.051;0.45;-0.93;0.10;-0.14;0.90;0.42;-320.77;-85.96;-111.00;1.04;35.73;24.61;-59.61 
4.081;0.41;-0.93;0.10;0.35;1.53;0.42;-317.80;-85.00;-113.00;1.02;35.70;24.56;-59.64 
4.111;0.41;-0.94;0.12;0.35;1.18;0.00;-320.77;-85.00;-112.00;1.03;35.68;24.52;-59.66 
4.141;0.42;-0.93;0.14;0.00;0.63;0.00;-322.75;-85.96;-110.00;1.03;35.66;24.51;-59.67 
4.171;0.41;-0.94;0.13;0.21;0.28;-0.14;-317.80;-85.00;-111.00;1.03;35.64;24.50;-59.69 
4.200;0.42;-0.93;0.09;0.00;0.77;-0.56;-318.79;-85.00;-112.00;1.02;35.62;24.47;-59.71 
4.231;0.42;-0.93;0.10;-0.35;1.11;-0.07;-321.76;-84.05;-112.00;1.03;35.57;24.45;-59.75 
4.261;0.39;-0.92;0.11;-0.42;0.49;-0.70;-318.79;-88.82;-109.00;1.01;35.56;24.45;-59.77 
4.291;0.42;-0.91;0.10;-0.35;0.28;-0.42;-320.77;-85.96;-112.00;1.01;35.53;24.44;-59.79 
4.322;0.42;-0.93;0.10;-0.35;0.63;-0.07;-319.78;-87.87;-111.00;1.03;35.50;24.43;-59.82 
4.352;0.42;-0.91;0.09;-0.35;0.56;0.00;-318.79;-85.00;-110.00;1.01;35.47;24.41;-59.84 
4.382;0.42;-0.94;0.11;-0.49;0.63;-0.14;-318.79;-87.87;-109.00;1.04;35.43;24.39;-59.87 
4.411;0.43;-0.91;0.12;-0.42;0.83;-0.28;-318.79;-85.96;-111.00;1.01;35.41;24.39;-59.89 
4.440;0.41;-0.90;0.06;-0.56;0.63;0.14;-318.79;-88.82;-114.00;0.99;35.37;24.37;-59.92 
4.470;0.43;-0.93;0.12;-0.49;-0.07;-0.07;-321.76;-86.91;-111.00;1.03;35.32;24.35;-59.96 
4.500;0.42;-0.94;0.12;-0.21;0.07;0.49;-322.75;-87.87;-111.00;1.04;35.26;24.33;-60.01 
4.531;0.42;-0.91;0.10;0.07;0.97;0.07;-317.80;-85.00;-112.00;1.01;35.22;24.31;-60.04 
4.561;0.41;-0.90;0.10;0.70;2.09;0.07;-317.80;-85.96;-111.00;0.99;35.20;24.30;-60.06 
4.591;0.41;-0.94;0.11;0.28;1.11;0.00;-318.79;-84.05;-110.00;1.03;35.19;24.29;-60.06 
4.621;0.42;-0.93;0.11;0.14;0.21;-0.35;-315.82;-85.96;-109.00;1.03;35.18;24.27;-60.07 
4.650;0.42;-0.92;0.12;-0.21;0.28;-0.70;-319.78;-88.82;-111.00;1.02;35.17;24.27;-60.07 
4.680;0.42;-0.91;0.10;-0.07;1.04;-0.97;-318.79;-86.91;-112.00;1.01;35.16;24.28;-60.07 
4.710;0.42;-0.93;0.13;-0.63;0.90;-0.63;-321.76;-86.91;-111.00;1.03;35.15;24.28;-60.09 
4.740;0.42;-0.91;0.12;-0.70;0.56;-0.28;-317.80;-85.96;-112.00;1.01;35.15;24.27;-60.10 
4.770;0.43;-0.91;0.11;-0.56;0.28;-0.49;-316.81;-87.87;-110.00;1.01;35.11;24.26;-60.12 
4.800;0.42;-0.94;0.11;-0.49;0.49;0.00;-319.78;-85.96;-111.00;1.04;35.07;24.25;-60.16 
4.831;0.43;-0.92;0.15;-0.42;0.42;-0.21;-315.82;-87.87;-111.00;1.03;35.05;24.24;-60.17 
4.861;0.42;-0.92;0.14;-0.56;0.70;0.28;-321.76;-87.87;-115.00;1.02;35.02;24.23;-60.19 
4.890;0.42;-0.93;0.11;-0.35;0.63;0.14;-318.79;-84.05;-111.00;1.03;35.01;24.22;-60.20 
4.920;0.43;-0.91;0.10;-0.35;1.04;0.00;-320.77;-89.78;-115.00;1.01;34.99;24.21;-60.22 
4.950;0.44;-0.94;0.11;-0.42;0.56;0.28;-323.74;-87.87;-110.00;1.04;34.95;24.17;-60.25 
4.980;0.42;-0.94;0.09;-0.14;0.42;-0.07;-318.79;-85.96;-111.00;1.03;34.90;24.15;-60.30 
5.010;0.42;-0.93;0.11;-0.14;1.32;-0.70;-320.77;-86.91;-110.00;1.03;34.88;24.14;-60.31 
5.041;0.41;-0.94;0.12;-0.35;0.63;-0.21;-319.78;-86.91;-111.00;1.03;34.85;24.11;-60.34 
5.071;0.43;-0.90;0.10;-0.77;-0.70;-0.07;-316.81;-88.82;-110.00;1.00;34.81;24.10;-60.37 
5.101;0.43;-0.93;0.10;-0.49;-0.56;-0.07;-317.80;-88.82;-111.00;1.03;34.76;24.10;-60.40 
5.131;0.42;-0.92;0.10;-0.07;1.18;-0.35;-315.82;-85.00;-107.00;1.02;34.71;24.08;-60.44 
5.160;0.41;-0.92;0.10;-0.21;1.53;-0.70;-318.79;-86.91;-113.00;1.01;34.71;24.07;-60.45 
5.190;0.42;-0.92;0.11;-0.35;0.77;-0.28;-318.79;-86.91;-113.00;1.02;34.71;24.06;-60.45 
5.220;0.42;-0.92;0.10;0.00;0.70;-0.14;-316.81;-90.73;-112.00;1.02;34.70;24.05;-60.46 
5.250;0.42;-0.93;0.10;-0.07;0.56;-0.63;-319.78;-83.09;-113.00;1.03;34.70;24.06;-60.45 
5.280;0.42;-0.91;0.09;0.00;1.18;-0.70;-319.78;-89.78;-110.00;1.01;34.70;24.06;-60.45 
5.310;0.42;-0.91;0.12;-0.28;1.11;-0.63;-319.78;-85.96;-112.00;1.01;34.71;24.07;-60.44 
5.341;0.43;-0.93;0.11;-0.42;1.04;-0.07;-319.78;-89.78;-116.00;1.03;34.69;24.07;-60.46 
5.370;0.42;-0.93;0.11;-0.21;1.53;0.00;-321.76;-84.05;-111.00;1.03;34.66;24.05;-60.50 
5.400;0.42;-0.94;0.14;-0.42;1.25;0.21;-318.79;-85.96;-111.00;1.04;34.64;24.03;-60.52 
5.431;0.43;-0.93;0.10;-0.35;0.63;0.42;-315.82;-85.96;-111.00;1.03;34.61;24.00;-60.54 
5.461;0.42;-0.94;0.12;-0.28;0.63;0.14;-318.79;-88.82;-111.00;1.04;34.59;23.98;-60.56 
5.491;0.42;-0.94;0.11;-0.28;0.77;0.49;-318.79;-85.96;-115.00;1.04;34.55;23.95;-60.59 
5.521;0.42;-0.93;0.12;-0.14;0.35;0.56;-315.82;-85.00;-111.00;1.03;34.51;23.92;-60.63 
5.552;0.42;-0.93;0.12;-0.07;0.07;0.07;-321.76;-86.91;-113.00;1.03;34.48;23.89;-60.65 
5.582;0.42;-0.91;0.13;-0.07;0.70;0.21;-314.83;-86.91;-115.00;1.01;34.45;23.87;-60.67 
5.612;0.42;-0.91;0.11;-0.56;-0.70;-0.14;-318.79;-86.91;-111.00;1.01;34.41;23.86;-60.69 
5.643;0.41;-0.91;0.13;-0.63;-0.56;0.42;-318.79;-85.00;-114.00;1.01;34.38;23.86;-60.70 
5.672;0.42;-0.91;0.10;-0.28;-0.07;0.14;-319.78;-86.91;-112.00;1.01;34.32;23.83;-60.75 
5.701;0.42;-0.93;0.10;0.14;0.90;-0.56;-317.80;-87.87;-109.00;1.03;34.30;23.83;-60.76 
5.731;0.43;-0.94;0.13;-0.21;0.35;0.00;-317.80;-85.96;-112.00;1.04;34.28;23.82;-60.78 
5.761;0.42;-0.91;0.12;0.14;-0.35;-0.14;-320.77;-85.00;-111.00;1.01;34.26;23.81;-60.79 
5.791;0.42;-0.93;0.11;0.28;-0.21;-0.14;-317.80;-86.91;-110.00;1.03;34.24;23.81;-60.79 
5.821;0.43;-0.94;0.13;0.14;0.42;-0.07;-319.78;-86.91;-113.00;1.04;34.22;23.81;-60.79 
5.852;0.43;-0.94;0.10;0.07;0.70;-0.42;-318.79;-86.91;-112.00;1.04;34.21;23.80;-60.80 
5.882;0.43;-0.90;0.11;-0.21;0.21;-0.07;-317.80;-86.91;-111.00;1.00;34.22;23.79;-60.79 
5.911;0.42;-0.91;0.08;-0.21;-0.21;0.07;-319.78;-86.91;-112.00;1.01;34.17;23.78;-60.83 
5.941;0.42;-0.90;0.11;-0.28;0.63;-0.07;-317.80;-84.05;-113.00;1.00;34.14;23.78;-60.85 
5.971;0.42;-0.90;0.13;-0.35;0.14;0.49;-317.80;-85.96;-112.00;1.00;34.10;23.75;-60.88 
6.001;0.42;-0.90;0.08;-0.07;0.35;0.35;-318.79;-88.82;-114.00;1.00;34.05;23.74;-60.91 
6.031;0.42;-0.93;0.12;-0.35;0.21;0.56;-318.79;-87.87;-111.00;1.03;34.03;23.73;-60.92 
6.061;0.42;-0.94;0.10;-0.35;0.28;0.56;-319.78;-84.05;-113.00;1.03;33.98;23.69;-60.96 
6.091;0.42;-0.92;0.10;-0.21;0.70;0.42;-316.81;-85.96;-113.00;1.02;33.94;23.67;-60.99 
6.121;0.42;-0.91;0.10;-0.21;0.42;0.28;-319.78;-86.91;-109.00;1.01;33.90;23.64;-61.02 
6.152;0.37;-0.91;0.13;-0.14;0.70;0.21;-317.80;-87.87;-111.00;0.99;33.85;23.60;-61.05 
6.182;0.43;-0.95;0.11;-0.28;0.42;-0.21;-316.81;-86.91;-112.00;1.05;33.85;23.58;-61.06 
6.211;0.42;-0.95;0.14;-0.35;-0.63;0.42;-317.80;-84.05;-108.00;1.05;33.81;23.57;-61.08 
6.240;0.42;-0.90;0.13;-0.35;-0.77;0.42;-320.77;-87.87;-112.00;1.00;33.76;23.56;-61.11 
6.270;0.42;-0.94;0.10;-0.07;0.21;0.35;-315.82;-87.87;-110.00;1.03;33.71;23.55;-61.14 
6.300;0.42;-0.93;0.07;0.21;1.39;-0.07;-323.74;-87.87;-112.00;1.02;33.67;23.52;-61.17 
6.330;0.42;-0.90;0.13;0.21;0.83;-0.28;-316.81;-87.87;-110.00;1.00;33.66;23.50;-61.18 
6.360;0.42;-0.92;0.10;-0.07;0.42;-0.21;-319.78;-86.91;-112.00;1.02;33.66;23.50;-61.18 
6.390;0.42;-0.92;0.11;-0.07;0.35;-0.56;-320.77;-85.00;-113.00;1.02;33.65;23.50;-61.18 
6.420;0.43;-0.92;0.08;-0.35;0.77;-0.42;-320.77;-85.96;-111.00;1.02;33.63;23.50;-61.19 
6.451;0.43;-0.93;0.13;-0.07;1.25;0.28;-316.81;-87.87;-108.00;1.03;33.61;23.50;-61.21 
6.481;0.42;-0.92;0.11;-0.28;0.77;-0.14;-321.76;-86.91;-109.00;1.02;33.61;23.50;-61.21 
6.511;0.43;-0.92;0.13;-0.21;0.49;-0.28;-321.76;-85.96;-113.00;1.02;33.57;23.48;-61.24 
6.541;0.42;-0.92;0.13;-0.21;0.56;0.56;-318.79;-85.00;-111.00;1.02;33.56;23.48;-61.24 
6.570;0.42;-0.90;0.10;-0.07;0.42;0.21;-319.78;-87.87;-111.00;1.00;33.52;23.47;-61.27 
6.599;0.42;-0.93;0.07;-0.28;0.49;0.21;-317.80;-86.91;-111.00;1.02;33.51;23.47;-61.28 
6.629;0.43;-0.93;0.12;-0.35;0.42;0.42;-319.78;-87.87;-112.00;1.03;33.48;23.44;-61.30 
6.659;0.42;-0.91;0.10;-0.14;0.56;0.21;-319.78;-85.96;-111.00;1.01;33.46;23.42;-61.31 
6.689;0.42;-0.91;0.14;-0.14;0.90;0.42;-320.77;-84.05;-114.00;1.01;33.42;23.40;-61.34 
6.719;0.41;-0.94;0.11;-0.49;0.14;0.35;-319.78;-86.91;-109.00;1.03;33.37;23.38;-61.38 
6.750;0.42;-0.93;0.08;-0.35;-0.07;0.07;-320.77;-86.91;-109.00;1.02;33.34;23.37;-61.40 
6.780;0.42;-0.91;0.11;-0.07;0.42;0.14;-322.75;-85.96;-113.00;1.01;33.30;23.37;-61.42 
6.810;0.41;-0.95;0.18;0.00;1.11;-0.07;-316.81;-85.00;-107.00;1.05;33.31;23.39;-61.41 
6.840;0.42;-0.92;0.13;-0.07;0.70;-0.07;-316.81;-85.00;-111.00;1.02;33.30;23.38;-61.42 
6.869;0.42;-0.92;0.13;-0.35;0.63;-0.28;-321.76;-85.00;-109.00;1.02;33.28;23.37;-61.43 
6.899;0.42;-0.94;0.12;-0.21;0.42;-0.35;-322.75;-85.96;-111.00;1.04;33.26;23.37;-61.44 
6.929;0.40;-0.92;0.08;0.14;0.70;-0.14;-320.77;-87.87;-109.00;1.01;33.27;23.37;-61.43 
6.960;0.41;-0.92;0.13;-0.14;0.90;-0.14;-317.80;-85.00;-110.00;1.02;33.27;23.37;-61.42 
6.990;0.42;-0.92;0.10;-0.28;0.42;0.14;-320.77;-89.78;-114.00;1.02;33.29;23.38;-61.40 
7.020;0.44;-0.95;0.10;-0.28;0.77;0.21;-317.80;-87.87;-112.00;1.05;33.26;23.37;-61.42 
7.051;0.42;-0.94;0.11;-0.35;0.42;0.21;-321.76;-85.00;-113.00;1.04;33.25;23.38;-61.43 
7.080;0.42;-0.91;0.11;-0.28;0.63;0.35;-319.78;-88.82;-109.00;1.01;33.20;23.37;-61.46 
7.110;0.42;-0.91;0.13;-0.28;0.56;-0.07;-318.79;-85.96;-111.00;1.01;33.20;23.37;-61.46 
7.140;0.42;-0.89;0.15;-0.49;0.07;0.07;-318.79;-85.00;-109.00;1.00;33.20;23.37;-61.45 
7.170;0.46;-0.94;0.11;-0.35;0.49;-0.21;-320.77;-87.87;-109.00;1.05;33.22;23.41;-61.43 
7.200;0.38;-0.93;0.08;-0.28;0.77;0.00;-319.78;-85.00;-111.00;1.01;33.21;23.41;-61.43 
7.230;0.43;-0.94;0.10;-0.07;0.70;0.07;-323.74;-83.09;-110.00;1.04;33.19;23.39;-61.45 
7.260;0.43;-0.92;0.11;-0.28;0.77;-0.21;-320.77;-84.05;-111.00;1.02;33.16;23.38;-61.47 
7.290;0.41;-0.90;0.10;-0.21;0.77;-0.21;-318.79;-84.05;-109.00;0.99;33.15;23.36;-61.47 
7.320;0.41;-0.95;0.10;-0.07;0.28;-0.49;-317.80;-85.00;-111.00;1.04;33.13;23.36;-61.49 
7.351;0.40;-0.91;0.09;-0.28;0.21;-0.21;-317.80;-83.09;-112.00;1.00;33.10;23.35;-61.50 
7.381;0.40;-0.91;0.11;-0.42;0.21;-0.14;-319.78;-85.96;-114.00;1.00;33.09;23.35;-61.50 
7.411;0.42;-0.92;0.12;-0.42;0.35;-0.21;-317.80;-85.96;-111.00;1.02;33.09;23.37;-61.49 
7.441;0.40;-0.91;0.11;-0.35;0.07;-0.07;-317.80;-85.00;-107.00;1.00;33.08;23.37;-61.50 
7.470;0.42;-0.93;0.10;-0.35;0.21;-0.14;-316.81;-84.05;-113.00;1.03;33.06;23.38;-61.50 
7.500;0.42;-0.93;0.08;-0.35;0.77;0.14;-322.75;-88.82;-114.00;1.02;33.05;23.38;-61.51 
7.530;0.42;-0.92;0.11;-0.28;0.42;-0.28;-321.76;-85.00;-112.00;1.02;33.05;23.38;-61.51 
7.561;0.44;-0.91;0.10;0.00;0.28;0.00;-316.81;-85.96;-111.00;1.02;33.05;23.38;-61.50 
7.591;0.42;-0.94;0.11;-0.35;0.97;-0.21;-318.79;-83.09;-113.00;1.04;33.02;23.36;-61.52 
7.621;0.43;-0.92;0.10;-0.35;0.97;0.14;-317.80;-88.82;-109.00;1.02;33.01;23.35;-61.54 
7.651;0.42;-0.91;0.11;-0.49;-1.11;0.77;-317.80;-85.96;-109.00;1.01;32.97;23.32;-61.56 
7.681;0.44;-0.92;0.13;-0.21;-1.11;1.04;-318.79;-85.00;-110.00;1.03;32.87;23.28;-61.62 
7.710;0.41;-0.94;0.10;0.07;0.28;0.00;-319.78;-85.00;-112.00;1.03;32.83;23.27;-61.65 
7.740;0.42;-0.94;0.11;0.14;1.88;-0.14;-317.80;-88.82;-111.00;1.04;32.84;23.28;-61.63 
7.771;0.43;-0.90;0.14;-0.14;0.90;-0.14;-317.80;-86.91;-113.00;1.01;32.83;23.26;-61.64 
7.801;0.42;-0.91;0.10;-0.14;0.77;-0.21;-318.79;-85.00;-112.00;1.01;32.82;23.25;-61.65 
7.831;0.42;-0.94;0.10;-0.35;0.97;-0.14;-320.77;-86.91;-114.00;1.03;32.81;23.25;-61.66 
7.862;0.42;-0.90;0.09;-0.49;0.90;-0.07;-319.78;-83.09;-113.00;1.00;32.81;23.24;-61.65 
7.892;0.41;-0.91;0.10;-0.77;0.70;-0.21;-320.77;-85.96;-112.00;1.00;32.80;23.24;-61.66 
7.921;0.42;-0.93;0.14;-0.49;0.83;-0.14;-317.80;-84.05;-113.00;1.03;32.79;23.24;-61.66 
7.950;0.42;-0.92;0.14;-0.77;0.90;0.07;-316.81;-85.96;-110.00;1.02;32.77;23.23;-61.68 
7.980;0.40;-0.90;0.10;-0.14;0.83;-0.14;-316.81;-85.96;-113.00;0.99;32.75;23.22;-61.70 
8.010;0.43;-0.93;0.11;-0.42;0.21;0.56;-315.82;-85.96;-113.00;1.03;32.72;23.21;-61.72 
8.040;0.41;-0.95;0.11;-0.14;0.14;0.14;-320.77;-84.05;-107.00;1.04;32.69;23.20;-61.74 
8.071;0.42;-0.91;0.14;0.07;0.42;-0.21;-316.81;-85.00;-110.00;1.01;32.64;23.18;-61.77 
8.101;0.40;-0.91;0.10;-0.07;0.90;0.49;-317.80;-85.96;-114.00;1.00;32.64;23.18;-61.77 
8.131;0.42;-0.92;0.13;-0.42;-0.21;0.28;-321.76;-86.91;-111.00;1.02;32.62;23.17;-61.77 
8.161;0.40;-0.92;0.13;-0.63;-1.32;0.83;-319.78;-85.96;-110.00;1.01;32.59;23.17;-61.79 
8.191;0.40;-0.94;0.11;-0.28;-0.28;0.21;-319.78;-85.96;-111.00;1.03;32.53;23.17;-61.82 
8.221;0.42;-0.92;0.10;0.07;0.83;-0.49;-318.79;-87.87;-110.00;1.02;32.51;23.17;-61.83 
8.251;0.42;-0.91;0.11;-0.28;0.00;-0.07;-318.79;-85.96;-112.00;1.01;32.52;23.18;-61.82 
8.281;0.42;-0.92;0.10;-0.14;0.21;-0.49;-318.79;-87.87;-112.00;1.02;32.51;23.18;-61.82 
8.311;0.44;-0.94;0.10;-0.07;0.77;-0.28;-317.80;-85.96;-112.00;1.04;32.50;23.18;-61.82 
8.341;0.44;-0.93;0.13;0.07;0.56;-0.28;-317.80;-85.00;-111.00;1.04;32.51;23.19;-61.81 
8.372;0.42;-0.92;0.10;-0.14;0.42;-0.07;-321.76;-84.05;-110.00;1.02;32.50;23.19;-61.81 
8.401;0.44;-0.94;0.12;-0.42;0.14;0.21;-316.81;-86.91;-110.00;1.04;32.48;23.20;-61.82 
8.431;0.42;-0.90;0.14;-0.28;0.00;0.21;-319.78;-88.82;-111.00;1.00;32.46;23.20;-61.83 
8.461;0.42;-0.91;0.10;-0.35;0.21;0.07;-319.78;-87.87;-111.00;1.01;32.45;23.21;-61.82 
8.491;0.42;-0.90;0.09;-0.49;0.14;0.14;-318.79;-84.05;-109.00;1.00;32.42;23.20;-61.84 
8.521;0.41;-0.90;0.13;-0.21;0.42;0.42;-318.79;-84.05;-110.00;1.00;32.39;23.19;-61.86 
8.551;0.42;-0.94;0.10;-0.14;0.14;0.56;-316.81;-85.00;-112.00;1.03;32.35;23.16;-61.89 
8.582;0.42;-0.95;0.12;0.14;0.00;0.35;-319.78;-85.00;-110.00;1.05;32.32;23.15;-61.91 
8.611;0.43;-0.95;0.06;-0.28;0.77;0.35;-321.76;-85.96;-109.00;1.04;32.28;23.12;-61.93 
8.641;0.42;-0.90;0.10;-0.14;0.56;0.28;-317.80;-89.78;-111.00;1.00;32.27;23.11;-61.94 
8.672;0.42;-0.93;0.09;0.07;0.14;0.14;-319.78;-85.96;-112.00;1.02;32.27;23.09;-61.92 
8.702;0.42;-0.92;0.13;-0.07;-0.21;0.28;-318.79;-85.96;-114.00;1.02;32.24;23.08;-61.94 
8.732;0.41;-0.91;0.10;0.00;0.35;-0.07;-318.79;-86.91;-110.00;1.00;32.23;23.08;-61.94 
8.762;0.42;-0.90;0.08;-0.21;0.49;-0.35;-315.82;-85.00;-115.00;1.00;32.22;23.08;-61.94 
8.792;0.42;-0.92;0.09;-0.14;0.28;-0.14;-317.80;-87.87;-109.00;1.02;32.20;23.08;-61.94 
8.822;0.42;-0.91;0.13;-0.07;0.00;0.14;-316.81;-88.82;-110.00;1.01;32.19;23.09;-61.94 
8.852;0.40;-0.92;0.10;-0.07;0.49;-0.21;-318.79;-91.69;-112.00;1.01;32.18;23.11;-61.94 
8.883;0.42;-0.94;0.11;-0.07;0.35;0.00;-316.81;-85.96;-109.00;1.04;32.17;23.11;-61.94 
8.913;0.40;-0.91;0.10;-0.28;0.83;0.00;-322.75;-85.00;-109.00;1.00;32.15;23.11;-61.96 
8.943;0.43;-0.94;0.09;-0.21;0.49;0.35;-319.78;-85.96;-111.00;1.04;32.12;23.10;-61.97 
8.973;0.43;-0.95;0.10;0.00;0.00;-0.07;-321.76;-85.00;-111.00;1.05;32.10;23.09;-61.98 
9.003;0.41;-0.94;0.10;-0.14;0.21;0.42;-319.78;-85.00;-112.00;1.03;32.07;23.08;-62.00 
9.033;0.42;-0.93;0.10;0.00;0.35;-0.35;-320.77;-85.00;-111.00;1.03;32.05;23.08;-62.01 
9.062;0.46;-0.91;0.15;-0.42;-0.21;0.56;-322.75;-83.09;-113.00;1.03;32.00;23.03;-62.04 
9.091;0.43;-0.93;0.10;-0.77;-0.83;0.42;-320.77;-85.96;-113.00;1.03;31.97;23.03;-62.06 
9.121;0.43;-0.91;0.09;-0.28;0.00;0.97;-317.80;-84.05;-110.00;1.01;31.93;23.03;-62.07 
9.151;0.42;-0.92;0.11;0.07;0.97;0.21;-321.76;-85.96;-110.00;1.02;31.92;23.04;-62.07 
9.182;0.44;-0.91;0.10;0.14;1.88;-0.14;-318.79;-86.91;-109.00;1.02;31.91;23.02;-62.08 
9.212;0.44;-0.91;0.10;-0.21;1.25;0.07;-320.77;-85.00;-108.00;1.02;31.90;23.01;-62.09 
9.242;0.42;-0.91;0.14;-0.21;0.63;0.07;-320.77;-83.09;-110.00;1.01;31.89;23.01;-62.09 
9.271;0.42;-0.91;0.11;-0.21;0.56;0.35;-320.77;-84.05;-111.00;1.01;31.88;23.00;-62.09 
9.300;0.43;-0.93;0.10;-0.28;0.77;-0.07;-318.79;-87.87;-111.00;1.03;31.87;23.00;-62.09 
9.330;0.40;-0.84;0.13;-0.42;0.28;-0.07;-321.76;-85.00;-111.00;0.94;31.87;23.01;-62.07 
9.360;0.42;-0.90;0.10;-0.21;0.07;0.42;-318.79;-85.00;-111.00;1.00;31.86;23.01;-62.08 
9.390;0.43;-0.94;0.10;-0.21;0.21;0.28;-317.80;-85.00;-113.00;1.04;31.84;23.01;-62.08 
9.420;0.42;-0.93;0.09;-0.14;0.42;0.49;-316.81;-88.82;-107.00;1.02;31.81;23.00;-62.10 
9.450;0.42;-0.92;0.13;-0.21;0.63;0.14;-317.80;-83.09;-109.00;1.02;31.80;22.99;-62.10 
9.480;0.41;-0.92;0.13;-0.07;0.21;0.21;-321.76;-86.91;-109.00;1.02;31.79;22.99;-62.10 
9.509;0.42;-0.94;0.10;0.28;0.63;0.42;-318.79;-85.96;-112.00;1.03;31.78;22.97;-62.10 
9.539;0.40;-0.95;0.14;-0.70;1.39;0.83;-319.78;-85.96;-113.00;1.04;31.72;22.95;-62.14 
9.570;0.36;-0.94;0.13;-3.83;2.85;2.78;-315.82;-85.00;-109.00;1.01;31.62;22.85;-62.24 
9.600;0.30;-0.98;0.11;-2.64;2.50;-6.54;-317.80;-86.91;-106.00;1.03;31.52;22.76;-62.34 
9.630;0.45;-0.95;0.12;-3.41;4.24;-10.09;-318.79;-83.09;-109.00;1.06;31.73;22.94;-62.21 
9.660;0.41;-0.94;0.13;-3.90;0.70;-10.57;-319.78;-85.96;-105.00;1.03;32.01;23.20;-62.01 
9.691;0.38;-0.95;0.08;0.70;0.97;-10.85;-321.76;-87.87;-106.00;1.03;32.21;23.47;-61.84 
9.721;0.42;-1.00;0.09;-2.02;7.23;-17.88;-323.74;-91.69;-108.00;1.09;32.57;23.80;-61.55 
