Time(s) acc_x(g) acc_y(g) acc_z(g) gyr_x(°/s) gyr_y(°/s) gyr_z(°/s) mag_x(G) mag_y(G) mag_z(G) SVM(g) yaw(°) pitch(°) roll(°)
0.000;-0.58;0.13;0.69;1.67;5.70;-2.43;-76.81;-108.65;-278.00;0.91;150.85;-38.29;9.94 
0.031;-0.58;0.14;0.71;1.53;0.90;-2.92;-79.80;-110.56;-276.00;0.93;150.94;-38.47;9.93 
0.060;-0.58;0.16;0.73;1.81;-2.71;-3.20;-79.80;-109.60;-275.00;0.95;151.10;-38.48;9.92 
0.090;-0.53;0.15;0.70;3.27;-0.07;-2.23;-79.80;-109.60;-276.00;0.89;151.25;-38.46;10.00 
0.121;-0.58;0.12;0.67;3.41;5.15;-2.71;-81.80;-111.51;-274.00;0.89;151.36;-38.56;10.06 
0.151;-0.56;0.18;0.70;3.69;5.22;-2.64;-75.81;-107.70;-278.00;0.91;151.46;-38.72;10.13 
0.181;-0.62;0.22;0.67;2.85;2.02;0.21;-76.81;-109.60;-278.00;0.94;151.54;-38.83;10.22 
0.211;-0.56;0.19;0.70;0.00;-0.63;3.27;-76.81;-107.70;-281.00;0.92;151.50;-38.84;10.35 
0.241;-0.57;0.22;0.69;-2.50;3.97;6.96;-76.81;-110.56;-275.00;0.92;151.30;-38.81;10.51 
0.271;-0.61;0.26;0.69;-4.31;5.77;12.38;-75.81;-106.75;-276.00;0.96;150.89;-38.86;10.71 
0.301;-0.57;0.20;0.70;-6.68;1.67;15.58;-75.81;-107.70;-279.00;0.92;150.32;-38.83;10.93 
0.332;-0.56;0.20;0.72;-9.67;0.83;18.78;-73.82;-104.84;-278.00;0.93;149.62;-38.69;11.15 
0.362;-0.59;0.19;0.70;-11.06;0.07;19.27;-75.81;-100.07;-276.00;0.93;148.84;-38.56;11.31 
0.392;-0.57;0.17;0.71;-11.20;1.25;20.38;-71.82;-101.98;-276.00;0.93;148.04;-38.42;11.47 
0.422;-0.60;0.17;0.70;-11.90;0.70;18.50;-71.82;-98.17;-271.00;0.94;147.23;-38.33;11.60 
0.452;-0.60;0.14;0.73;-11.20;-4.10;19.06;-72.82;-98.17;-275.00;0.96;146.44;-38.17;11.72 
0.482;-0.60;0.10;0.69;-9.04;-7.23;15.10;-68.83;-99.12;-271.00;0.92;145.85;-37.86;11.78 
0.512;-0.59;0.06;0.70;-6.68;-7.58;8.83;-67.83;-98.17;-273.00;0.92;145.47;-37.57;11.79 
0.543;-0.58;0.07;0.71;-3.62;-7.86;2.57;-69.83;-97.21;-270.00;0.92;145.34;-37.31;11.74 
0.573;-0.57;0.09;0.70;-0.07;-7.86;-2.99;-67.83;-100.07;-277.00;0.91;145.49;-37.11;11.65 
0.603;-0.58;0.11;0.70;1.81;-9.81;-7.58;-70.82;-102.93;-275.00;0.92;145.83;-36.90;11.57 
0.634;-0.54;0.15;0.69;2.09;-10.02;-9.11;-71.82;-106.75;-279.00;0.89;146.33;-36.68;11.47 
0.664;-0.57;0.21;0.68;0.77;-5.01;-8.63;-72.82;-106.75;-277.00;0.91;146.81;-36.53;11.38 
0.693;-0.53;0.23;0.66;-0.90;-1.46;-4.66;-70.82;-105.79;-280.00;0.88;147.12;-36.46;11.34 
0.722;-0.56;0.20;0.76;-1.46;-0.28;-1.18;-72.82;-108.65;-277.00;0.96;147.24;-36.46;11.34 
0.751;-0.56;0.21;0.74;-3.76;-5.84;2.43;-75.81;-107.70;-279.00;0.95;147.28;-36.36;11.35 
0.780;-0.53;0.24;0.67;-5.57;-7.37;6.40;-75.81;-110.56;-283.00;0.89;147.22;-36.11;11.37 
0.809;-0.54;0.23;0.66;-7.51;-0.90;10.99;-70.82;-109.60;-280.00;0.88;146.96;-35.95;11.48 
0.838;-0.53;0.21;0.70;-9.53;5.91;14.96;-78.80;-109.60;-281.00;0.90;146.45;-35.93;11.61 
0.867;-0.51;0.21;0.72;-11.55;6.26;19.41;-73.82;-108.65;-278.00;0.91;145.76;-35.97;11.75 
0.897;-0.55;0.13;0.71;-11.27;3.97;20.45;-72.82;-105.79;-275.00;0.91;145.00;-35.94;11.86 
0.928;-0.58;0.14;0.75;-10.50;1.88;20.73;-71.82;-101.98;-277.00;0.96;144.19;-35.89;11.98 
0.958;-0.58;0.14;0.76;-9.67;-3.55;18.64;-69.83;-100.07;-274.00;0.97;143.46;-35.74;12.07 
0.988;-0.59;0.13;0.66;-8.63;-1.67;14.75;-68.83;-100.07;-275.00;0.89;142.92;-35.54;12.15 
1.019;-0.54;0.06;0.68;-6.89;4.45;8.21;-68.83;-99.12;-275.00;0.87;142.49;-35.51;12.14 
1.049;-0.55;0.06;0.72;-2.99;7.79;1.53;-68.83;-98.17;-273.00;0.91;142.23;-35.68;12.07 
1.078;-0.56;0.05;0.75;0.49;4.31;-2.64;-67.83;-96.26;-274.00;0.94;142.25;-35.86;11.96 
1.107;-0.55;0.07;0.73;3.41;1.74;-6.82;-67.83;-98.17;-271.00;0.92;142.48;-35.98;11.87 
1.136;-0.55;0.11;0.67;4.80;1.67;-8.28;-67.83;-97.21;-270.00;0.87;142.85;-36.09;11.83 
1.166;-0.54;0.12;0.68;4.17;4.66;-7.86;-70.82;-99.12;-272.00;0.88;143.23;-36.25;11.80 
1.196;-0.57;0.18;0.67;2.30;6.68;-6.05;-71.82;-97.21;-271.00;0.90;143.53;-36.46;11.76 
1.227;-0.58;0.10;0.74;2.09;5.63;-3.97;-71.82;-99.12;-273.00;0.95;143.72;-36.69;11.72 
1.257;-0.62;0.10;0.78;3.41;-3.83;-1.18;-69.83;-97.21;-270.00;1.00;143.94;-36.79;11.71 
1.287;-0.53;0.17;0.67;5.77;-10.57;-7.37;-71.82;-102.93;-272.00;0.87;144.30;-36.64;11.72 
1.318;-0.54;0.13;0.65;3.69;-5.36;-1.11;-71.82;-102.93;-273.00;0.85;144.73;-36.34;11.84 
1.348;-0.62;0.26;0.67;3.97;5.50;-1.67;-71.82;-101.98;-274.00;0.95;145.02;-36.43;11.91 
1.378;-0.54;0.36;0.77;2.78;8.07;12.52;-70.82;-101.98;-273.00;1.01;144.90;-36.62;12.26 
1.408;-0.53;0.24;0.81;1.18;3.20;15.37;-67.83;-101.03;-274.00;1.00;144.56;-36.60;12.66 
1.439;-0.52;0.18;0.74;-1.39;-14.61;12.87;-65.84;-97.21;-272.00;0.92;144.30;-36.27;12.98 
1.469;-0.46;0.18;0.61;-3.90;-11.06;6.68;-61.85;-100.07;-275.00;0.78;144.25;-35.70;13.18 
1.499;-0.48;0.26;0.58;-3.76;11.55;1.95;-62.84;-101.98;-276.00;0.80;144.22;-35.63;13.24 
1.530;-0.56;0.27;0.70;-5.50;21.98;6.26;-64.84;-99.12;-273.00;0.94;143.84;-36.12;13.35 
1.560;-0.58;0.33;0.81;-10.50;13.77;10.99;-64.84;-98.17;-269.00;1.05;143.27;-36.58;13.42 
1.590;-0.64;0.26;0.81;-10.92;-5.63;15.10;-65.84;-96.26;-269.00;1.06;142.68;-36.62;13.51 
1.620;-0.58;0.19;0.67;-11.48;-26.43;14.82;-62.84;-94.36;-267.00;0.91;142.37;-35.99;13.55 
1.650;-0.50;0.26;0.54;-12.03;-10.64;13.29;-63.84;-99.12;-272.00;0.78;142.13;-35.29;13.64 
1.680;-0.51;0.28;0.64;-18.64;8.63;14.75;-60.85;-99.12;-271.00;0.86;141.56;-35.15;13.69 
1.710;-0.56;0.32;0.76;-25.67;4.24;18.64;-62.84;-96.26;-272.00;1.00;140.70;-35.20;13.56 
1.741;-0.65;0.41;0.80;-34.09;-14.89;29.22;-66.83;-95.31;-267.00;1.11;139.68;-34.85;13.44 
1.771;-0.54;0.37;0.72;-42.37;-20.59;39.10;-69.83;-94.36;-265.00;0.97;138.32;-33.95;13.34 
1.801;-0.60;0.42;0.69;-48.21;-18.50;54.19;-68.83;-96.26;-262.00;1.01;136.67;-33.01;13.26 
1.831;-0.65;0.34;0.66;-53.63;-26.99;60.10;-70.82;-90.54;-262.00;0.99;134.60;-31.97;13.21 
1.861;-0.77;0.14;0.59;-45.70;-25.60;83.48;-70.82;-88.64;-263.00;0.98;132.21;-30.80;13.18 
1.891;-0.51;-0.11;0.54;-55.30;-28.10;77.15;-67.83;-86.73;-263.00;0.75;129.66;-29.61;13.16 
1.921;-0.50;-0.10;0.56;-54.61;-3.34;66.02;-66.83;-89.59;-263.00;0.76;127.49;-28.61;12.53 
1.952;-0.58;0.00;0.74;-48.90;17.81;64.49;-66.83;-79.11;-255.00;0.94;125.04;-28.56;12.06 
1.982;-0.62;0.01;0.94;-57.39;-5.77;61.91;-62.84;-75.29;-248.00;1.13;122.74;-28.34;11.59 
2.011;-0.59;0.03;0.82;-59.90;-35.27;64.28;-62.84;-75.29;-246.00;1.01;120.91;-27.42;10.96 
2.041;-0.58;0.00;0.57;-51.48;-48.63;69.01;-63.84;-71.48;-250.00;0.81;119.24;-25.69;10.49 
2.071;-0.65;0.16;0.47;-45.01;-28.03;71.03;-58.85;-74.34;-250.00;0.82;117.47;-24.20;10.22 
2.101;-0.49;0.29;0.55;-49.32;-14.33;78.33;-58.85;-71.48;-250.00;0.79;115.42;-23.35;10.16 
2.131;-0.58;0.27;0.58;-55.65;-26.16;94.89;-52.87;-68.62;-249.00;0.86;112.92;-22.38;10.13 
2.160;-0.57;-0.21;0.51;-51.27;-32.49;89.74;-47.88;-69.58;-247.00;0.79;110.45;-20.79;9.93 
2.190;-0.44;-0.26;0.53;-39.93;-15.65;63.17;-43.89;-69.58;-248.00;0.74;108.48;-19.80;9.27 
2.220;-0.21;0.18;0.58;-51.20;-15.44;43.48;-43.89;-69.58;-247.00;0.64;107.17;-19.10;8.65 
2.251;-0.36;0.14;0.58;-60.10;-34.92;53.15;-45.89;-72.43;-241.00;0.70;105.88;-17.96;7.87 
2.281;-0.46;-0.12;0.47;-39.86;-40.00;52.45;-43.89;-77.20;-246.00;0.67;104.60;-16.59;7.01 
2.311;0.00;-0.14;0.35;-21.98;-34.71;38.05;-41.90;-83.87;-247.00;0.38;103.65;-15.34;6.49 
2.342;0.17;-0.02;0.22;-21.08;-29.43;5.63;-43.89;-88.64;-250.00;0.28;103.38;-13.53;5.95 
2.372;-0.10;0.13;0.23;-11.27;4.24;9.53;-44.89;-101.98;-247.00;0.28;103.33;-12.68;5.97 
2.402;-0.11;0.03;0.46;-6.54;34.02;5.84;-43.89;-101.03;-238.00;0.47;103.22;-13.19;6.25 
2.432;-0.15;-0.03;0.75;-9.32;2.78;-11.48;-49.88;-105.79;-229.00;0.77;103.39;-13.63;6.25 
2.463;-0.14;0.15;0.22;-19.83;-19.83;-37.91;-54.86;-117.23;-221.00;0.30;104.42;-12.90;5.79 
2.493;-0.21;0.20;0.48;-20.80;59.48;-29.43;-56.86;-135.34;-211.00;0.56;105.79;-13.54;5.63 
2.523;-0.40;-0.26;0.92;-12.38;34.16;-42.64;-52.87;-156.31;-190.00;1.04;106.75;-15.19;5.12 
2.554;-0.04;0.26;0.54;-31.51;-9.32;-94.47;-52.87;-172.51;-190.00;0.60;109.38;-15.09;4.03 
2.584;-0.32;0.13;0.74;-56.07;-3.76;-42.02;-50.87;-175.37;-193.00;0.82;111.99;-15.15;2.80 
2.614;-0.07;-0.29;1.02;-77.43;-15.58;-59.90;-55.86;-170.60;-196.00;1.06;113.75;-14.58;0.81 
2.644;-0.31;0.46;1.36;-115.34;-80.28;-74.92;-63.84;-168.70;-196.00;1.47;116.55;-13.26;-2.15 
2.674;-0.18;-0.08;1.13;-140.45;-129.11;-7.44;-108.73;-168.70;-199.00;1.15;117.85;-9.57;-5.68 
2.704;-0.29;0.00;0.51;-181.15;-147.48;-70.61;-143.64;-172.51;-198.00;0.59;119.27;-4.75;-10.30 
2.734;-0.10;0.26;1.01;-186.92;-109.57;-68.31;-204.49;-190.62;-180.00;1.05;121.74;-0.96;-15.41 
2.765;-0.06;-0.10;1.10;-132.17;-156.17;-54.75;-232.42;-213.49;-163.00;1.11;123.68;3.21;-20.20 
2.795;1.82;-2.53;1.35;-34.09;-160.21;-90.64;-249.38;-246.85;-157.00;3.40;123.74;9.50;-22.92 
2.824;-0.54;-6.59;3.33;-246.61;-232.42;37.50;-273.32;-281.16;-159.00;7.40;125.23;14.96;-23.36 
2.854;1.66;-0.67;1.10;-314.71;-254.68;-87.44;-328.19;-271.63;-106.00;2.10;125.82;17.19;-31.46 
2.884;0.02;0.26;-0.65;-86.89;-248.21;-186.09;-347.14;-295.46;-75.00;0.70;127.63;24.99;-34.08 
2.913;-0.58;0.66;-0.35;-288.97;52.45;35.20;-353.13;-315.47;-48.00;0.95;128.92;29.75;-37.24 
2.943;0.78;-1.49;0.58;-94.82;-22.54;-110.19;-359.11;-304.03;-6.00;1.78;133.48;27.42;-42.74 
2.973;0.15;-0.97;0.11;-185.81;-233.04;-8.97;-371.08;-314.52;38.00;0.99;137.57;29.81;-47.02 
3.003;1.16;-1.26;-0.91;-161.53;-173.98;85.01;-371.08;-304.03;66.00;1.94;134.02;31.89;-51.78 
3.033;0.58;-1.28;-0.78;-120.00;-96.35;54.12;-367.09;-299.27;80.00;1.61;132.43;31.77;-55.05 
3.064;0.74;-1.39;-0.52;-62.40;-156.31;81.04;-362.10;-274.49;105.00;1.66;125.18;30.35;-58.27 
3.094;0.47;-0.67;-1.25;1.60;-148.45;30.96;-358.11;-251.61;100.00;1.49;80.39;29.42;-60.20 
3.124;0.07;-0.79;-1.18;8.49;-8.83;50.09;-351.13;-244.94;92.00;1.42;53.43;28.42;-61.41 
3.154;0.30;-0.93;-0.52;-30.68;69.98;-3.34;-352.13;-239.22;95.00;1.11;54.51;27.45;-62.42 
3.184;0.14;-0.50;-0.21;-23.17;5.15;-33.60;-351.13;-243.99;104.00;0.56;62.07;28.24;-61.67 
3.214;0.20;-0.62;-0.57;0.21;-64.97;-1.11;-352.13;-249.71;103.00;0.87;45.12;28.84;-61.13 
3.244;0.26;-0.79;-0.93;1.95;-35.34;-10.37;-352.13;-248.76;100.00;1.25;27.50;28.98;-61.02 
3.274;0.32;-0.91;-0.71;1.04;38.47;-23.03;-351.13;-254.47;101.00;1.20;22.89;29.52;-60.47 
3.303;0.36;-1.21;-0.21;11.62;19.90;-21.36;-352.13;-258.29;100.00;1.28;27.45;30.15;-59.85 
3.333;0.43;-0.99;-0.35;17.88;-19.55;-32.28;-355.12;-259.24;100.00;1.13;31.04;30.93;-59.07 
3.364;0.54;-0.76;-0.58;26.30;-4.52;-6.33;-356.12;-267.82;93.00;1.10;31.37;31.65;-58.35 
3.394;0.56;-0.85;-0.46;33.88;23.58;-7.51;-358.11;-269.72;88.00;1.12;37.02;32.08;-57.92 
3.424;0.54;-0.84;-0.29;40.21;35.34;-7.37;-358.11;-270.68;84.00;1.04;47.95;32.47;-57.48 
3.454;0.50;-0.79;-0.15;46.61;18.64;5.22;-360.11;-273.54;76.00;0.95;59.57;32.65;-57.19 
3.484;0.50;-0.77;-0.27;48.28;9.39;10.99;-362.10;-269.72;62.00;0.96;65.75;32.47;-57.21 
3.514;0.54;-0.90;-0.20;49.60;20.10;11.69;-362.10;-266.86;55.00;1.07;70.55;32.25;-57.20 
3.544;0.47;-0.90;-0.09;54.26;12.31;19.20;-359.11;-265.91;44.00;1.02;74.99;31.87;-57.27 
3.575;0.51;-0.90;-0.08;61.22;2.64;39.03;-359.11;-259.24;33.00;1.04;76.76;31.06;-57.63 
3.605;0.54;-0.94;-0.14;63.86;10.43;46.54;-359.11;-250.66;15.00;1.09;77.13;29.94;-58.23 
3.635;0.38;-0.99;-0.07;55.58;26.78;40.63;-353.13;-239.22;3.00;1.06;78.71;28.54;-58.91 
3.665;0.34;-0.97;-0.04;66.16;22.96;48.90;-353.13;-233.51;-5.00;1.03;79.95;27.29;-59.33 
3.695;0.42;-1.03;0.10;72.00;26.71;63.17;-354.12;-230.65;-13.00;1.12;81.57;25.47;-59.88 
3.725;0.10;-0.94;0.24;70.12;2.02;64.70;-342.15;-203.01;-37.00;0.98;81.98;23.47;-60.29 
3.755;0.02;-1.10;0.25;57.88;-5.50;68.31;-336.17;-195.38;-51.00;1.13;80.36;21.64;-60.58 
3.786;-0.04;-1.03;0.29;42.23;13.15;46.12;-331.18;-184.90;-61.00;1.07;79.08;19.77;-61.00 
3.816;0.18;-0.86;0.48;29.08;17.46;43.27;-325.20;-175.37;-67.00;1.00;79.36;18.44;-60.91 
3.846;0.26;-0.80;0.38;23.72;-11.83;45.50;-314.22;-163.93;-76.00;0.92;78.55;17.29;-60.94 
3.877;0.03;-1.01;0.26;5.43;-13.98;60.03;-310.23;-155.35;-76.00;1.04;76.47;16.21;-61.37 
3.907;-0.10;-1.15;0.10;-6.47;8.63;26.09;-304.25;-146.78;-81.00;1.16;74.71;14.90;-62.28 
3.937;0.12;-1.01;0.14;-9.88;42.71;24.14;-302.25;-141.06;-79.00;1.03;75.27;14.12;-62.90 
3.967;-0.03;-1.00;0.38;-16.77;29.01;17.67;-301.25;-133.43;-71.00;1.07;76.85;13.04;-63.58 
3.997;0.04;-0.99;0.29;-25.60;-1.60;15.51;-303.25;-131.53;-68.00;1.03;77.13;12.51;-64.25 
4.027;0.01;-1.06;0.12;-25.39;-4.73;16.00;-299.26;-126.76;-63.00;1.07;75.81;12.19;-65.20 
4.057;-0.08;-1.14;0.18;-22.89;5.50;13.50;-301.25;-122.95;-59.00;1.16;74.79;11.70;-66.21 
4.088;-0.10;-1.05;0.14;-19.69;0.28;-6.40;-302.25;-122.95;-50.00;1.06;74.33;11.50;-66.98 
4.118;0.21;-0.86;0.05;-19.97;-4.03;-4.17;-301.25;-122.95;-47.00;0.89;73.92;11.94;-67.36 
4.148;0.02;-1.02;0.05;-16.21;-7.37;13.22;-303.25;-122.00;-47.00;1.02;72.90;12.02;-67.93 
4.178;0.02;-1.06;0.03;-9.88;-5.84;3.62;-304.25;-122.00;-48.00;1.06;71.54;11.91;-68.53 
4.208;0.00;-1.05;0.01;-0.49;2.02;0.63;-305.24;-122.00;-42.00;1.05;71.30;12.03;-68.58 
4.238;0.00;-1.06;0.06;3.34;-0.77;-2.43;-306.24;-120.09;-45.00;1.06;71.60;12.25;-68.37 
4.268;0.02;-1.03;0.07;7.72;-3.06;-5.57;-306.24;-120.09;-41.00;1.03;71.58;12.44;-68.22 
4.299;0.02;-1.04;0.08;9.53;-6.26;-8.00;-307.24;-123.90;-44.00;1.04;71.51;12.75;-67.94 
4.329;0.03;-1.06;0.07;9.95;-4.66;-10.16;-305.24;-124.85;-49.00;1.06;71.41;13.10;-67.62 
4.359;0.04;-1.00;0.11;9.32;-3.90;-12.24;-306.24;-125.81;-49.00;1.01;71.57;13.49;-67.25 
4.390;0.06;-0.99;0.14;7.23;-4.59;-11.55;-304.25;-127.71;-53.00;1.00;71.70;13.94;-66.87 
4.420;0.06;-1.00;0.15;4.24;-4.66;-13.08;-306.24;-131.53;-58.00;1.01;71.74;14.36;-66.55 
4.450;0.05;-0.97;0.18;0.00;-5.22;-12.66;-307.24;-134.39;-56.00;0.99;71.85;14.89;-66.23 
4.480;0.07;-1.04;0.14;-2.43;-7.58;-10.78;-311.23;-137.24;-59.00;1.05;71.69;15.36;-66.01 
4.511;0.06;-1.04;0.14;-3.83;-4.94;-17.88;-311.23;-141.06;-55.00;1.05;71.33;15.86;-65.87 
4.541;0.10;-1.02;0.12;-4.73;2.71;-19.20;-312.23;-145.82;-60.00;1.03;71.50;16.45;-65.67 
4.571;0.06;-0.98;0.16;-6.89;-1.04;-19.90;-316.22;-149.63;-57.00;0.99;71.90;17.06;-65.42 
4.602;0.14;-0.89;0.10;-7.23;-5.43;-19.97;-317.21;-154.40;-53.00;0.91;71.88;17.72;-65.18 
4.632;0.17;-1.01;0.10;-6.68;-3.69;-18.30;-319.21;-157.26;-54.00;1.03;71.68;18.36;-64.96 
4.662;0.12;-0.99;0.07;-5.98;-1.39;-17.53;-320.21;-161.07;-53.00;1.00;71.69;18.91;-64.75 
4.692;0.15;-1.00;0.07;-6.05;-4.24;-16.42;-320.21;-164.88;-49.00;1.01;71.70;19.46;-64.51 
4.722;0.18;-0.99;0.09;-5.15;-6.75;-14.47;-326.19;-165.84;-53.00;1.01;71.39;19.98;-64.30 
4.752;0.21;-0.99;0.00;-3.76;-5.22;-14.33;-325.20;-170.60;-51.00;1.01;70.93;20.48;-64.11 
4.782;0.20;-1.00;0.05;-2.16;-2.57;-14.12;-325.20;-174.41;-50.00;1.02;70.71;20.96;-63.87 
4.813;0.19;-1.02;0.04;-1.46;-1.95;-12.45;-330.18;-180.13;-49.00;1.04;70.63;21.40;-63.63 
4.843;0.22;-0.98;0.07;-0.56;-2.43;-11.48;-326.19;-181.09;-52.00;1.01;70.55;21.78;-63.40 
4.873;0.23;-0.98;0.08;-0.21;-3.48;-9.46;-329.19;-182.99;-51.00;1.01;70.42;22.16;-63.17 
4.903;0.23;-0.98;0.10;-0.14;-2.85;-7.58;-329.19;-183.95;-50.00;1.01;70.17;22.47;-62.99 
4.933;0.23;-0.99;0.08;0.07;-3.55;-5.70;-333.18;-186.80;-48.00;1.02;69.85;22.75;-62.86 
4.963;0.25;-0.98;0.06;0.35;-2.71;-4.80;-331.18;-184.90;-54.00;1.01;69.43;22.94;-62.79 
4.993;0.24;-0.98;0.10;0.90;-1.46;-1.74;-331.18;-190.62;-52.00;1.01;69.15;23.07;-62.74 
5.024;0.23;-0.99;0.08;0.49;-0.97;-1.46;-330.18;-190.62;-54.00;1.02;68.89;23.15;-62.73 
5.054;0.23;-0.99;0.09;1.53;-0.83;-0.42;-334.17;-188.71;-54.00;1.02;68.60;23.16;-62.76 
5.084;0.23;-0.98;0.09;1.32;1.32;-0.56;-335.17;-188.71;-54.00;1.01;68.41;23.19;-62.77 
5.114;0.23;-0.96;0.10;0.21;1.32;1.81;-333.18;-190.62;-54.00;0.99;68.25;23.18;-62.82 
5.144;0.24;-1.00;0.08;-0.49;1.81;2.30;-334.17;-186.80;-54.00;1.03;68.07;23.12;-62.92 
5.174;0.21;-0.98;0.08;-1.04;2.02;3.62;-331.18;-189.66;-56.00;1.01;67.90;23.04;-63.04 
5.204;0.23;-0.98;0.08;-1.11;1.32;4.59;-331.18;-185.85;-55.00;1.01;67.59;22.92;-63.22 
5.234;0.21;-0.99;0.09;-0.42;2.57;4.38;-333.18;-188.71;-53.00;1.02;67.34;22.78;-63.40 
5.264;0.21;-1.00;0.08;-0.42;2.16;3.97;-334.17;-186.80;-54.00;1.02;67.13;22.63;-63.58 
5.294;0.22;-1.01;0.08;-0.28;1.88;3.69;-333.18;-186.80;-52.00;1.04;66.93;22.48;-63.75 
5.325;0.22;-1.01;0.10;0.35;1.39;3.34;-331.18;-182.04;-56.00;1.04;66.74;22.36;-63.90 
5.354;0.19;-1.02;0.08;0.28;1.60;2.99;-330.18;-184.90;-56.00;1.04;66.48;22.24;-64.04 
5.383;0.19;-1.01;0.09;1.04;2.50;1.74;-328.19;-182.99;-57.00;1.03;66.36;22.15;-64.14 
5.414;0.21;-1.02;0.10;0.97;2.02;1.04;-329.19;-181.09;-52.00;1.05;66.27;22.07;-64.24 
5.444;0.21;-0.99;0.09;0.49;1.18;0.63;-331.18;-182.99;-53.00;1.02;66.21;22.04;-64.28 
5.474;0.20;-0.99;0.10;-0.07;1.74;0.35;-328.19;-178.23;-54.00;1.01;66.04;22.02;-64.35 
5.504;0.21;-1.02;0.11;0.00;1.46;0.07;-326.19;-183.95;-54.00;1.05;65.98;21.99;-64.39 
5.535;0.20;-1.00;0.09;-0.07;1.11;-0.49;-327.19;-178.23;-52.00;1.02;65.87;21.99;-64.43 
5.565;0.18;-0.99;0.09;-0.14;0.42;-1.11;-326.19;-182.99;-53.00;1.01;65.73;22.00;-64.46 
5.594;0.22;-1.01;0.10;-0.21;0.77;-1.60;-328.19;-179.18;-58.00;1.04;65.60;22.02;-64.48 
5.625;0.22;-1.00;0.09;-0.35;0.35;-1.39;-330.18;-181.09;-56.00;1.03;65.48;22.07;-64.48 
5.655;0.22;-1.02;0.07;-0.49;-0.07;-1.81;-330.18;-183.95;-54.00;1.05;65.33;22.12;-64.47 
5.685;0.20;-0.98;0.10;-0.35;0.14;-1.81;-329.19;-183.95;-55.00;1.01;65.15;22.17;-64.47 
5.715;0.21;-0.98;0.13;-0.42;0.35;-1.67;-332.18;-182.99;-55.00;1.01;65.00;22.23;-64.47 
5.745;0.20;-0.99;0.08;-0.56;0.42;-0.97;-328.19;-183.95;-51.00;1.01;64.80;22.26;-64.48 
5.775;0.22;-1.00;0.09;-0.28;0.83;-0.83;-329.19;-183.95;-55.00;1.03;64.70;22.30;-64.48 
5.805;0.19;-1.01;0.08;-0.07;0.70;-0.97;-326.19;-185.85;-55.00;1.03;64.54;22.32;-64.50 
5.835;0.19;-0.98;0.08;-0.42;0.56;-0.77;-329.19;-182.04;-56.00;1.00;64.40;22.35;-64.51 
5.865;0.24;-1.00;0.08;0.00;0.77;-0.49;-329.19;-185.85;-52.00;1.03;64.22;22.36;-64.53 
5.895;0.22;-1.01;0.10;-0.14;0.83;-0.07;-332.18;-184.90;-57.00;1.04;64.10;22.37;-64.55 
5.926;0.18;-0.99;0.06;0.00;1.67;-0.14;-331.18;-186.80;-59.00;1.01;63.98;22.37;-64.58 
5.956;0.20;-1.00;0.09;-0.35;1.32;0.49;-332.18;-181.09;-57.00;1.02;63.88;22.37;-64.61 
5.985;0.24;-1.00;0.10;-0.14;1.32;0.42;-330.18;-183.95;-56.00;1.03;63.81;22.34;-64.66 
6.014;0.20;-1.00;0.08;-0.21;1.53;0.56;-327.19;-184.90;-52.00;1.02;63.80;22.31;-64.69 
6.044;0.22;-1.00;0.10;-0.07;1.67;1.18;-331.18;-183.95;-58.00;1.03;63.69;22.28;-64.75 
6.074;0.22;-0.99;0.10;-0.07;1.67;0.77;-332.18;-182.04;-54.00;1.02;63.57;22.24;-64.81 
6.104;0.20;-1.01;0.08;0.28;1.11;0.28;-332.18;-182.99;-55.00;1.03;63.43;22.22;-64.87 
6.135;0.18;-0.97;0.06;0.49;2.02;0.21;-330.18;-185.85;-54.00;0.99;63.45;22.19;-64.90 
6.165;0.24;-0.97;0.14;-0.42;1.11;0.63;-329.19;-183.95;-57.00;1.01;63.33;22.16;-64.95 
6.194;0.21;-1.01;0.07;-0.63;0.00;0.56;-329.19;-182.99;-54.00;1.03;63.22;22.14;-64.99 
6.225;0.21;-1.02;0.10;-0.49;0.56;-0.14;-330.18;-182.04;-51.00;1.05;63.07;22.14;-65.03 
6.255;0.19;-0.98;0.10;-0.28;0.56;-0.56;-328.19;-182.04;-55.00;1.00;62.95;22.13;-65.05 
6.285;0.20;-0.98;0.10;-0.49;-0.07;-0.35;-329.19;-181.09;-54.00;1.01;62.79;22.14;-65.07 
6.315;0.20;-1.01;0.10;-0.42;0.35;-0.83;-331.18;-184.90;-56.00;1.03;62.63;22.15;-65.10 
6.346;0.21;-0.98;0.10;-0.56;0.28;-0.63;-328.19;-182.04;-55.00;1.01;62.48;22.16;-65.11 
6.376;0.22;-0.98;0.10;-0.56;0.42;-0.83;-332.18;-183.95;-54.00;1.01;62.36;22.17;-65.13 
6.406;0.22;-0.98;0.11;-0.63;0.63;-0.70;-329.19;-186.80;-55.00;1.01;62.34;22.21;-65.10 
6.436;0.19;-0.99;0.09;-0.83;0.28;-0.35;-331.18;-182.04;-57.00;1.01;62.14;22.21;-65.14 
6.466;0.20;-0.99;0.08;-0.42;0.77;-0.49;-329.19;-183.95;-54.00;1.01;61.96;22.20;-65.18 
6.496;0.22;-1.00;0.10;-0.49;0.63;-0.21;-333.18;-183.95;-54.00;1.03;61.82;22.21;-65.20 
6.526;0.23;-1.00;0.10;-0.63;0.56;-0.21;-329.19;-182.99;-52.00;1.03;61.64;22.20;-65.23 
6.556;0.22;-1.01;0.07;-0.63;0.42;-0.07;-330.18;-184.90;-56.00;1.04;61.58;22.20;-65.25 
6.586;0.21;-1.00;0.08;-0.56;0.56;0.56;-327.19;-184.90;-53.00;1.02;61.49;22.19;-65.27 
6.616;0.19;-1.00;0.06;-0.35;0.97;0.28;-330.18;-186.80;-51.00;1.02;61.45;22.20;-65.27 
6.647;0.22;-0.99;0.06;-0.21;1.11;0.42;-329.19;-182.99;-56.00;1.02;61.35;22.18;-65.31 
6.676;0.20;-0.99;0.07;-0.42;0.77;0.56;-331.18;-182.99;-54.00;1.01;61.29;22.16;-65.34 
6.706;0.21;-0.98;0.08;-0.35;0.56;0.21;-333.18;-183.95;-56.00;1.01;61.22;22.14;-65.37 
6.737;0.22;-1.01;0.10;-0.42;0.90;0.14;-331.18;-185.85;-55.00;1.04;61.16;22.11;-65.42 
6.767;0.22;-1.01;0.10;-0.35;0.70;-0.21;-334.17;-182.99;-56.00;1.04;61.09;22.10;-65.44 
6.797;0.22;-1.00;0.08;-0.28;1.32;-0.07;-329.19;-182.99;-54.00;1.03;61.04;22.09;-65.46 
6.827;0.22;-1.00;0.10;-0.35;0.83;0.35;-330.18;-186.80;-56.00;1.03;61.03;22.07;-65.48 
6.858;0.21;-1.02;0.05;-0.56;0.35;-0.21;-328.19;-183.95;-53.00;1.04;60.93;22.06;-65.51 
6.888;0.18;-0.97;0.06;-0.14;1.32;-0.35;-330.18;-185.85;-55.00;0.99;61.04;22.08;-65.48 
6.918;0.21;-1.00;0.08;-0.21;0.83;-0.35;-331.18;-182.04;-57.00;1.02;60.98;22.08;-65.49 
6.949;0.20;-1.00;0.10;-0.21;1.18;0.00;-328.19;-182.99;-54.00;1.02;60.87;22.05;-65.54 
6.979;0.20;-0.99;0.10;-0.28;1.25;0.07;-330.18;-185.85;-56.00;1.01;60.86;22.04;-65.56 
7.009;0.22;-1.01;0.10;-0.21;0.70;-0.14;-329.19;-183.95;-54.00;1.04;60.86;22.02;-65.58 
7.039;0.19;-1.01;0.04;-0.21;1.18;0.07;-330.18;-182.99;-54.00;1.03;60.84;22.03;-65.58 
7.069;0.21;-0.98;0.11;-0.28;0.97;-0.14;-331.18;-183.95;-56.00;1.01;60.76;22.02;-65.61 
7.098;0.21;-0.98;0.07;-0.14;0.90;-0.28;-330.18;-183.95;-55.00;1.00;60.77;22.01;-65.62 
7.127;0.21;-0.99;0.10;-0.14;1.18;-0.63;-331.18;-183.95;-55.00;1.02;60.74;22.02;-65.62 
7.158;0.24;-0.98;0.12;-0.28;1.25;-0.63;-330.18;-182.04;-57.00;1.02;60.75;22.04;-65.61 
7.188;0.19;-1.00;0.11;-0.14;0.77;0.14;-328.19;-184.90;-53.00;1.02;60.73;22.02;-65.63 
7.218;0.21;-0.98;0.08;-0.28;1.11;-0.42;-332.18;-182.04;-54.00;1.01;60.70;22.01;-65.64 
7.249;0.20;-0.99;0.07;-0.14;0.77;-0.21;-330.18;-183.95;-56.00;1.01;60.71;22.00;-65.65 
7.279;0.19;-1.02;0.10;-0.35;0.77;-0.14;-331.18;-184.90;-54.00;1.04;60.67;22.00;-65.67 
7.309;0.19;-0.97;0.09;-0.35;0.97;0.14;-330.18;-182.04;-56.00;0.99;60.68;21.98;-65.69 
7.338;0.19;-1.00;0.09;-0.42;0.97;0.21;-329.19;-182.99;-56.00;1.02;60.60;21.97;-65.72 
7.368;0.21;-0.98;0.03;-0.14;0.90;-0.14;-330.18;-182.04;-57.00;1.00;60.63;21.95;-65.73 
7.398;0.22;-1.01;0.09;-0.49;0.70;0.21;-328.19;-182.04;-58.00;1.04;60.66;21.95;-65.73 
7.428;0.20;-0.98;0.08;-0.07;1.18;0.00;-330.18;-182.04;-54.00;1.00;60.64;21.92;-65.76 
7.459;0.20;-1.01;0.07;-0.14;0.77;0.07;-329.19;-184.90;-57.00;1.03;60.61;21.91;-65.79 
7.489;0.22;-1.01;0.08;-0.28;0.83;0.14;-329.19;-185.85;-55.00;1.04;60.66;21.89;-65.80 
7.518;0.22;-1.01;0.10;-0.14;0.83;0.00;-328.19;-182.99;-53.00;1.04;60.67;21.88;-65.81 
7.548;0.19;-1.00;0.08;-0.42;0.90;0.00;-329.19;-185.85;-54.00;1.02;60.68;21.86;-65.83 
7.578;0.22;-1.02;0.06;-0.14;0.90;-0.28;-329.19;-181.09;-58.00;1.05;60.72;21.84;-65.84 
7.608;0.21;-1.02;0.10;-0.21;0.28;0.21;-328.19;-182.04;-53.00;1.05;60.70;21.82;-65.87 
7.638;0.23;-1.02;0.08;-0.28;0.90;-0.28;-331.18;-182.04;-57.00;1.05;60.67;21.79;-65.90 
7.669;0.21;-0.99;0.08;-0.07;0.70;-0.21;-328.19;-184.90;-52.00;1.02;60.67;21.78;-65.91 
7.699;0.20;-0.98;0.09;-0.21;0.70;-0.07;-327.19;-182.04;-54.00;1.00;60.58;21.78;-65.92 
7.728;0.18;-0.99;0.09;-0.07;0.90;-0.42;-328.19;-183.95;-53.00;1.01;60.63;21.77;-65.93 
7.758;0.22;-0.98;0.10;-0.14;0.97;-0.77;-330.18;-183.95;-57.00;1.01;60.65;21.77;-65.93 
7.788;0.21;-1.00;0.12;-0.21;0.90;-0.07;-333.18;-181.09;-56.00;1.03;60.66;21.76;-65.94 
7.818;0.23;-1.00;0.11;-0.35;0.83;-0.28;-326.19;-184.90;-57.00;1.03;60.74;21.76;-65.94 
7.848;0.19;-0.98;0.08;-0.07;1.04;-0.63;-332.18;-184.90;-56.00;1.00;60.79;21.77;-65.93 
7.878;0.22;-1.00;0.12;0.00;0.35;-0.35;-326.19;-183.95;-54.00;1.03;60.85;21.78;-65.91 
7.908;0.22;-1.01;0.10;-0.07;0.70;-0.21;-332.18;-186.80;-58.00;1.04;60.88;21.79;-65.89 
7.938;0.22;-1.00;0.10;-0.14;0.42;-0.07;-326.19;-182.99;-54.00;1.03;60.98;21.79;-65.88 
7.968;0.22;-1.00;0.06;-0.07;0.21;-0.77;-328.19;-184.90;-56.00;1.03;60.95;21.79;-65.88 
7.998;0.22;-0.99;0.06;0.00;0.83;-0.90;-329.19;-184.90;-55.00;1.02;60.99;21.82;-65.86 
8.028;0.21;-1.01;0.10;-0.07;0.42;-0.70;-327.19;-182.99;-55.00;1.04;61.12;21.84;-65.82 
8.059;0.22;-1.00;0.10;-0.35;0.63;-0.21;-330.18;-186.80;-56.00;1.03;61.11;21.84;-65.82 
8.089;0.23;-1.01;0.10;0.07;0.77;-0.14;-330.18;-185.85;-55.00;1.04;61.08;21.85;-65.83 
8.119;0.22;-1.02;0.12;0.07;1.18;-0.63;-330.18;-183.95;-58.00;1.05;61.13;21.84;-65.84 
8.148;0.20;-1.00;0.10;-0.14;0.42;0.07;-329.19;-182.99;-54.00;1.02;61.32;21.82;-65.82 
8.178;0.21;-1.01;0.12;-0.07;0.77;-0.28;-330.18;-184.90;-57.00;1.04;61.31;21.82;-65.83 
8.208;0.21;-0.99;0.09;0.28;1.25;-0.42;-331.18;-185.85;-58.00;1.02;61.36;21.81;-65.83 
8.238;0.21;-0.99;0.10;0.28;0.00;0.14;-329.19;-183.95;-56.00;1.02;61.38;21.79;-65.85 
8.269;0.22;-0.99;0.10;-0.07;0.42;-0.56;-332.18;-186.80;-56.00;1.02;61.38;21.80;-65.84 
8.299;0.19;-0.98;0.11;-0.07;1.11;-0.07;-331.18;-185.85;-60.00;1.00;61.47;21.80;-65.84 
8.329;0.24;-0.98;0.13;-0.21;0.63;0.00;-332.18;-183.95;-59.00;1.02;61.54;21.80;-65.83 
8.358;0.22;-0.99;0.10;-0.28;0.83;0.00;-326.19;-185.85;-58.00;1.02;61.49;21.81;-65.83 
8.388;0.22;-0.98;0.08;-0.28;1.11;0.00;-329.19;-185.85;-60.00;1.01;61.48;21.80;-65.85 
8.418;0.21;-0.98;0.10;-0.28;1.25;-0.28;-327.19;-185.85;-58.00;1.01;61.49;21.76;-65.89 
8.448;0.22;-0.97;0.07;-0.14;1.32;-0.07;-327.19;-182.99;-58.00;1.00;61.55;21.77;-65.88 
8.479;0.22;-0.98;0.10;0.14;1.46;0.07;-330.18;-182.99;-57.00;1.01;61.70;21.77;-65.87 
8.509;0.20;-0.98;0.11;-0.21;0.90;-0.63;-329.19;-186.80;-56.00;1.01;61.80;21.76;-65.87 
8.538;0.22;-1.00;0.10;0.00;1.81;-0.56;-330.18;-183.95;-57.00;1.03;61.83;21.77;-65.87 
8.569;0.21;-1.00;0.10;0.07;1.32;-0.35;-329.19;-186.80;-57.00;1.03;61.96;21.76;-65.86 
8.599;0.23;-1.01;0.10;-0.35;1.39;-0.21;-328.19;-183.95;-57.00;1.04;62.00;21.75;-65.87 
8.629;0.22;-0.98;0.11;-0.63;0.56;-0.56;-329.19;-184.90;-55.00;1.01;62.08;21.75;-65.88 
8.659;0.18;-1.00;0.05;-0.49;0.97;-0.28;-331.18;-182.99;-60.00;1.02;62.10;21.75;-65.88 
8.689;0.22;-1.01;0.07;-0.28;0.83;-0.42;-329.19;-182.99;-60.00;1.04;62.16;21.76;-65.87 
8.719;0.20;-0.99;0.10;-0.07;0.35;0.21;-330.18;-184.90;-55.00;1.01;62.18;21.76;-65.87 
8.749;0.23;-1.01;0.07;-0.35;1.18;-0.14;-333.18;-187.76;-60.00;1.04;62.22;21.76;-65.87 
8.780;0.20;-1.02;0.09;-0.49;0.00;-0.21;-332.18;-183.95;-57.00;1.04;62.27;21.76;-65.86 
8.809;0.21;-1.01;0.08;-0.77;-0.56;-0.97;-330.18;-183.95;-57.00;1.03;62.24;21.78;-65.85 
8.839;0.20;-1.00;0.10;-0.83;0.21;-0.63;-330.18;-186.80;-55.00;1.02;62.14;21.80;-65.85 
8.870;0.20;-0.99;0.11;-1.11;0.56;-0.49;-327.19;-186.80;-57.00;1.02;62.15;21.83;-65.83 
8.900;0.19;-1.00;0.08;-1.04;0.49;-0.42;-329.19;-186.80;-56.00;1.02;62.15;21.84;-65.82 
8.930;0.24;-1.00;0.10;-0.63;0.63;-0.35;-331.18;-184.90;-53.00;1.03;62.08;21.85;-65.83 
8.960;0.21;-0.99;0.10;-0.35;0.42;-0.63;-332.18;-187.76;-58.00;1.02;62.10;21.86;-65.83 
8.991;0.22;-1.01;0.10;-0.28;0.49;0.14;-330.18;-186.80;-56.00;1.04;62.05;21.85;-65.85 
9.021;0.21;-0.99;0.09;-0.28;0.56;-0.21;-331.18;-187.76;-55.00;1.02;62.11;21.86;-65.84 
9.051;0.20;-0.98;0.07;0.00;0.90;-0.14;-330.18;-186.80;-56.00;1.00;62.12;21.86;-65.84 
9.081;0.22;-1.01;0.08;-0.42;0.63;0.28;-328.19;-187.76;-55.00;1.04;62.15;21.86;-65.84 
9.111;0.22;-0.99;0.10;-0.56;0.83;0.14;-331.18;-187.76;-57.00;1.02;62.18;21.85;-65.84 
9.141;0.21;-0.98;0.09;-0.42;0.83;0.49;-332.18;-186.80;-56.00;1.01;62.25;21.85;-65.84 
9.171;0.22;-0.98;0.12;-0.42;0.97;0.21;-330.18;-184.90;-56.00;1.01;62.32;21.83;-65.85 
9.201;0.21;-0.98;0.08;-0.35;1.11;0.07;-332.18;-187.76;-59.00;1.01;62.40;21.83;-65.85 
9.231;0.24;-0.99;0.09;-0.42;1.18;0.00;-330.18;-184.90;-58.00;1.02;62.41;21.81;-65.88 
9.261;0.18;-0.98;0.10;-0.56;0.63;-0.07;-331.18;-185.85;-56.00;1.00;62.44;21.79;-65.89 
9.291;0.19;-1.01;0.07;-0.35;0.42;-0.49;-330.18;-185.85;-57.00;1.03;62.46;21.79;-65.90 
9.321;0.21;-0.99;0.10;-0.14;0.90;-0.35;-329.19;-185.85;-55.00;1.02;62.52;21.78;-65.90 
9.351;0.24;-1.00;0.11;-0.07;0.97;-0.42;-327.19;-184.90;-58.00;1.03;62.65;21.80;-65.88 
9.382;0.21;-0.95;0.09;-0.70;0.97;0.35;-330.18;-187.76;-58.00;0.98;62.71;21.78;-65.89 
9.412;0.22;-1.01;0.10;-0.28;1.25;-0.28;-327.19;-188.71;-57.00;1.04;62.77;21.77;-65.89 
9.442;0.21;-1.01;0.10;-0.35;1.11;0.21;-328.19;-186.80;-58.00;1.04;62.87;21.75;-65.91 
9.472;0.22;-1.00;0.09;-0.49;0.49;-0.07;-330.18;-185.85;-57.00;1.03;62.93;21.74;-65.91 
9.503;0.20;-0.98;0.10;-0.14;0.77;0.00;-328.19;-185.85;-57.00;1.01;62.88;21.75;-65.91 
9.532;0.22;-0.98;0.10;-0.14;1.25;-0.14;-330.18;-184.90;-59.00;1.01;62.95;21.74;-65.92 
9.562;0.21;-0.99;0.10;-0.42;0.90;0.00;-331.18;-184.90;-56.00;1.02;63.06;21.75;-65.91 
9.593;0.22;-0.99;0.10;-0.63;0.63;-0.35;-330.18;-184.90;-57.00;1.02;63.13;21.73;-65.92 
9.623;0.22;-0.99;0.12;-0.42;0.70;-0.21;-330.18;-182.04;-56.00;1.02;63.13;21.73;-65.93 
9.653;0.20;-0.99;0.06;-0.35;0.90;-0.21;-331.18;-185.85;-57.00;1.01;63.19;21.73;-65.93 
9.683;0.20;-0.99;0.10;-0.42;0.97;0.00;-329.19;-188.71;-55.00;1.01;63.25;21.71;-65.94 
9.713;0.21;-0.98;0.10;-0.35;1.11;-0.14;-331.18;-187.76;-54.00;1.01;63.35;21.71;-65.93 
9.742;0.21;-1.02;0.10;-0.35;0.97;-0.07;-329.19;-187.76;-52.00;1.05;63.42;21.71;-65.93 
9.772;0.21;-1.00;0.12;-0.14;0.77;-0.07;-329.19;-186.80;-55.00;1.03;63.47;21.72;-65.93 
9.803;0.20;-0.99;0.10;-0.21;1.11;-0.42;-331.18;-188.71;-54.00;1.01;63.55;21.73;-65.92 
9.833;0.22;-1.01;0.08;-0.14;0.97;-0.28;-328.19;-185.85;-56.00;1.04;63.65;21.71;-65.93 
9.863;0.22;-1.00;0.10;-0.28;0.83;-0.21;-332.18;-187.76;-59.00;1.03;63.83;21.72;-65.91 
9.894;0.19;-1.02;0.09;-0.21;0.97;-0.14;-328.19;-185.85;-57.00;1.04;63.88;21.71;-65.92 
9.924;0.22;-0.99;0.12;-0.28;0.90;-0.14;-331.18;-190.62;-55.00;1.02;63.95;21.69;-65.92 
9.953;0.21;-0.99;0.10;-0.49;0.90;-0.07;-330.18;-182.99;-58.00;1.02;64.03;21.69;-65.92 
9.983;0.21;-1.01;0.10;-0.63;0.63;-0.07;-329.19;-182.99;-58.00;1.04;64.09;21.67;-65.94 
10.013;0.22;-0.98;0.10;-0.63;1.04;-0.14;-330.18;-187.76;-58.00;1.01;64.09;21.66;-65.96 
10.043;0.22;-1.00;0.09;-0.21;0.63;-0.14;-328.19;-184.90;-58.00;1.03;64.15;21.66;-65.96 
10.073;0.23;-1.01;0.06;-0.49;0.49;0.07;-332.18;-183.95;-57.00;1.04;64.24;21.67;-65.94 
10.104;0.22;-0.98;0.10;-0.42;0.63;-0.70;-328.19;-185.85;-53.00;1.01;64.34;21.68;-65.93 
10.134;0.25;-1.01;0.07;-0.14;0.90;-0.56;-333.18;-185.85;-59.00;1.04;64.44;21.69;-65.91 
10.163;0.24;-1.03;0.10;-0.42;0.00;-1.46;-329.19;-186.80;-55.00;1.06;64.54;21.70;-65.90 
10.193;0.20;-1.01;0.06;-0.56;0.90;-1.32;-333.18;-187.76;-57.00;1.03;64.58;21.73;-65.87 
10.223;0.23;-1.00;0.11;-2.30;2.43;0.07;-331.18;-187.76;-58.00;1.03;64.74;21.77;-65.84 
10.253;0.21;-1.00;0.08;-2.23;2.57;-1.74;-331.18;-186.80;-53.00;1.02;64.91;21.80;-65.81 
10.283;0.21;-1.01;0.12;-3.06;0.56;-2.99;-331.18;-187.76;-60.00;1.04;65.07;21.86;-65.77 
10.314;0.23;-1.02;0.08;-3.48;-1.53;-2.78;-331.18;-189.66;-57.00;1.05;64.97;21.93;-65.74 
10.344;0.21;-1.02;0.07;-2.37;0.28;-4.45;-335.17;-186.80;-53.00;1.04;64.75;22.04;-65.68 
10.374;0.22;-1.02;0.10;-1.81;1.95;-6.54;-332.18;-189.66;-55.00;1.05;64.87;22.18;-65.58 
10.405;0.16;-1.02;0.09;-2.02;-0.35;-8.35;-332.18;-192.52;-51.00;1.04;65.09;22.36;-65.43 
10.434;0.19;-1.02;0.08;-1.11;1.04;-11.62;-331.18;-194.43;-54.00;1.04;65.24;22.61;-65.22 
10.463;0.20;-1.02;0.10;0.07;8.77;-17.88;-335.17;-196.34;-57.00;1.04;65.96;22.93;-64.91 
10.492;0.22;-1.08;0.12;-3.41;11.69;-20.24;-336.17;-197.29;-53.00;1.11;67.73;23.39;-64.46 
10.521;0.24;-0.94;0.16;-6.40;2.23;-16.77;-339.16;-203.01;-50.00;0.98;68.96;23.71;-64.15 
10.550;0.30;-1.02;0.18;-4.38;-9.74;-21.01;-337.17;-205.87;-49.00;1.08;69.14;24.21;-63.73 
10.579;0.24;-0.98;0.18;-2.71;-22.19;-13.84;-343.15;-208.73;-46.00;1.02;68.08;24.77;-63.28 
