Time(s) acc_x(g) acc_y(g) acc_z(g) gyr_x(°/s) gyr_y(°/s) gyr_z(°/s) mag_x(G) mag_y(G) mag_z(G) SVM(g) yaw(°) pitch(°) roll(°)
0.000;0.02;0.13;0.90;-0.49;5.29;8.42;-83.51;-365.19;-359.00;0.91;162.47;1.20;4.45 
0.029;-0.03;0.11;0.89;0.14;2.78;10.57;-84.51;-364.23;-354.00;0.90;162.18;1.10;4.49 
0.059;-0.03;0.11;0.87;0.42;3.06;13.50;-83.51;-359.44;-356.00;0.88;161.85;1.01;4.52 
0.089;-0.05;0.14;0.86;2.71;4.24;16.28;-84.51;-360.40;-357.00;0.87;161.44;0.94;4.60 
0.120;-0.05;0.10;0.88;5.08;10.16;19.62;-86.49;-359.44;-359.00;0.89;160.91;0.73;4.76 
0.150;-0.09;0.17;0.92;6.68;10.43;21.98;-83.51;-350.81;-358.00;0.94;160.32;0.43;5.00 
0.180;-0.13;0.18;0.88;8.90;8.42;28.24;-80.53;-348.90;-359.00;0.91;159.61;0.12;5.31 
0.210;-0.09;0.16;0.82;9.11;12.87;33.04;-80.53;-345.06;-361.00;0.84;158.75;-0.15;5.68 
0.240;-0.08;0.17;0.83;9.11;19.90;37.15;-76.55;-340.27;-360.00;0.85;157.72;-0.60;6.07 
0.270;-0.10;0.18;0.86;7.51;17.46;43.34;-71.58;-328.77;-361.00;0.88;156.61;-1.04;6.46 
0.300;-0.13;0.18;0.82;6.82;19.90;51.13;-72.58;-322.06;-363.00;0.85;155.26;-1.48;6.81 
0.331;-0.12;0.20;0.89;5.63;20.17;58.37;-72.58;-313.43;-362.00;0.92;153.66;-1.96;7.16 
0.361;-0.15;0.17;0.89;4.31;16.21;66.43;-67.60;-304.80;-367.00;0.92;151.83;-2.31;7.51 
0.391;-0.20;0.21;0.88;3.06;10.85;71.65;-62.63;-292.34;-368.00;0.93;149.87;-2.53;7.82 
0.422;-0.22;0.20;0.74;3.13;15.03;76.10;-59.65;-285.63;-362.00;0.80;147.69;-2.62;8.17 
0.452;-0.16;0.18;0.78;3.90;32.49;78.47;-55.67;-280.84;-362.00;0.82;145.40;-3.08;8.57 
0.482;-0.20;0.14;0.83;2.78;33.81;79.93;-52.69;-261.67;-364.00;0.87;143.09;-3.75;8.95 
0.512;-0.31;0.20;0.75;-3.76;30.61;88.56;-46.73;-243.46;-360.00;0.84;140.68;-4.38;9.29 
0.543;-0.19;0.14;0.76;-5.43;45.08;90.30;-42.75;-232.92;-362.00;0.80;137.97;-5.16;9.57 
0.572;-0.18;0.13;0.82;-7.93;56.42;89.81;-37.78;-219.50;-356.00;0.85;135.15;-6.26;9.84 
0.601;-0.22;0.13;0.81;-15.44;56.97;92.66;-29.83;-203.20;-351.00;0.85;132.43;-7.39;9.97 
0.631;-0.11;0.28;0.70;-16.28;45.84;90.37;-31.81;-188.83;-347.00;0.76;129.49;-8.42;10.09 
0.661;-0.06;0.08;0.71;-2.50;37.98;80.56;-21.87;-166.78;-341.00;0.72;126.84;-8.95;10.49 
0.691;-0.14;0.11;0.68;-6.26;37.15;72.70;-12.92;-156.24;-340.00;0.70;124.47;-9.47;10.86 
0.721;-0.17;0.01;0.59;-9.46;32.49;62.96;-8.95;-146.65;-333.00;0.61;122.32;-9.88;11.16 
0.751;-0.11;0.02;0.55;-18.30;46.75;48.97;-3.98;-138.02;-331.00;0.56;120.47;-10.64;11.16 
0.781;-0.02;0.13;0.56;-39.51;39.44;31.17;-2.98;-121.73;-321.00;0.58;118.79;-11.69;10.95 
0.810;-0.17;0.32;0.78;-23.93;51.97;54.61;-3.98;-106.39;-310.00;0.86;117.25;-13.16;10.78 
0.840;-0.35;0.29;0.80;-18.64;1.46;60.66;-0.99;-103.52;-304.00;0.92;115.50;-13.79;10.95 
0.870;-0.26;0.26;0.51;-10.02;-40.97;66.16;6.96;-99.68;-312.00;0.63;113.83;-12.70;11.36 
0.900;-0.11;0.30;0.56;-9.39;-21.84;64.63;12.92;-101.60;-312.00;0.64;112.33;-11.25;11.97 
0.931;-0.25;0.34;0.67;-4.17;-47.30;66.64;22.87;-103.52;-314.00;0.79;110.60;-9.65;12.70 
0.961;-0.15;0.18;0.57;-7.10;-61.63;52.17;29.83;-105.44;-320.00;0.62;109.39;-7.41;13.30 
0.991;-0.13;0.28;0.72;-27.13;-83.62;52.24;32.81;-111.19;-324.00;0.78;108.44;-4.95;13.42 
1.021;0.06;0.24;0.54;-56.70;-170.43;64.14;31.81;-127.48;-336.00;0.59;107.69;-0.86;12.77 
1.051;0.26;0.37;0.56;-66.78;-235.13;82.99;20.88;-171.57;-355.00;0.72;106.55;6.76;11.21 
1.081;0.16;0.46;0.47;-59.27;-51.20;64.21;13.92;-195.54;-367.00;0.68;105.06;11.95;9.17 
1.111;0.08;0.21;0.77;-83.90;-3.48;84.94;5.97;-192.66;-363.00;0.80;103.10;12.79;6.94 
1.142;0.23;-0.04;0.61;-110.75;-51.90;103.23;-4.97;-189.78;-358.00;0.65;100.17;14.40;3.52 
1.172;0.12;-0.21;0.51;-118.89;-51.34;101.63;-27.84;-197.45;-351.00;0.56;96.99;16.49;-0.72 
1.202;0.10;-0.34;0.44;-111.37;-45.43;93.29;-45.73;-197.45;-343.00;0.56;93.96;18.36;-5.04 
1.233;-0.02;-0.31;0.67;-117.98;-51.62;78.75;-60.65;-201.29;-337.00;0.74;91.14;19.51;-9.38 
1.263;0.30;-0.46;1.39;-74.71;-118.12;51.34;-84.51;-207.04;-332.00;1.49;88.71;21.14;-13.14 
1.293;0.14;-0.50;3.39;103.37;-351.58;55.65;-88.48;-234.83;-341.00;3.43;86.16;26.41;-13.90 
1.323;0.23;-6.11;3.98;-36.38;170.02;-61.43;-84.51;-255.92;-351.00;7.30;84.73;26.80;-15.50 
1.354;0.94;-0.54;2.29;-130.09;-97.60;10.43;-96.44;-257.84;-347.00;2.53;86.40;28.22;-16.83 
1.384;1.05;0.84;0.02;-152.77;-174.54;85.29;-139.19;-278.93;-324.00;1.34;84.65;31.64;-21.05 
1.414;0.43;0.94;0.37;-220.80;-5.70;97.25;-174.98;-280.84;-302.00;1.10;80.75;33.08;-26.65 
1.445;0.51;0.11;0.49;-153.25;-88.83;83.69;-202.81;-276.05;-276.00;0.72;77.24;33.19;-32.08 
1.474;0.80;-0.54;0.09;-113.25;-52.31;94.05;-220.71;-275.09;-257.00;0.97;73.13;33.44;-35.95 
1.504;0.39;-0.32;0.00;-157.57;-95.72;95.03;-233.63;-267.42;-236.00;0.50;68.12;33.32;-40.44 
1.534;0.23;-0.73;-0.22;-173.15;-93.08;91.41;-262.47;-265.51;-204.00;0.80;61.44;33.02;-45.69 
1.564;0.45;-1.73;-0.27;-201.88;-46.26;96.07;-275.39;-256.88;-175.00;1.81;53.33;31.59;-51.88 
1.594;0.10;-1.87;-0.06;-193.39;-10.99;112.49;-292.29;-241.54;-146.00;1.87;45.35;28.97;-57.50 
1.624;-0.09;-1.82;0.06;-162.85;37.98;78.26;-299.25;-233.88;-124.00;1.82;38.10;25.88;-62.31 
1.654;0.39;-1.19;0.25;-136.90;-29.57;67.41;-308.20;-207.04;-63.00;1.28;31.63;23.96;-65.40 
1.684;0.23;-0.94;0.06;-115.83;-99.90;57.74;-310.19;-199.37;-46.00;0.97;23.83;22.10;-67.87 
1.713;0.03;-0.87;-0.15;-59.13;-104.42;61.84;-310.19;-189.78;-35.00;0.88;16.81;19.94;-69.89 
1.744;0.00;-0.98;-0.31;-33.88;-88.77;46.33;-307.20;-181.16;-31.00;1.03;12.61;18.21;-71.12 
1.773;-0.04;-0.74;-0.46;-11.62;-61.36;36.73;-300.25;-175.41;-34.00;0.87;10.23;16.82;-72.04 
1.803;-0.16;-0.53;-0.44;-2.02;-40.83;21.01;-296.27;-173.49;-37.00;0.71;8.90;15.83;-72.72 
1.833;-0.03;-0.80;-0.51;-11.27;-25.18;3.27;-297.26;-167.74;-41.00;0.95;8.21;15.40;-72.90 
1.863;0.02;-0.97;-0.54;-9.39;-1.67;4.03;-297.26;-169.66;-40.00;1.11;8.10;15.54;-72.62 
1.892;-0.11;-1.00;-0.52;-10.99;-2.92;3.97;-299.25;-168.70;-37.00;1.13;8.01;15.58;-72.53 
1.921;-0.07;-1.18;-0.60;-3.06;5.91;-0.63;-298.26;-170.61;-35.00;1.33;8.16;15.72;-72.40 
1.952;0.02;-1.26;-0.49;6.82;20.87;-4.45;-302.23;-167.74;-36.00;1.35;8.69;16.06;-72.23 
1.982;0.23;-0.96;-0.34;42.71;7.23;10.71;-300.25;-167.74;-37.00;1.04;10.07;16.44;-72.32 
2.012;0.02;-1.15;-0.22;57.53;-23.17;18.50;-294.28;-164.86;-47.00;1.17;11.56;16.24;-73.04 
2.043;0.00;-0.94;-0.18;36.10;-13.22;11.27;-292.29;-162.95;-64.00;0.96;12.63;15.95;-73.65 
2.073;-0.02;-1.10;-0.19;39.10;10.30;-4.10;-289.31;-161.99;-68.00;1.12;14.29;16.18;-73.68 
2.103;0.13;-1.05;-0.06;31.37;18.92;-14.40;-285.33;-161.03;-76.00;1.06;16.20;16.76;-73.23 
2.133;0.26;-0.96;0.00;36.45;9.88;-4.03;-289.31;-161.99;-76.00;0.99;18.25;17.34;-72.64 
2.163;0.15;-1.05;0.01;35.90;-10.57;3.13;-283.34;-166.78;-86.00;1.06;20.04;17.75;-72.10 
2.193;0.06;-1.07;0.00;32.14;-7.30;0.14;-281.36;-163.90;-99.00;1.07;21.49;18.05;-71.58 
2.223;0.14;-1.06;0.02;30.54;1.67;0.63;-281.36;-161.03;-100.00;1.07;22.89;18.28;-71.05 
2.254;0.11;-1.04;0.04;22.12;-5.84;-4.24;-279.37;-162.95;-105.00;1.05;24.18;18.52;-70.46 
2.284;0.13;-1.08;0.03;11.34;-8.97;-9.18;-277.38;-167.74;-111.00;1.09;25.22;18.92;-69.81 
2.314;0.07;-1.10;0.05;4.80;-6.54;-7.72;-281.36;-165.82;-116.00;1.10;26.02;19.37;-69.22 
2.344;0.12;-1.02;0.00;0.28;-5.36;-5.63;-277.38;-168.70;-116.00;1.03;26.85;19.92;-68.55 
2.374;0.11;-1.02;0.00;-5.22;-5.57;-6.05;-279.37;-172.53;-111.00;1.03;27.36;20.34;-68.10 
2.404;0.12;-1.03;0.02;-9.18;-4.73;-4.73;-283.34;-171.57;-115.00;1.04;27.87;20.82;-67.62 
2.434;0.13;-1.03;-0.04;-9.39;-1.46;-5.22;-283.34;-172.53;-115.00;1.04;28.14;21.16;-67.32 
2.465;0.14;-1.03;-0.05;-8.63;4.10;-6.33;-281.36;-176.37;-111.00;1.04;28.41;21.47;-67.06 
2.495;0.17;-1.02;0.00;-10.78;-1.39;-3.34;-284.34;-174.45;-110.00;1.03;28.93;21.88;-66.63 
2.525;0.15;-1.02;-0.10;-12.52;-4.87;-1.39;-287.32;-175.41;-106.00;1.04;28.98;22.12;-66.48 
2.556;0.12;-1.02;-0.12;-6.54;-2.71;-1.39;-284.34;-177.32;-107.00;1.03;28.97;22.31;-66.37 
2.586;0.18;-1.02;-0.09;-2.16;2.30;-0.77;-287.32;-176.37;-107.00;1.04;29.13;22.47;-66.21 
2.616;0.14;-1.02;-0.08;-0.90;-1.53;2.43;-288.32;-173.49;-103.00;1.03;29.28;22.55;-66.11 
2.646;0.14;-1.03;-0.08;0.07;-2.78;1.88;-287.32;-178.28;-103.00;1.04;29.38;22.58;-66.04 
2.677;0.14;-1.08;-0.10;3.55;1.95;0.35;-286.33;-178.28;-107.00;1.09;29.57;22.66;-65.91 
2.707;0.16;-1.04;-0.06;4.31;3.83;0.49;-286.33;-175.41;-106.00;1.05;29.91;22.74;-65.72 
2.737;0.19;-1.02;-0.04;2.64;-0.49;1.46;-286.33;-177.32;-104.00;1.04;30.20;22.79;-65.57 
2.768;0.12;-1.04;-0.06;0.14;-2.16;1.11;-286.33;-175.41;-108.00;1.05;30.38;22.85;-65.45 
2.798;0.12;-1.03;-0.06;-0.90;-0.70;-0.49;-287.32;-174.45;-105.00;1.04;30.52;22.91;-65.35 
2.827;0.14;-1.05;-0.06;-0.21;0.63;-0.83;-287.32;-176.37;-109.00;1.06;30.77;23.05;-65.16 
2.856;0.14;-1.02;-0.06;-0.97;-0.21;-0.77;-286.33;-176.37;-106.00;1.03;30.94;23.14;-65.03 
2.885;0.14;-1.02;-0.06;-2.30;-1.88;0.56;-283.34;-176.37;-107.00;1.03;31.09;23.25;-64.90 
2.914;0.14;-1.04;-0.06;-2.50;-1.04;-0.07;-289.31;-178.28;-106.00;1.05;31.13;23.30;-64.85 
2.943;0.17;-1.04;-0.10;-2.43;0.14;-0.77;-286.33;-177.32;-107.00;1.06;31.21;23.36;-64.78 
2.972;0.15;-1.03;-0.06;-2.02;-0.21;0.42;-290.30;-177.32;-105.00;1.04;31.33;23.44;-64.68 
3.002;0.14;-1.04;-0.08;-2.09;-2.71;1.32;-287.32;-178.28;-104.00;1.05;31.39;23.51;-64.61 
3.032;0.13;-1.06;0.00;-2.50;-4.31;0.35;-286.33;-177.32;-104.00;1.07;31.40;23.54;-64.57 
3.063;0.14;-1.05;-0.08;-1.60;-2.09;0.35;-288.32;-177.32;-109.00;1.06;31.36;23.58;-64.56 
3.093;0.14;-1.02;-0.06;-1.04;-0.63;-0.35;-287.32;-180.20;-105.00;1.03;31.41;23.63;-64.50 
3.123;0.16;-1.02;-0.06;-0.83;-1.04;-0.42;-288.32;-179.24;-105.00;1.03;31.50;23.71;-64.41 
3.153;0.13;-1.02;-0.08;-1.25;-0.97;-0.83;-286.33;-176.37;-104.00;1.03;31.59;23.78;-64.32 
3.183;0.10;-1.04;-0.08;-0.63;0.28;-0.49;-285.33;-175.41;-107.00;1.05;31.70;23.86;-64.23 
3.213;0.16;-1.02;-0.06;0.00;-0.56;-0.21;-284.34;-181.16;-103.00;1.03;31.83;23.94;-64.13 
3.243;0.15;-1.02;-0.10;-0.14;-1.04;-0.14;-287.32;-178.28;-103.00;1.04;31.91;23.99;-64.05 
3.274;0.16;-1.02;-0.08;-0.21;-0.28;-0.21;-287.32;-176.37;-103.00;1.04;31.99;24.02;-63.98 
3.304;0.17;-1.02;-0.07;-0.90;0.00;0.14;-286.33;-177.32;-107.00;1.04;32.07;24.07;-63.92 
3.334;0.14;-1.02;-0.08;-0.63;0.14;0.35;-288.32;-177.32;-108.00;1.03;32.14;24.10;-63.86 
3.365;0.14;-1.02;-0.10;0.00;0.97;0.07;-288.32;-179.24;-103.00;1.03;32.25;24.15;-63.78 
3.395;0.15;-1.02;-0.10;0.21;0.42;0.35;-288.32;-176.37;-105.00;1.04;32.32;24.16;-63.74 
3.425;0.14;-1.03;-0.11;0.63;1.04;0.77;-286.33;-177.32;-105.00;1.05;32.40;24.17;-63.69 
3.455;0.16;-1.04;-0.08;0.83;1.39;0.77;-283.34;-178.28;-102.00;1.06;32.49;24.19;-63.63 
3.485;0.14;-1.02;-0.06;0.77;0.90;0.14;-287.32;-175.41;-107.00;1.03;32.58;24.19;-63.58 
3.515;0.15;-1.00;-0.05;0.70;0.83;0.21;-285.33;-175.41;-104.00;1.01;32.64;24.20;-63.54 
3.545;0.11;-1.02;-0.06;0.28;0.63;0.35;-289.31;-175.41;-107.00;1.03;32.73;24.22;-63.48 
3.576;0.16;-1.02;-0.06;0.14;0.35;-0.63;-288.32;-175.41;-107.00;1.03;32.82;24.25;-63.42 
3.606;0.15;-1.03;-0.09;0.63;1.04;-0.63;-287.32;-176.37;-106.00;1.04;32.92;24.31;-63.33 
3.636;0.15;-1.02;-0.08;0.97;1.53;-0.14;-285.33;-178.28;-105.00;1.03;33.02;24.36;-63.25 
3.666;0.14;-1.02;-0.06;0.83;1.25;0.14;-289.31;-179.24;-104.00;1.03;33.10;24.38;-63.20 
3.695;0.12;-1.02;-0.07;0.63;0.97;0.07;-287.32;-172.53;-110.00;1.03;33.16;24.36;-63.17 
3.724;0.15;-1.02;-0.06;0.49;1.11;0.21;-288.32;-177.32;-105.00;1.03;33.20;24.36;-63.14 
3.753;0.14;-1.02;-0.07;0.63;1.39;0.83;-287.32;-177.32;-109.00;1.03;33.24;24.36;-63.11 
3.782;0.14;-1.02;-0.09;0.35;1.53;1.04;-290.30;-176.37;-103.00;1.03;33.28;24.34;-63.10 
3.811;0.14;-1.02;-0.05;0.14;1.46;1.11;-289.31;-176.37;-107.00;1.03;33.33;24.32;-63.08 
3.841;0.15;-1.03;-0.06;0.07;0.90;0.97;-288.32;-176.37;-108.00;1.04;33.33;24.31;-63.07 
3.871;0.11;-1.02;-0.08;0.35;1.32;0.56;-287.32;-175.41;-107.00;1.03;33.35;24.29;-63.07 
3.900;0.14;-1.02;-0.07;0.28;0.28;0.77;-286.33;-177.32;-107.00;1.03;33.40;24.29;-63.03 
3.930;0.14;-1.02;-0.06;0.49;0.21;-0.56;-282.35;-177.32;-104.00;1.03;33.42;24.30;-63.00 
3.960;0.14;-1.02;-0.07;0.35;-0.07;-0.35;-283.34;-177.32;-107.00;1.03;33.42;24.30;-63.00 
3.989;0.14;-1.03;-0.03;-0.14;0.00;-0.83;-285.33;-172.53;-104.00;1.04;33.47;24.33;-62.95 
4.018;0.14;-1.04;-0.07;-0.77;0.00;-1.11;-287.32;-174.45;-106.00;1.05;33.52;24.37;-62.90 
4.047;0.13;-1.03;-0.06;-1.67;-0.97;-1.95;-287.32;-179.24;-107.00;1.04;33.54;24.41;-62.86 
4.076;0.15;-1.04;-0.06;-2.02;-0.56;-2.57;-282.35;-177.32;-107.00;1.05;33.58;24.49;-62.80 
4.105;0.13;-1.02;-0.07;-2.23;-0.97;-2.30;-289.31;-180.20;-106.00;1.03;33.62;24.58;-62.74 
4.135;0.14;-1.02;-0.06;-2.23;-0.77;-1.88;-289.31;-177.32;-103.00;1.03;33.62;24.65;-62.71 
4.165;0.14;-1.03;-0.08;-2.30;-0.70;-1.88;-285.33;-179.24;-107.00;1.04;33.62;24.71;-62.68 
4.194;0.14;-1.02;-0.10;-1.67;-0.56;-1.67;-286.33;-178.28;-107.00;1.03;33.64;24.78;-62.63 
4.224;0.15;-1.02;-0.08;-1.67;-0.21;-1.81;-288.32;-182.12;-104.00;1.03;33.66;24.84;-62.59 
4.255;0.15;-1.02;-0.08;-1.88;-0.21;-1.25;-287.32;-183.07;-101.00;1.03;33.66;24.90;-62.56 
4.285;0.15;-1.03;-0.10;-2.02;-0.83;-0.97;-291.30;-180.20;-104.00;1.05;33.66;24.96;-62.53 
4.315;0.15;-1.02;-0.08;-1.53;-0.83;-0.56;-289.31;-181.16;-106.00;1.03;33.63;24.99;-62.53 
4.346;0.16;-1.02;-0.06;-1.11;-0.77;-0.14;-292.29;-179.24;-102.00;1.03;33.60;25.01;-62.52 
4.375;0.14;-1.01;-0.10;-1.11;-0.56;0.14;-289.31;-181.16;-105.00;1.02;33.54;25.01;-62.54 
4.405;0.14;-1.02;-0.10;-1.18;-0.56;0.00;-289.31;-181.16;-101.00;1.03;33.49;25.00;-62.57 
4.434;0.14;-1.02;-0.08;-0.97;0.00;-0.35;-290.30;-179.24;-106.00;1.03;33.45;25.00;-62.58 
4.463;0.15;-1.02;-0.07;-0.49;-0.14;-0.28;-288.32;-183.07;-107.00;1.03;33.44;25.01;-62.57 
4.492;0.15;-1.02;-0.10;-0.63;0.07;0.14;-290.30;-183.07;-100.00;1.04;33.43;25.02;-62.58 
4.521;0.15;-1.02;-0.14;-0.42;0.07;0.00;-291.30;-181.16;-104.00;1.04;33.38;25.00;-62.60 
4.551;0.15;-1.03;-0.08;0.00;0.14;-0.14;-287.32;-179.24;-106.00;1.04;33.38;25.02;-62.59 
4.581;0.14;-1.01;-0.09;-0.49;-0.28;0.28;-287.32;-181.16;-101.00;1.02;33.33;25.02;-62.60 
4.611;0.17;-1.02;-0.09;0.14;-0.28;0.21;-291.30;-182.12;-101.00;1.04;33.30;25.01;-62.62 
4.642;0.18;-1.04;-0.09;-0.28;-0.21;0.35;-289.31;-184.03;-107.00;1.06;33.27;24.99;-62.63 
4.672;0.14;-1.02;-0.09;-0.21;0.35;0.77;-286.33;-179.24;-102.00;1.03;33.24;24.98;-62.64 
4.702;0.17;-1.02;-0.11;-0.07;0.70;0.63;-286.33;-184.03;-107.00;1.04;33.25;24.98;-62.63 
4.732;0.14;-1.02;-0.10;-0.07;0.56;0.35;-288.32;-178.28;-105.00;1.03;33.23;24.96;-62.64 
4.762;0.15;-1.02;-0.07;-0.63;0.07;0.56;-290.30;-181.16;-105.00;1.03;33.20;24.95;-62.65 
4.792;0.15;-1.02;-0.08;-0.77;-0.42;0.83;-291.30;-180.20;-106.00;1.03;33.18;24.94;-62.67 
4.822;0.14;-1.03;-0.06;0.07;-0.21;0.70;-287.32;-183.07;-103.00;1.04;33.15;24.94;-62.67 
4.853;0.16;-1.02;-0.09;-0.07;0.07;0.21;-291.30;-184.99;-103.00;1.04;33.13;24.92;-62.68 
4.883;0.14;-1.02;-0.11;-0.28;0.42;0.63;-290.30;-182.12;-105.00;1.04;33.12;24.91;-62.68 
4.913;0.15;-1.02;-0.09;-0.07;1.32;-0.28;-287.32;-180.20;-105.00;1.03;33.08;24.88;-62.71 
4.944;0.14;-1.02;-0.10;0.42;1.18;-0.56;-290.30;-179.24;-102.00;1.03;33.11;24.89;-62.69 
4.973;0.16;-1.02;-0.06;0.49;0.56;-0.56;-289.31;-183.07;-103.00;1.03;33.13;24.91;-62.66 
5.002;0.14;-1.02;-0.08;0.70;0.56;-0.07;-291.30;-181.16;-104.00;1.03;33.14;24.91;-62.65 
5.031;0.15;-1.02;-0.09;1.04;0.49;0.07;-291.30;-181.16;-103.00;1.03;33.18;24.94;-62.61 
5.061;0.15;-1.02;-0.05;0.35;0.97;0.14;-287.32;-180.20;-105.00;1.03;33.19;24.93;-62.60 
5.091;0.14;-1.03;-0.07;0.49;0.77;0.28;-290.30;-184.03;-106.00;1.04;33.19;24.92;-62.60 
5.121;0.17;-1.04;-0.04;0.49;0.49;0.21;-287.32;-182.12;-104.00;1.05;33.16;24.89;-62.61 
5.152;0.17;-1.03;-0.09;0.56;0.56;0.00;-288.32;-180.20;-107.00;1.05;33.17;24.88;-62.60 
5.182;0.14;-1.03;-0.06;0.77;0.49;-0.14;-287.32;-180.20;-105.00;1.04;33.18;24.87;-62.60 
5.212;0.18;-1.02;-0.07;0.49;0.49;0.35;-288.32;-182.12;-106.00;1.04;33.18;24.86;-62.59 
5.243;0.14;-1.05;-0.09;0.00;0.35;0.07;-288.32;-182.12;-107.00;1.06;33.19;24.88;-62.57 
5.273;0.16;-1.04;-0.10;-0.42;0.21;0.35;-288.32;-180.20;-103.00;1.06;33.20;24.88;-62.56 
5.303;0.14;-1.02;-0.12;-0.21;-0.21;0.28;-290.30;-180.20;-105.00;1.04;33.16;24.86;-62.58 
5.333;0.15;-1.02;-0.06;0.00;0.77;-0.56;-290.30;-180.20;-103.00;1.03;33.14;24.87;-62.58 
5.362;0.14;-1.02;-0.06;-0.14;0.90;-0.49;-290.30;-181.16;-102.00;1.03;33.15;24.87;-62.57 
5.391;0.14;-1.03;-0.06;-0.35;0.21;-0.63;-288.32;-183.07;-102.00;1.04;33.14;24.87;-62.56 
5.421;0.16;-1.02;-0.10;-0.42;0.28;-1.18;-290.30;-180.20;-106.00;1.04;33.13;24.89;-62.56 
5.451;0.14;-1.04;-0.09;-0.56;-0.14;-2.30;-289.31;-183.07;-103.00;1.05;33.14;24.94;-62.52 
5.480;0.15;-1.02;-0.07;-0.28;0.56;-2.99;-288.32;-182.12;-107.00;1.03;33.18;25.01;-62.47 
5.509;0.14;-1.04;-0.05;-0.42;0.35;-2.92;-292.29;-181.16;-105.00;1.05;33.23;25.08;-62.41 
5.539;0.17;-1.03;-0.07;-0.97;0.56;-2.78;-289.31;-185.95;-102.00;1.05;33.31;25.15;-62.34 
5.568;0.15;-1.02;-0.10;-1.60;0.00;-3.34;-289.31;-182.12;-106.00;1.04;33.36;25.24;-62.27 
5.597;0.17;-1.02;-0.06;-1.11;0.07;-3.76;-290.30;-184.03;-103.00;1.04;33.40;25.31;-62.22 
5.626;0.16;-1.02;-0.07;-1.32;-0.07;-3.55;-289.31;-188.83;-103.00;1.03;33.46;25.41;-62.15 
5.656;0.15;-1.02;-0.08;-1.53;0.14;-2.85;-291.30;-184.99;-106.00;1.03;33.47;25.48;-62.11 
5.686;0.17;-1.02;-0.09;-1.32;-0.77;-3.27;-291.30;-185.95;-103.00;1.04;33.51;25.56;-62.05 
5.716;0.16;-1.02;-0.08;-1.53;-0.77;-2.50;-290.30;-187.87;-100.00;1.04;33.53;25.64;-62.00 
5.746;0.17;-1.02;-0.09;-2.50;-1.18;-2.64;-295.27;-185.95;-102.00;1.04;33.54;25.71;-61.96 
5.776;0.18;-1.04;-0.02;-3.27;-2.09;-2.02;-293.29;-186.91;-102.00;1.06;33.49;25.80;-61.95 
5.806;0.17;-1.03;-0.10;-3.69;-2.43;-1.74;-293.29;-188.83;-101.00;1.05;33.42;25.85;-61.96 
5.837;0.16;-1.02;-0.09;-4.38;-1.81;-2.71;-290.30;-187.87;-101.00;1.04;33.36;25.92;-61.95 
5.867;0.19;-1.05;-0.12;-4.73;-1.11;-4.94;-293.29;-188.83;-101.00;1.07;33.37;26.04;-61.89 
5.897;0.15;-1.03;-0.07;-5.29;-2.23;-6.33;-299.25;-192.66;-101.00;1.04;33.42;26.21;-61.79 
5.927;0.19;-1.02;-0.10;-5.91;-2.92;-7.72;-294.28;-190.74;-99.00;1.04;33.48;26.42;-61.67 
5.957;0.18;-1.06;-0.13;-7.10;-3.27;-8.90;-297.26;-196.49;-96.00;1.08;33.54;26.67;-61.52 
5.987;0.18;-0.99;-0.14;-10.99;-5.22;-6.61;-300.25;-195.54;-95.00;1.02;33.58;26.91;-61.38 
6.017;0.19;-1.02;-0.11;-9.25;-1.46;-10.30;-295.27;-199.37;-96.00;1.04;33.69;27.20;-61.19 
6.048;0.19;-1.02;-0.14;-8.35;-0.83;-10.37;-302.23;-201.29;-96.00;1.05;33.80;27.51;-60.99 
6.078;0.24;-1.02;-0.12;-8.07;-2.16;-9.46;-301.24;-205.12;-91.00;1.05;33.89;27.80;-60.81 
6.108;0.23;-1.02;-0.13;-6.61;-2.37;-8.70;-301.24;-205.12;-88.00;1.05;33.96;28.06;-60.63 
6.139;0.22;-1.00;-0.17;-3.34;-1.32;-6.96;-303.23;-208.00;-91.00;1.04;34.04;28.30;-60.46 
6.169;0.24;-1.02;-0.14;-1.18;-0.14;-5.08;-306.21;-208.00;-90.00;1.06;34.09;28.46;-60.35 
6.199;0.25;-1.00;-0.14;0.14;0.07;-4.38;-305.22;-210.87;-89.00;1.04;34.21;28.62;-60.21 
6.229;0.24;-1.00;-0.13;1.39;-0.83;-2.09;-306.21;-213.75;-87.00;1.04;34.25;28.71;-60.13 
6.259;0.22;-1.01;-0.13;1.32;-0.49;-0.56;-306.21;-212.79;-86.00;1.04;34.25;28.73;-60.12 
6.289;0.26;-1.02;-0.14;0.90;-0.63;1.11;-306.21;-212.79;-88.00;1.06;34.20;28.72;-60.14 
6.319;0.24;-0.99;-0.15;-0.07;-1.04;2.30;-310.19;-210.87;-91.00;1.03;34.12;28.66;-60.19 
6.350;0.22;-1.01;-0.15;-0.63;0.49;3.20;-305.22;-209.91;-90.00;1.04;33.96;28.54;-60.33 
6.379;0.22;-1.02;-0.14;-0.83;0.49;3.27;-304.22;-214.71;-90.00;1.05;33.80;28.42;-60.46 
6.408;0.22;-1.03;-0.14;-0.35;1.25;2.30;-305.22;-210.87;-93.00;1.06;33.68;28.32;-60.56 
6.437;0.22;-1.02;-0.13;0.35;1.04;2.64;-306.21;-208.00;-89.00;1.05;33.60;28.23;-60.64 
6.467;0.22;-1.02;-0.11;0.42;-0.35;2.92;-302.23;-208.00;-87.00;1.05;33.49;28.12;-60.74 
6.497;0.22;-1.04;-0.14;0.77;0.70;2.30;-306.21;-204.16;-89.00;1.07;33.36;28.02;-60.85 
6.527;0.22;-1.02;-0.14;1.18;1.88;1.74;-303.23;-207.04;-90.00;1.05;33.30;27.94;-60.91 
6.557;0.24;-1.01;-0.14;1.46;2.30;1.88;-304.22;-208.00;-88.00;1.05;33.26;27.86;-60.97 
6.587;0.21;-1.02;-0.13;2.02;1.88;1.60;-308.20;-206.08;-89.00;1.05;33.20;27.79;-61.03 
6.617;0.20;-1.02;-0.13;2.09;0.70;1.18;-304.22;-205.12;-89.00;1.05;33.19;27.73;-61.07 
6.648;0.20;-1.02;-0.11;1.67;0.56;0.97;-302.23;-203.20;-91.00;1.05;33.13;27.66;-61.12 
6.678;0.21;-1.03;-0.10;1.39;0.49;-0.35;-301.24;-204.16;-90.00;1.06;33.12;27.63;-61.14 
6.708;0.23;-1.02;-0.12;1.53;0.77;-0.63;-302.23;-204.16;-91.00;1.05;33.13;27.64;-61.12 
6.738;0.20;-1.02;-0.10;0.77;0.42;-0.56;-304.22;-206.08;-91.00;1.04;33.11;27.62;-61.13 
6.768;0.21;-1.01;-0.11;-0.07;0.21;-0.97;-297.26;-205.12;-90.00;1.04;33.11;27.64;-61.12 
6.797;0.22;-1.00;-0.10;-0.07;0.00;-0.49;-302.23;-205.12;-92.00;1.03;33.11;27.65;-61.11 
6.827;0.22;-1.03;-0.13;-0.28;-0.21;0.42;-303.23;-205.12;-94.00;1.06;33.07;27.65;-61.12 
6.858;0.21;-1.00;-0.09;0.21;-0.07;0.56;-303.23;-206.08;-93.00;1.03;33.01;27.62;-61.16 
6.888;0.20;-1.01;-0.12;0.35;0.83;0.14;-303.23;-205.12;-96.00;1.04;32.99;27.61;-61.17 
6.918;0.21;-1.02;-0.15;0.56;1.18;0.00;-301.24;-207.04;-91.00;1.05;32.95;27.58;-61.19 
6.949;0.21;-1.02;-0.13;0.77;1.39;-0.35;-305.22;-205.12;-90.00;1.05;32.95;27.57;-61.20 
6.979;0.23;-1.04;-0.11;0.97;1.32;-0.70;-300.25;-204.16;-98.00;1.07;32.95;27.56;-61.20 
7.009;0.21;-1.02;-0.12;1.60;1.32;-0.35;-298.26;-205.12;-94.00;1.05;32.97;27.57;-61.18 
7.039;0.21;-1.05;-0.12;1.53;1.60;0.28;-305.22;-206.08;-93.00;1.08;33.01;27.57;-61.16 
7.069;0.20;-1.02;-0.10;1.18;1.11;0.21;-304.22;-205.12;-94.00;1.04;33.00;27.53;-61.18 
7.099;0.19;-1.02;-0.14;0.63;0.97;0.14;-303.23;-204.16;-95.00;1.05;32.98;27.51;-61.20 
7.129;0.22;-1.01;-0.13;0.63;1.60;0.49;-299.25;-207.04;-96.00;1.04;32.99;27.50;-61.20 
7.159;0.22;-1.02;-0.14;0.70;1.18;0.83;-300.25;-206.08;-93.00;1.05;32.97;27.47;-61.21 
7.188;0.22;-1.02;-0.09;1.25;2.37;0.21;-303.23;-208.95;-93.00;1.05;32.96;27.46;-61.22 
7.217;0.22;-1.02;-0.12;1.11;2.30;-0.63;-300.25;-206.08;-96.00;1.05;32.99;27.45;-61.21 
7.247;0.21;-1.02;-0.11;1.04;0.49;0.35;-301.24;-206.08;-97.00;1.05;33.01;27.44;-61.20 
7.277;0.19;-1.00;-0.10;-0.63;0.14;0.49;-300.25;-204.16;-95.00;1.02;33.02;27.44;-61.20 
7.307;0.22;-1.02;-0.13;-1.04;0.07;0.42;-300.25;-205.12;-95.00;1.05;32.96;27.41;-61.23 
7.337;0.21;-1.02;-0.11;-0.90;0.14;0.42;-304.22;-205.12;-94.00;1.05;32.92;27.39;-61.26 
7.367;0.16;-1.05;-0.12;-0.83;-0.07;0.07;-301.24;-205.12;-94.00;1.07;32.85;27.36;-61.30 
7.397;0.21;-1.04;-0.10;-1.39;-0.28;0.21;-300.25;-204.16;-97.00;1.07;32.81;27.34;-61.32 
7.427;0.20;-1.02;-0.10;-1.67;-0.21;-0.28;-301.24;-202.24;-96.00;1.04;32.78;27.35;-61.33 
7.458;0.19;-1.02;-0.12;-2.71;-1.46;-0.63;-303.23;-205.12;-96.00;1.04;32.72;27.36;-61.35 
7.488;0.22;-1.03;-0.11;-2.43;-0.83;-0.77;-301.24;-206.08;-95.00;1.06;32.65;27.37;-61.37 
7.517;0.22;-1.02;-0.16;-1.53;-0.21;-0.97;-301.24;-204.16;-89.00;1.06;32.59;27.39;-61.38 
7.546;0.21;-1.01;-0.14;-0.63;0.70;-0.70;-303.23;-205.12;-94.00;1.04;32.57;27.41;-61.38 
7.575;0.20;-1.02;-0.12;-0.63;0.35;0.00;-302.23;-204.16;-96.00;1.05;32.57;27.43;-61.36 
7.604;0.22;-1.02;-0.13;-0.83;-0.35;0.56;-300.25;-207.04;-94.00;1.05;32.53;27.40;-61.39 
7.634;0.23;-1.02;-0.12;-0.49;-0.77;0.63;-300.25;-204.16;-95.00;1.05;32.47;27.37;-61.43 
7.664;0.22;-1.03;-0.10;-0.35;-1.04;0.90;-301.24;-206.08;-93.00;1.06;32.41;27.34;-61.46 
7.694;0.21;-1.02;-0.10;-0.49;-0.77;1.11;-303.23;-204.16;-95.00;1.05;32.35;27.33;-61.49 
7.724;0.22;-1.01;-0.14;-0.28;0.07;0.77;-303.23;-204.16;-92.00;1.04;32.29;27.29;-61.53 
7.755;0.22;-1.02;-0.13;-0.83;-0.28;0.63;-305.22;-206.08;-94.00;1.05;32.25;27.27;-61.56 
7.785;0.22;-1.02;-0.11;-1.32;-0.42;0.56;-304.22;-206.08;-94.00;1.05;32.21;27.26;-61.58 
7.815;0.19;-1.02;-0.12;-0.90;-1.04;0.49;-300.25;-204.16;-92.00;1.04;32.13;27.23;-61.62 
7.846;0.20;-1.02;-0.14;-0.97;-2.30;0.77;-303.23;-208.95;-91.00;1.05;32.04;27.19;-61.67 
7.876;0.18;-1.02;-0.14;-0.83;-1.39;0.49;-304.22;-206.08;-93.00;1.05;31.99;27.18;-61.69 
7.906;0.19;-1.02;-0.10;-0.63;-0.21;-0.14;-302.23;-204.16;-93.00;1.04;31.93;27.17;-61.72 
7.936;0.22;-1.02;-0.10;-0.77;-0.42;-0.07;-299.25;-204.16;-93.00;1.05;31.91;27.17;-61.72 
7.965;0.22;-1.04;-0.10;-1.04;-0.35;-0.07;-300.25;-205.12;-93.00;1.07;31.88;27.19;-61.71 
7.994;0.20;-1.02;-0.16;-1.11;-0.35;-0.28;-302.23;-203.20;-93.00;1.05;31.86;27.20;-61.72 
8.023;0.19;-1.02;-0.13;-1.11;0.35;-0.49;-301.24;-204.16;-92.00;1.05;31.84;27.21;-61.72 
8.053;0.20;-1.02;-0.10;-0.83;0.49;-0.97;-303.23;-205.12;-93.00;1.04;31.84;27.24;-61.70 
8.083;0.20;-1.00;-0.16;-0.14;0.21;-0.35;-300.25;-205.12;-92.00;1.03;31.83;27.26;-61.69 
8.113;0.20;-1.03;-0.10;0.21;0.21;-0.28;-299.25;-207.04;-89.00;1.05;31.86;27.29;-61.66 
8.144;0.21;-1.02;-0.15;-0.35;0.42;-0.56;-302.23;-204.16;-94.00;1.05;31.85;27.29;-61.65 
8.174;0.22;-1.01;-0.15;-0.42;1.11;-0.28;-301.24;-208.00;-92.00;1.04;31.83;27.30;-61.65 
8.204;0.19;-1.02;-0.18;0.42;1.60;-0.28;-301.24;-204.16;-92.00;1.05;31.83;27.31;-61.65 
8.234;0.20;-1.02;-0.13;1.04;0.63;0.14;-300.25;-203.20;-92.00;1.05;31.84;27.31;-61.63 
8.264;0.20;-1.02;-0.14;1.53;1.39;0.28;-305.22;-207.04;-93.00;1.05;31.88;27.33;-61.60 
8.294;0.21;-1.01;-0.12;1.39;0.83;0.28;-303.23;-205.12;-96.00;1.04;31.90;27.31;-61.60 
8.324;0.22;-1.02;-0.12;1.04;1.11;-0.35;-302.23;-207.04;-94.00;1.05;31.90;27.31;-61.60 
8.355;0.23;-1.02;-0.12;1.74;1.46;-0.21;-302.23;-207.04;-91.00;1.05;31.91;27.30;-61.59 
8.385;0.22;-1.02;-0.14;1.39;1.18;0.49;-299.25;-207.04;-96.00;1.05;31.91;27.30;-61.59 
8.415;0.19;-1.02;-0.16;1.25;2.30;0.07;-301.24;-202.24;-97.00;1.05;31.94;27.28;-61.58 
8.445;0.22;-1.04;-0.11;0.90;1.81;-0.35;-299.25;-207.04;-92.00;1.07;31.97;27.29;-61.56 
8.474;0.19;-1.02;-0.14;1.39;1.95;-0.42;-302.23;-202.24;-92.00;1.05;32.00;27.29;-61.54 
8.503;0.20;-1.01;-0.13;2.23;1.39;0.00;-301.24;-204.16;-95.00;1.04;32.02;27.30;-61.52 
8.533;0.22;-1.02;-0.02;5.98;-1.32;1.74;-299.25;-206.08;-94.00;1.04;32.08;27.30;-61.49 
8.563;0.19;-1.02;-0.09;10.50;-7.86;8.49;-300.25;-205.12;-96.00;1.04;32.04;27.22;-61.52 
8.593;0.19;-1.02;-0.06;1.88;-6.96;7.17;-301.24;-203.20;-100.00;1.04;31.84;26.99;-61.68 
8.623;0.22;-1.05;-0.14;-3.13;-10.09;4.38;-300.25;-202.24;-101.00;1.08;31.55;26.88;-61.85 
8.654;0.18;-1.01;-0.14;4.66;-5.77;6.19;-296.27;-200.33;-102.00;1.04;31.32;26.77;-62.00 
8.684;0.22;-0.94;-0.16;1.53;-0.90;7.10;-298.26;-197.45;-102.00;0.98;31.14;26.63;-62.13 
8.714;0.19;-0.96;-0.18;4.59;-3.83;8.56;-296.27;-200.33;-105.00;1.00;30.97;26.47;-62.27 
8.744;0.15;-1.02;-0.16;5.50;1.11;2.57;-294.28;-197.45;-103.00;1.04;30.82;26.32;-62.40 
8.774;0.18;-1.02;-0.06;3.62;4.52;-2.37;-297.26;-198.41;-107.00;1.04;30.91;26.30;-62.35 
8.804;0.18;-1.01;-0.10;1.32;4.66;-0.77;-294.28;-198.41;-105.00;1.03;31.08;26.36;-62.23 
8.833;0.15;-1.02;-0.14;1.95;7.37;0.07;-295.27;-198.41;-104.00;1.04;31.16;26.37;-62.19 
8.863;0.17;-1.08;-0.09;3.83;10.92;-0.90;-294.28;-197.45;-105.00;1.10;31.30;26.35;-62.13 
8.892;0.18;-1.08;-0.03;2.99;7.72;0.77;-293.29;-200.33;-104.00;1.10;31.45;26.33;-62.06 
8.921;0.18;-1.05;-0.04;-0.42;6.12;0.00;-293.29;-197.45;-106.00;1.07;31.78;26.45;-61.83 
8.952;0.20;-1.04;-0.06;-5.63;-1.25;-1.25;-296.27;-196.49;-103.00;1.06;32.05;26.64;-61.61 
8.982;0.15;-1.02;-0.14;-6.68;-3.90;-2.30;-297.26;-195.54;-105.00;1.04;32.02;26.73;-61.58 
9.012;0.18;-1.04;-0.14;-5.36;-0.90;-5.29;-297.26;-200.33;-102.00;1.06;31.96;26.83;-61.58 
9.042;0.16;-1.02;-0.14;-2.92;0.35;-5.84;-297.26;-201.29;-99.00;1.04;32.03;26.98;-61.48 
9.072;0.19;-1.02;-0.12;-0.90;0.63;-7.03;-300.25;-199.37;-104.00;1.04;32.15;27.15;-61.34 
9.102;0.21;-1.01;-0.10;1.04;1.74;-6.89;-298.26;-203.20;-102.00;1.04;32.33;27.34;-61.16 
9.132;0.21;-1.03;-0.08;3.20;-0.83;-5.84;-300.25;-203.20;-106.00;1.05;32.52;27.52;-60.98 
9.163;0.17;-1.02;-0.06;1.88;-0.49;-6.05;-297.26;-201.29;-102.00;1.04;32.68;27.65;-60.82 
9.193;0.18;-1.04;-0.04;-6.82;-0.97;-10.37;-295.27;-208.00;-103.00;1.06;32.84;27.86;-60.64 
9.223;0.19;-1.06;-0.10;-8.00;2.99;-13.70;-302.23;-208.00;-99.00;1.08;33.03;28.18;-60.41 
9.254;0.19;-1.03;-0.11;-6.12;8.90;-18.30;-302.23;-211.83;-101.00;1.05;33.37;28.57;-60.08 
9.284;0.22;-1.02;-0.11;-4.73;11.76;-19.27;-306.21;-215.66;-96.00;1.05;33.91;29.05;-59.61 
9.314;0.23;-1.02;-0.12;-1.11;12.87;-21.77;-305.22;-218.54;-96.00;1.05;34.48;29.54;-59.13 
9.344;0.27;-1.02;-0.06;-0.83;11.69;-22.47;-310.19;-219.50;-95.00;1.06;35.17;30.07;-58.57 
