Time(s) acc_x(g) acc_y(g) acc_z(g) gyr_x(°/s) gyr_y(°/s) gyr_z(°/s) mag_x(G) mag_y(G) mag_z(G) SVM(g) yaw(°) pitch(°) roll(°)
0.000;-0.21;0.16;0.82;-1.67;-14.68;-12.10;-50.00;-132.31;-417.65;0.86;123.89;-10.56;14.97 
0.030;-0.18;0.07;0.82;-2.37;-13.01;-19.69;-55.00;-136.14;-418.65;0.84;124.73;-10.20;14.86 
0.060;-0.29;0.04;0.89;-4.87;-5.01;-25.81;-54.00;-137.10;-414.65;0.94;125.68;-10.12;14.60 
0.090;-0.24;0.14;0.90;-4.10;-6.61;-30.89;-58.00;-141.90;-416.65;0.94;126.83;-10.21;14.31 
0.121;-0.18;0.27;0.84;0.14;2.99;-26.85;-55.00;-149.57;-416.65;0.90;128.00;-10.31;14.16 
0.151;-0.22;0.22;1.02;13.36;16.14;-19.06;-57.00;-145.73;-415.65;1.07;128.89;-10.76;14.38 
0.181;-0.35;0.22;1.12;20.80;7.03;-13.70;-50.00;-145.73;-421.64;1.19;129.63;-11.31;14.87 
0.212;-0.45;0.26;1.06;21.50;-10.50;-8.56;-48.00;-145.73;-422.64;1.18;130.49;-11.39;15.51 
0.242;-0.60;0.14;0.98;30.26;-7.23;-2.71;-42.00;-148.61;-421.64;1.16;131.15;-11.41;16.26 
0.272;-0.62;0.04;0.77;22.82;-26.02;-4.03;-36.00;-150.52;-425.64;0.99;131.84;-11.32;17.00 
0.302;-0.44;-0.16;0.59;-0.28;-33.60;-11.20;-33.00;-157.24;-426.64;0.75;132.61;-10.81;17.26 
0.332;-0.43;-0.14;0.61;-22.47;-14.89;-31.23;-36.00;-161.07;-426.64;0.76;133.72;-10.56;16.52 
0.361;-0.51;0.09;0.87;-20.38;7.23;-36.87;-39.00;-166.82;-424.64;1.01;134.86;-11.04;15.57 
0.391;-0.40;0.33;1.07;-15.86;-5.91;-16.97;-46.00;-168.74;-425.64;1.19;135.86;-11.68;14.88 
0.422;-0.47;0.21;0.86;-24.00;-32.35;13.22;-53.00;-175.45;-423.64;1.00;136.10;-11.21;14.36 
0.452;-0.35;0.00;0.74;-28.59;-28.52;22.19;-59.00;-177.37;-413.65;0.82;135.86;-10.37;13.74 
0.482;-0.30;-0.09;0.71;-28.31;-5.91;19.90;-65.00;-180.25;-418.65;0.78;135.42;-9.90;12.97 
0.512;-0.23;-0.22;0.83;-30.75;5.29;4.87;-72.00;-176.41;-412.65;0.89;135.08;-9.93;11.92 
0.542;-0.19;-0.11;0.95;-30.33;-8.83;0.35;-81.00;-174.49;-406.66;0.98;135.11;-9.97;10.80 
0.572;-0.22;0.04;0.92;-30.12;-22.26;8.14;-88.00;-181.20;-407.66;0.95;135.14;-9.54;9.90 
0.601;-0.17;0.02;0.90;-28.31;-28.10;12.38;-95.00;-183.12;-402.66;0.92;135.10;-8.78;9.08 
0.630;-0.11;-0.09;0.86;-27.90;-26.85;12.66;-101.00;-186.96;-402.66;0.87;134.96;-7.88;8.24 
0.660;-0.14;-0.10;0.85;-24.90;-27.69;13.84;-101.00;-187.92;-398.66;0.87;134.83;-7.05;7.44 
0.690;-0.13;-0.08;0.79;-23.23;-25.32;13.57;-115.00;-191.75;-393.67;0.80;134.68;-6.18;6.67 
0.721;-0.10;-0.14;0.75;-16.56;-12.38;16.83;-118.00;-199.42;-387.67;0.77;134.43;-5.55;5.97 
0.751;-0.12;-0.21;0.70;-12.24;-0.56;10.64;-123.00;-193.67;-387.67;0.74;134.21;-5.29;5.38 
0.781;-0.08;-0.17;0.72;-10.16;16.35;6.82;-124.00;-193.67;-388.67;0.74;134.14;-5.47;4.88 
0.810;-0.12;-0.18;0.80;-5.08;23.03;5.08;-126.00;-185.04;-384.68;0.83;134.11;-6.06;4.50 
0.839;-0.10;-0.11;0.90;1.18;20.52;6.47;-126.00;-181.20;-383.68;0.91;134.12;-6.71;4.34 
0.869;-0.09;-0.09;0.79;3.20;18.78;11.13;-126.00;-177.37;-385.68;0.80;134.04;-7.24;4.39 
0.899;-0.12;-0.07;0.74;0.90;26.57;10.16;-127.00;-170.66;-390.67;0.75;133.88;-7.82;4.46 
0.929;-0.17;-0.13;0.80;-3.62;40.14;4.73;-123.00;-160.11;-382.68;0.83;133.77;-8.75;4.43 
0.959;-0.26;-0.22;0.97;-3.41;46.54;-1.46;-129.00;-151.48;-383.68;1.03;133.76;-10.02;4.24 
0.989;-0.38;-0.26;1.20;-3.55;33.88;-15.03;-126.00;-141.90;-386.67;1.29;134.01;-11.41;3.95 
1.020;-0.28;0.05;1.19;-6.75;-15.10;-22.68;-126.00;-138.06;-382.68;1.22;134.80;-11.88;3.63 
1.050;-0.16;0.17;0.88;-19.27;-37.50;-7.10;-131.00;-145.73;-381.68;0.91;135.58;-11.01;3.32 
1.079;-0.07;-0.11;0.63;-28.24;-12.24;1.25;-136.00;-152.44;-376.68;0.64;135.89;-10.11;2.74 
1.108;-0.06;-0.29;0.69;-30.26;32.14;-8.21;-144.00;-145.73;-373.69;0.75;136.06;-10.24;1.71 
1.138;-0.18;-0.33;0.99;-38.19;49.11;-16.90;-151.00;-141.90;-368.69;1.06;136.39;-11.46;0.39 
1.168;-0.37;-0.40;1.11;-38.12;33.53;-27.69;-157.00;-134.23;-363.69;1.24;137.01;-12.74;-1.09 
1.198;-0.29;-0.46;1.20;-28.73;22.68;-34.02;-165.00;-130.39;-355.70;1.32;137.97;-13.56;-2.55 
1.228;-0.28;-0.36;1.30;-11.83;29.01;-23.10;-178.00;-130.39;-358.70;1.38;138.98;-14.23;-3.59 
1.258;-0.33;-0.15;1.24;-2.92;38.33;-3.48;-181.00;-124.64;-354.70;1.29;139.55;-15.14;-3.99 
1.288;-0.46;-0.11;1.11;2.23;34.92;16.77;-186.00;-116.01;-351.70;1.21;139.46;-16.26;-3.98 
1.319;-0.44;-0.06;0.91;13.01;31.03;35.83;-180.00;-98.75;-356.70;1.01;138.76;-17.41;-3.56 
1.349;-0.43;-0.10;0.81;22.19;29.84;45.63;-178.00;-89.16;-359.70;0.92;137.64;-18.56;-2.64 
1.379;-0.47;-0.21;0.78;19.34;15.58;44.31;-172.00;-80.54;-363.69;0.93;136.43;-19.52;-1.69 
1.409;-0.42;-0.20;0.72;19.55;-1.46;31.44;-163.00;-69.99;-367.69;0.86;135.53;-19.95;-0.94 
1.439;-0.35;0.00;0.67;27.55;-7.17;38.33;-156.00;-64.24;-380.68;0.76;134.87;-19.96;-0.01 
1.469;-0.49;0.22;0.64;37.70;-8.90;52.80;-149.00;-63.28;-384.68;0.84;133.91;-19.87;1.45 
1.499;-0.50;0.23;0.69;37.08;1.81;65.18;-138.00;-56.57;-393.67;0.88;132.56;-19.94;3.33 
1.530;-0.35;0.02;0.73;35.62;-2.78;80.42;-124.00;-48.90;-400.66;0.81;130.76;-19.94;5.24 
1.560;-0.42;-0.08;0.68;44.52;-7.86;82.02;-102.00;-35.47;-409.65;0.80;128.76;-19.60;7.17 
1.590;-0.47;0.03;0.69;50.64;-0.42;71.86;-84.00;-29.72;-418.65;0.84;126.98;-19.31;9.16 
1.621;-0.50;0.11;0.63;45.63;10.43;66.30;-68.00;-27.80;-424.64;0.81;125.37;-19.29;11.23 
1.651;-0.46;0.14;0.71;35.41;22.40;62.12;-57.00;-21.09;-431.64;0.86;123.75;-19.59;13.12 
1.681;-0.34;0.19;0.78;33.53;21.36;56.77;-32.00;-5.75;-434.63;0.87;122.14;-19.96;14.65 
1.711;-0.50;0.27;0.75;37.29;15.79;51.48;-19.00;-1.92;-435.63;0.94;120.79;-20.21;16.26 
1.742;-0.54;0.18;0.72;35.48;6.89;49.25;-6.00;4.79;-441.63;0.92;119.52;-20.28;17.93 
1.772;-0.42;0.14;0.70;31.23;-2.99;33.39;7.00;7.67;-443.63;0.83;118.68;-20.20;19.24 
1.802;-0.29;0.17;0.67;25.39;-13.36;24.77;20.00;6.71;-447.62;0.75;118.31;-19.80;20.31 
1.833;-0.23;0.20;0.54;19.62;-9.95;15.23;25.00;4.79;-451.62;0.62;118.42;-19.21;21.17 
1.863;-0.29;0.22;0.44;12.24;-0.14;5.50;33.00;2.88;-452.62;0.57;118.51;-18.99;21.78 
1.893;-0.27;0.26;0.43;9.67;19.20;0.63;36.00;2.88;-453.62;0.57;118.62;-19.31;22.22 
1.923;-0.31;0.26;0.56;9.18;38.82;-4.59;41.00;13.42;-452.62;0.69;118.54;-20.22;22.57 
1.953;-0.48;0.23;0.74;9.11;45.01;-11.62;42.00;20.13;-446.62;0.91;118.41;-21.66;22.73 
1.983;-0.46;0.26;0.83;4.45;39.23;-20.73;44.00;29.72;-446.62;0.98;118.48;-23.16;22.69 
2.013;-0.42;0.34;0.86;6.05;23.58;-24.56;43.00;38.35;-442.63;1.02;118.92;-24.42;22.46 
2.044;-0.52;0.46;0.80;8.77;10.92;-18.50;40.00;41.23;-439.63;1.06;119.65;-25.17;22.40 
2.074;-0.51;0.36;0.85;8.28;20.52;-8.70;43.00;46.98;-439.63;1.05;120.12;-25.85;22.52 
2.104;-0.43;0.26;1.09;18.09;6.12;-9.25;43.00;46.98;-438.63;1.20;120.39;-26.46;22.64 
2.133;-0.46;0.27;0.96;19.62;-33.74;-21.08;50.00;46.02;-439.63;1.10;121.51;-26.25;22.84 
2.162;-0.38;0.43;0.69;11.41;-26.37;-29.63;50.00;35.47;-450.62;0.90;123.32;-25.60;22.88 
2.192;-0.46;0.47;0.74;10.30;21.77;-26.50;47.00;35.47;-448.62;0.99;124.57;-25.84;22.91 
2.222;-0.52;0.51;1.04;9.25;45.98;-26.78;50.00;41.23;-444.63;1.27;125.15;-27.14;22.88 
2.251;-0.65;0.42;1.10;-14.40;-4.24;-20.94;44.00;44.10;-446.62;1.34;125.66;-28.21;22.50 
2.281;-0.74;0.25;0.86;-23.65;-37.15;-26.30;40.00;42.19;-445.62;1.16;126.63;-28.04;21.61 
2.311;-0.87;0.10;0.70;-22.82;-43.48;-39.10;28.00;25.89;-451.62;1.12;128.20;-27.59;20.41 
2.342;-0.83;-0.07;0.69;-23.93;-33.18;-58.16;15.00;11.51;-453.62;1.08;130.24;-27.45;18.87 
2.372;-0.79;0.14;0.54;-25.11;-16.90;-65.39;3.00;3.84;-453.62;0.97;132.45;-27.76;17.07 
2.402;-0.55;0.31;0.58;-24.35;10.09;-65.18;-12.00;-6.71;-455.62;0.86;134.40;-28.55;15.48 
2.432;-0.26;0.20;0.74;-27.34;34.78;-46.19;-27.00;-9.59;-444.63;0.81;135.74;-29.74;14.03 
2.462;-0.48;0.27;0.80;-36.24;25.74;-28.52;-39.00;-4.79;-437.63;0.97;136.32;-30.92;12.66 
2.492;-0.61;0.25;0.74;-41.53;-4.31;-26.99;-51.00;-7.67;-434.63;0.99;136.67;-31.53;11.33 
2.522;-0.42;0.01;0.66;-48.00;-25.18;-27.41;-64.00;-14.38;-429.64;0.78;137.26;-31.40;9.77 
2.553;-0.21;-0.25;0.60;-37.98;-36.24;-30.61;-84.00;-27.80;-423.64;0.68;138.28;-30.50;7.88 
2.583;-0.27;-0.14;0.55;-24.00;-15.93;-32.83;-91.00;-37.39;-425.64;0.63;139.58;-29.64;6.14 
2.613;-0.51;0.00;0.66;-26.02;-0.83;-31.79;-102.00;-43.14;-420.65;0.83;140.58;-29.62;4.85 
2.643;-0.43;-0.10;0.86;-30.89;-14.33;-31.58;-111.00;-46.98;-415.65;0.97;141.46;-29.50;3.55 
2.672;-0.36;-0.16;0.88;-24.42;-29.50;-34.92;-121.00;-57.53;-411.65;0.96;142.60;-28.88;2.18 
2.702;-0.52;-0.14;0.85;-27.90;-40.35;-34.30;-130.00;-70.95;-410.65;1.01;143.81;-27.93;0.91 
2.732;-0.45;0.00;0.79;-20.87;-51.06;-34.85;-142.00;-80.54;-410.65;0.91;145.19;-26.62;-0.30 
2.762;-0.26;-0.09;0.64;-15.65;-48.28;-22.12;-144.00;-95.88;-407.66;0.70;146.44;-25.06;-1.24 
2.792;-0.20;-0.22;0.58;-15.37;-18.30;-21.15;-152.00;-105.46;-404.66;0.65;147.42;-23.78;-2.11 
2.822;-0.25;-0.10;0.69;-14.54;9.81;-22.82;-157.00;-114.09;-408.66;0.74;148.25;-23.58;-2.99 
2.853;-0.29;-0.11;0.77;-8.90;2.92;-18.37;-161.00;-111.22;-402.66;0.83;148.96;-23.75;-3.64 
2.883;-0.26;-0.07;0.64;-8.83;10.30;-18.09;-162.00;-116.97;-401.66;0.69;149.70;-23.71;-4.14 
2.913;-0.37;-0.13;0.72;-15.65;21.77;-12.03;-166.00;-116.97;-399.66;0.82;150.11;-24.19;-4.73 
2.944;-0.37;-0.17;0.78;-6.19;24.83;-6.96;-170.00;-108.34;-400.66;0.88;150.38;-24.85;-5.25 
2.974;-0.29;-0.25;0.75;-1.25;14.82;-9.18;-172.00;-108.34;-397.66;0.84;150.68;-25.39;-5.67 
3.004;-0.32;-0.21;0.65;1.25;37.50;-8.97;-174.00;-105.46;-396.67;0.75;151.10;-25.94;-5.98 
3.034;-0.51;-0.26;0.84;1.60;58.37;-14.26;-174.00;-96.83;-394.67;1.02;151.37;-27.33;-6.23 
3.065;-0.54;-0.25;1.20;3.41;40.49;-27.97;-174.00;-86.29;-391.67;1.34;151.92;-28.92;-6.59 
3.095;-0.44;-0.26;0.92;-0.70;-23.30;-38.05;-177.00;-87.25;-391.67;1.05;153.08;-28.91;-7.23 
3.125;-0.19;-0.26;0.62;-3.90;-5.63;-44.80;-176.00;-98.75;-393.67;0.70;154.62;-28.09;-8.09 
3.156;-0.27;-0.21;0.62;-0.49;26.43;-36.38;-179.00;-102.59;-388.67;0.71;156.05;-27.96;-9.01 
3.186;-0.38;-0.12;0.97;6.33;37.84;-22.54;-183.00;-101.63;-386.67;1.05;157.08;-28.72;-9.48 
3.216;-0.50;-0.26;1.06;12.24;6.61;-16.56;-182.00;-97.79;-390.67;1.20;157.79;-29.25;-9.57 
3.246;-0.50;-0.37;0.86;6.19;-3.83;-30.75;-178.00;-99.71;-392.67;1.06;158.75;-29.05;-9.80 
3.275;-0.40;-0.33;0.91;0.35;7.72;-38.19;-182.00;-111.22;-392.67;1.05;160.07;-28.84;-10.49 
3.304;-0.42;-0.24;1.01;2.23;6.47;-34.23;-183.00;-115.05;-391.67;1.12;161.28;-28.78;-11.13 
3.334;-0.38;-0.11;0.87;3.76;-12.31;-30.89;-184.00;-118.89;-393.67;0.96;162.49;-28.40;-11.55 
3.365;-0.34;-0.20;0.75;-2.71;-20.31;-24.14;-185.00;-122.72;-395.67;0.85;163.59;-27.63;-11.97 
3.395;-0.38;-0.49;0.78;-11.41;-11.69;-33.74;-185.00;-132.31;-391.67;1.00;164.58;-26.82;-12.81 
3.425;-0.48;-0.38;0.84;-8.14;7.93;-48.70;-187.00;-141.90;-391.67;1.04;165.86;-26.37;-14.00 
3.456;-0.49;-0.19;0.94;-0.21;7.30;-40.28;-191.00;-146.69;-390.67;1.08;167.40;-26.17;-14.90 
3.486;-0.53;-0.24;0.86;-0.63;4.87;-26.50;-190.00;-156.28;-390.67;1.04;168.60;-26.05;-15.37 
3.516;-0.46;-0.41;0.84;-4.66;13.57;-21.29;-191.00;-158.19;-388.67;1.04;169.36;-26.06;-15.93 
3.546;-0.47;-0.34;0.91;2.78;34.09;-13.08;-190.00;-160.11;-386.67;1.08;169.94;-26.50;-16.43 
3.577;-0.48;-0.18;0.98;10.85;34.23;4.10;-187.00;-152.44;-389.67;1.11;170.29;-27.46;-16.41 
3.607;-0.57;-0.10;0.78;13.50;7.10;24.00;-186.00;-146.69;-389.67;0.97;170.12;-28.22;-15.89 
3.637;-0.44;-0.22;0.71;18.57;-0.70;25.04;-182.00;-142.85;-392.67;0.86;169.70;-28.57;-15.16 
3.667;-0.34;-0.26;0.68;24.21;3.97;26.37;-173.00;-138.06;-397.66;0.80;169.34;-28.83;-14.34 
3.696;-0.45;-0.22;0.66;29.77;7.17;27.83;-169.00;-135.18;-395.67;0.83;169.12;-29.13;-13.42 
3.726;-0.43;-0.13;0.69;38.47;11.69;32.97;-156.00;-133.27;-402.66;0.82;168.90;-29.64;-12.21 
3.756;-0.44;0.00;0.70;39.23;8.83;48.49;-147.00;-125.60;-409.65;0.83;168.45;-30.26;-10.64 
3.786;-0.51;0.17;0.74;40.97;-1.53;69.84;-133.00;-116.97;-421.64;0.91;167.46;-30.75;-8.52 
3.816;-0.58;0.30;0.65;45.98;-9.95;93.70;-122.00;-113.13;-422.64;0.92;165.91;-31.05;-5.97 
3.846;-0.54;0.27;0.66;42.50;-2.30;112.70;-104.00;-103.55;-427.64;0.89;163.74;-31.24;-2.92 
3.877;-0.41;-0.04;0.74;14.82;9.81;107.55;-89.00;-89.16;-432.64;0.85;161.01;-31.48;-0.20 
3.907;-0.44;-0.38;0.74;-6.19;7.03;87.03;-79.00;-75.74;-435.63;0.94;158.21;-31.66;1.18 
3.937;-0.46;-0.42;0.62;3.69;-0.77;57.11;-74.00;-71.91;-434.63;0.88;156.23;-31.69;1.80 
3.968;-0.42;-0.12;0.62;10.43;5.77;34.71;-71.00;-65.20;-430.64;0.76;155.19;-31.77;2.32 
3.998;-0.37;0.15;0.68;15.93;6.82;34.64;-67.00;-67.11;-431.64;0.79;154.55;-31.96;3.20 
4.028;-0.47;0.20;0.69;9.53;-2.78;33.53;-58.00;-58.48;-434.63;0.86;153.96;-31.93;4.18 
4.058;-0.42;0.09;0.70;4.45;-3.97;28.59;-56.00;-56.57;-438.63;0.82;153.40;-31.70;4.94 
4.087;-0.44;0.11;0.70;6.75;-5.01;22.61;-51.00;-54.65;-439.63;0.83;153.00;-31.50;5.51 
4.116;-0.45;0.17;0.76;2.64;-10.37;17.25;-48.00;-54.65;-440.63;0.90;152.77;-31.27;5.99 
4.145;-0.52;0.21;0.74;-4.80;-22.75;11.13;-46.00;-57.53;-440.63;0.93;152.72;-30.81;6.28 
4.175;-0.54;0.19;0.75;-12.73;-30.19;6.68;-49.00;-63.28;-440.63;0.94;152.76;-30.04;6.26 
4.205;-0.54;0.20;0.74;-20.38;-23.37;2.71;-54.00;-69.99;-438.63;0.94;152.73;-29.32;5.97 
4.235;-0.45;0.16;0.75;-27.06;-20.73;3.34;-56.00;-71.91;-438.63;0.89;152.73;-28.71;5.46 
4.266;-0.51;0.10;0.75;-26.30;-23.44;6.12;-60.00;-76.70;-436.63;0.91;152.57;-28.16;4.81 
4.296;-0.42;0.01;0.63;-21.22;-33.11;9.18;-71.00;-87.25;-437.63;0.76;152.42;-27.34;4.24 
4.326;-0.41;0.00;0.63;-10.30;-22.26;9.74;-72.00;-91.08;-435.63;0.75;152.34;-26.50;3.89 
4.356;-0.42;-0.07;0.67;-8.21;-3.62;1.67;-76.00;-92.04;-435.63;0.79;152.36;-26.16;3.64 
4.387;-0.47;-0.08;0.78;-11.55;7.37;-10.43;-78.00;-93.96;-432.64;0.91;152.59;-26.31;3.18 
4.417;-0.54;-0.10;0.82;-10.16;4.94;-16.56;-84.00;-96.83;-432.64;0.99;153.07;-26.61;2.55 
4.447;-0.51;0.07;0.90;-7.86;0.83;-16.70;-86.00;-93.00;-430.64;1.04;153.65;-26.82;2.03 
4.477;-0.45;0.09;0.86;-2.02;-6.40;-9.67;-87.00;-98.75;-431.64;0.97;154.24;-26.79;1.71 
4.507;-0.41;0.06;0.82;3.20;-6.82;-3.90;-87.00;-98.75;-428.64;0.92;154.72;-26.59;1.66 
4.537;-0.37;0.00;0.78;2.92;-4.94;-4.10;-88.00;-100.67;-433.63;0.86;155.13;-26.43;1.71 
4.566;-0.38;0.00;0.75;-0.56;-2.64;-7.79;-89.00;-103.55;-434.63;0.84;155.56;-26.33;1.65 
4.596;-0.35;0.04;0.80;-0.70;-0.07;-7.17;-89.00;-104.50;-433.63;0.87;156.01;-26.28;1.48 
4.626;-0.35;0.04;0.81;-0.49;-0.21;-5.50;-87.00;-106.42;-429.64;0.88;156.41;-26.27;1.38 
4.656;-0.41;0.03;0.86;-1.32;-1.11;-3.06;-90.00;-105.46;-429.64;0.95;156.73;-26.23;1.29 
4.687;-0.39;0.00;0.85;-0.70;-6.19;-3.20;-92.00;-108.34;-428.64;0.94;157.05;-26.14;1.19 
4.717;-0.40;0.04;0.78;-0.28;-4.59;-3.55;-92.00;-108.34;-432.64;0.88;157.41;-25.96;1.07 
4.747;-0.41;0.00;0.79;-1.25;0.07;-2.71;-90.00;-110.26;-431.64;0.89;157.72;-25.91;0.98 
4.778;-0.42;0.04;0.75;-0.28;1.67;-3.20;-88.00;-109.30;-431.64;0.86;158.01;-25.98;0.90 
4.808;-0.40;0.01;0.82;0.77;6.05;-4.59;-89.00;-108.34;-432.64;0.91;158.31;-26.14;0.84 
4.838;-0.41;0.01;0.85;-1.67;1.32;-6.82;-91.00;-107.38;-429.64;0.94;158.65;-26.32;0.75 
4.868;-0.38;0.04;0.82;-5.22;-4.17;-6.96;-91.00;-109.30;-430.64;0.90;159.03;-26.28;0.57 
4.897;-0.37;0.06;0.78;-4.59;0.42;-5.98;-93.00;-112.17;-428.64;0.87;159.40;-26.18;0.32 
4.926;-0.38;0.06;0.80;-4.03;4.45;-5.91;-96.00;-113.13;-431.64;0.89;159.72;-26.23;0.14 
4.956;-0.42;0.02;0.82;-5.08;3.06;-6.47;-96.00;-109.30;-428.64;0.92;160.02;-26.35;-0.07 
4.987;-0.35;0.02;0.85;-4.17;2.64;-7.79;-100.00;-110.26;-428.64;0.92;160.36;-26.46;-0.34 
5.017;-0.42;0.02;0.80;0.00;1.11;-5.43;-100.00;-112.17;-429.64;0.90;160.73;-26.49;-0.52 
5.047;-0.39;0.06;0.75;2.37;4.80;-3.90;-99.00;-111.22;-430.64;0.85;161.07;-26.58;-0.54 
5.077;-0.36;0.05;0.79;-0.56;8.70;-4.17;-98.00;-110.26;-431.64;0.87;161.37;-26.77;-0.55 
5.107;-0.38;0.06;0.81;-1.81;8.35;-4.73;-97.00;-110.26;-427.64;0.90;161.64;-27.05;-0.68 
5.137;-0.40;0.01;0.75;-1.39;6.54;-4.94;-97.00;-110.26;-429.64;0.85;161.93;-27.28;-0.81 
5.167;-0.42;-0.01;0.80;-2.09;8.00;-8.56;-101.00;-106.42;-427.64;0.90;162.27;-27.49;-1.00 
5.198;-0.38;-0.05;0.83;-2.71;8.42;-10.64;-101.00;-105.46;-427.64;0.91;162.67;-27.72;-1.27 
5.228;-0.41;0.00;0.82;-0.35;10.30;-11.13;-101.00;-103.55;-425.64;0.92;163.16;-27.97;-1.55 
5.258;-0.34;0.02;0.87;-1.95;12.45;-10.16;-102.00;-103.55;-428.64;0.93;163.58;-28.31;-1.81 
5.289;-0.38;0.02;0.87;-3.55;6.89;-8.42;-102.00;-102.59;-424.64;0.95;163.98;-28.54;-2.03 
5.319;-0.42;-0.03;0.84;-1.67;4.80;-5.77;-105.00;-99.71;-422.64;0.94;164.31;-28.70;-2.27 
5.349;-0.39;-0.06;0.83;1.39;7.58;-3.69;-105.00;-101.63;-422.64;0.92;164.63;-28.83;-2.44 
5.379;-0.40;-0.05;0.82;0.70;7.44;-5.84;-104.00;-97.79;-423.64;0.91;164.93;-29.01;-2.58 
5.409;-0.42;-0.06;0.76;-3.20;7.10;-9.46;-107.00;-98.75;-424.64;0.87;165.32;-29.19;-2.77 
5.439;-0.42;-0.12;0.77;-6.89;9.74;-12.03;-107.00;-98.75;-419.65;0.89;165.70;-29.40;-3.15 
5.469;-0.41;-0.12;0.78;-4.38;13.91;-15.65;-108.00;-99.71;-422.64;0.89;166.16;-29.71;-3.66 
5.500;-0.42;-0.04;0.83;0.07;12.10;-14.61;-110.00;-94.92;-418.65;0.93;166.74;-30.05;-4.08 
5.530;-0.38;0.01;0.82;1.81;7.44;-9.25;-110.00;-96.83;-419.65;0.90;167.29;-30.31;-4.34 
5.560;-0.40;0.01;0.82;-0.90;3.20;-3.06;-106.00;-96.83;-418.65;0.91;167.63;-30.46;-4.50 
5.589;-0.42;-0.01;0.82;-2.16;0.28;0.77;-110.00;-94.92;-418.65;0.92;167.82;-30.47;-4.62 
5.619;-0.42;-0.02;0.77;-2.57;0.70;8.70;-112.00;-93.96;-417.65;0.88;167.83;-30.44;-4.65 
5.649;-0.48;0.00;0.70;-6.96;0.70;16.42;-109.00;-93.00;-418.65;0.85;167.57;-30.50;-4.67 
5.679;-0.44;-0.02;0.62;-5.01;9.95;18.23;-112.00;-91.08;-416.65;0.76;167.09;-30.69;-4.66 
5.710;-0.38;-0.06;0.61;-2.02;15.17;18.30;-111.00;-83.41;-417.65;0.72;166.59;-31.17;-4.54 
5.740;-0.46;-0.14;0.63;-3.62;17.95;14.75;-110.00;-79.58;-415.65;0.79;166.09;-31.80;-4.50 
5.770;-0.48;-0.09;0.64;2.23;17.04;12.24;-112.00;-69.99;-410.65;0.81;165.79;-32.41;-4.47 
5.801;-0.50;0.00;0.64;4.38;17.46;14.75;-108.00;-69.03;-414.65;0.81;165.54;-33.02;-4.26 
5.831;-0.45;0.03;0.69;7.30;23.65;20.17;-104.00;-61.36;-415.65;0.82;165.18;-33.71;-3.84 
5.861;-0.46;-0.03;0.75;7.58;26.09;21.91;-102.00;-54.65;-413.65;0.88;164.76;-34.52;-3.36 
5.890;-0.56;-0.06;0.76;5.22;17.25;25.67;-95.00;-45.06;-417.65;0.95;164.28;-35.23;-2.92 
5.919;-0.46;0.02;0.74;12.10;16.49;30.19;-93.00;-41.23;-415.65;0.87;163.75;-35.77;-2.36 
5.949;-0.53;0.10;0.71;18.30;13.77;38.89;-86.00;-34.52;-415.65;0.89;163.15;-36.25;-1.43 
5.979;-0.50;0.10;0.67;20.38;15.17;48.83;-79.00;-26.85;-417.65;0.84;162.33;-36.70;-0.17 
6.010;-0.50;0.04;0.62;26.23;22.40;51.97;-67.00;-16.30;-420.65;0.80;161.39;-37.23;1.29 
6.040;-0.58;0.08;0.60;29.84;26.43;58.30;-51.00;-4.79;-418.65;0.84;160.34;-37.98;2.96 
6.070;-0.54;0.21;0.63;24.21;18.92;60.31;-38.00;2.88;-425.64;0.86;159.21;-38.57;4.73 
6.101;-0.54;0.15;0.65;19.06;24.63;67.62;-26.00;12.46;-423.64;0.86;157.80;-39.01;6.52 
6.131;-0.59;0.07;0.72;13.43;23.44;69.77;-10.00;29.72;-427.64;0.93;156.00;-39.46;8.28 
6.161;-0.48;0.05;0.72;12.80;6.47;65.04;1.00;33.56;-422.64;0.87;154.37;-39.55;9.76 
6.191;-0.50;0.16;0.72;11.83;-18.85;60.38;12.00;40.27;-428.64;0.89;153.14;-38.91;11.16 
6.222;-0.57;0.11;0.59;5.22;-19.90;56.28;21.00;37.39;-434.63;0.83;152.07;-37.78;12.50 
6.252;-0.55;0.11;0.69;6.75;-6.19;38.33;33.00;33.56;-434.63;0.89;151.12;-37.12;13.43 
6.282;-0.83;0.22;0.86;21.43;-1.32;23.93;42.00;36.43;-438.63;1.22;150.79;-36.74;14.24 
6.313;-0.99;0.22;1.14;12.94;16.14;2.57;46.00;41.23;-437.63;1.53;150.91;-37.01;14.93 
6.343;-0.78;0.36;1.06;4.45;-19.69;-14.54;51.00;43.14;-437.63;1.36;151.63;-37.09;14.91 
6.373;-0.56;0.54;0.85;-7.37;-20.45;-10.30;47.00;34.52;-439.63;1.15;152.52;-36.60;14.73 
6.403;-0.43;0.55;0.62;-16.14;2.37;-2.09;43.00;33.56;-438.63;0.93;152.88;-36.31;14.59 
6.433;-0.34;0.33;0.90;2.64;47.03;7.93;39.00;41.23;-434.63;1.02;152.51;-36.95;14.84 
6.463;-0.45;0.21;1.00;-6.33;-21.77;-2.30;45.00;47.94;-434.63;1.12;152.33;-37.28;14.94 
6.493;-0.36;0.17;0.58;-10.16;-40.49;-32.70;40.00;39.31;-440.63;0.70;153.25;-36.32;14.34 
6.524;-0.44;0.38;0.34;-3.27;2.71;-47.44;29.00;26.85;-439.63;0.67;154.89;-36.02;13.53 
6.554;-0.50;0.45;0.42;1.46;53.91;-36.59;22.00;30.68;-439.63;0.79;156.16;-37.37;13.02 
6.584;-0.43;0.38;0.63;0.35;71.44;-29.43;22.00;41.23;-430.64;0.85;156.80;-39.54;12.68 
6.614;-0.45;0.17;0.78;-12.17;60.80;-28.87;20.00;52.73;-422.64;0.92;156.97;-41.60;12.11 
6.644;-0.57;0.05;0.77;-20.17;22.89;-46.05;7.00;67.11;-412.65;0.96;157.40;-43.13;10.83 
6.674;-0.57;0.13;0.67;-21.01;-10.02;-54.40;-3.00;67.11;-412.65;0.89;158.54;-43.69;9.24 
6.704;-0.57;0.24;0.58;-15.86;-29.29;-59.20;-13.00;61.36;-411.65;0.85;160.11;-43.45;7.65 
6.735;-0.58;0.29;0.50;-21.84;-31.30;-55.93;-28.00;54.65;-413.65;0.82;161.90;-42.88;6.07 
6.765;-0.53;0.22;0.54;-29.50;-22.96;-45.08;-46.00;42.19;-415.65;0.79;163.15;-42.28;4.58 
6.795;-0.58;0.18;0.52;-27.90;-17.11;-41.25;-55.00;34.52;-413.65;0.80;164.04;-41.87;3.10 
6.826;-0.64;0.16;0.52;-28.87;-10.02;-34.64;-66.00;26.85;-414.65;0.84;164.79;-41.57;1.74 
6.856;-0.53;0.07;0.55;-38.47;2.71;-32.42;-81.00;23.01;-405.66;0.77;165.12;-41.53;0.28 
6.886;-0.64;-0.06;0.53;-39.37;0.49;-45.57;-94.00;22.05;-402.66;0.83;165.46;-41.63;-1.45 
6.916;-0.63;-0.16;0.60;-36.87;-2.57;-51.27;-109.00;22.05;-395.67;0.88;166.04;-41.65;-3.42 
6.947;-0.55;-0.14;0.68;-28.45;-14.61;-62.40;-121.00;13.42;-391.67;0.89;167.13;-41.22;-5.57 
6.977;-0.56;-0.14;0.61;-20.94;-15.65;-65.32;-138.00;1.92;-384.68;0.84;168.70;-40.46;-7.66 
7.007;-0.53;0.00;0.66;-13.43;-18.43;-67.97;-148.00;-7.67;-386.67;0.85;170.48;-39.56;-9.48 
7.038;-0.48;0.02;0.66;-9.18;-19.27;-61.91;-158.00;-17.26;-384.68;0.82;172.36;-38.53;-11.04 
7.068;-0.46;-0.18;0.66;-4.66;-24.21;-60.66;-166.00;-25.89;-384.68;0.82;174.23;-37.36;-12.45 
7.098;-0.47;-0.18;0.71;6.33;-32.35;-66.85;-177.00;-39.31;-384.68;0.87;176.27;-35.87;-13.83 
7.128;-0.65;-0.04;0.78;14.75;-22.96;-54.47;-178.00;-52.73;-383.68;1.02;178.42;-34.41;-14.74 
7.158;-0.86;-0.13;0.92;12.94;3.55;-29.01;-175.00;-59.44;-383.68;1.27;-179.77;-33.69;-15.14 
7.188;-0.55;-0.42;1.20;24.00;24.42;-33.11;-179.00;-58.48;-384.68;1.39;-178.64;-33.94;-15.37 
7.217;-0.68;-0.51;1.14;7.79;-33.32;-40.35;-174.00;-62.32;-387.67;1.42;-177.22;-33.46;-15.90 
7.248;-0.44;-0.26;1.10;9.60;-32.56;-46.89;-177.00;-76.70;-386.67;1.21;-175.64;-31.89;-16.85 
7.278;-0.55;0.05;1.22;27.34;-29.43;-10.30;-180.00;-87.25;-385.68;1.34;-174.45;-30.91;-17.18 
7.308;-0.47;0.00;0.94;28.24;-56.77;-10.30;-169.00;-95.88;-392.67;1.05;-173.58;-29.31;-16.63 
7.338;-0.16;-0.27;0.74;3.97;-66.85;-10.23;-165.00;-110.26;-400.66;0.80;-173.01;-27.18;-16.36 
7.368;-0.10;-0.42;0.62;-1.11;-36.31;-5.50;-164.00;-127.51;-401.66;0.76;-172.72;-25.12;-16.85 
7.398;-0.27;-0.20;0.56;7.51;8.83;12.66;-165.00;-133.27;-402.66;0.65;-172.67;-24.42;-17.12 
7.428;-0.38;0.02;0.67;18.57;45.29;34.85;-162.00;-126.56;-404.66;0.77;-173.00;-25.38;-16.56 
7.459;-0.43;0.00;0.86;10.99;42.92;50.09;-154.00;-106.42;-401.66;0.96;-173.87;-27.17;-15.42 
7.489;-0.42;-0.16;0.86;4.73;6.82;49.60;-148.00;-96.83;-403.66;0.97;-175.20;-28.39;-14.48 
7.519;-0.36;-0.22;0.78;10.37;-26.43;46.40;-143.00;-92.04;-402.66;0.89;-176.41;-28.46;-13.75 
7.550;-0.34;-0.24;0.58;14.89;-40.00;44.87;-137.00;-92.04;-405.66;0.71;-177.53;-27.71;-12.95 
7.580;-0.31;-0.19;0.42;22.05;-29.50;46.61;-128.00;-97.79;-413.65;0.56;-178.54;-26.94;-12.10 
7.610;-0.30;-0.14;0.45;23.93;-8.70;48.28;-122.00;-93.00;-416.65;0.56;-179.50;-26.73;-11.03 
7.639;-0.40;-0.11;0.43;26.16;8.97;45.57;-115.00;-85.33;-418.65;0.60;179.58;-27.06;-9.93 
7.668;-0.35;0.00;0.50;27.20;26.02;49.32;-108.00;-79.58;-421.64;0.61;178.75;-27.94;-8.63 
7.698;-0.36;-0.08;0.60;27.41;36.17;55.65;-100.00;-75.74;-417.65;0.70;177.74;-29.06;-7.30 
7.728;-0.51;-0.26;0.67;31.93;40.28;56.97;-81.00;-48.90;-419.65;0.88;176.63;-30.45;-5.89 
7.759;-0.61;-0.22;0.70;49.53;32.70;44.45;-65.00;-37.39;-419.65;0.95;175.90;-31.79;-4.32 
7.789;-0.62;-0.02;0.75;58.23;31.93;44.66;-51.00;-31.64;-421.64;0.97;175.67;-33.02;-2.36 
7.819;-0.52;0.16;0.77;58.92;7.93;45.43;-41.00;-24.93;-421.64;0.94;175.63;-33.79;-0.17 
7.850;-0.50;0.25;0.76;48.83;-9.25;53.36;-12.00;-16.30;-421.64;0.94;175.29;-33.80;2.09 
7.880;-0.50;0.33;0.83;30.82;-19.41;49.39;2.00;-17.26;-429.64;1.02;174.77;-33.24;4.20 
7.910;-0.70;0.38;0.96;-5.22;21.36;24.63;11.00;-23.01;-428.64;1.25;174.18;-32.87;5.43 
7.940;-0.56;0.09;1.38;-26.92;63.79;0.63;13.00;-21.09;-424.64;1.49;173.46;-34.33;5.31 
7.971;-0.64;0.15;1.30;-4.17;-40.90;-0.42;4.00;-5.75;-413.65;1.46;173.34;-34.84;4.83 
8.001;-0.48;0.45;0.89;3.83;-56.49;4.94;3.00;-22.05;-419.65;1.11;173.63;-33.06;4.94 
8.031;-0.35;0.66;0.91;0.42;-2.02;13.15;4.00;-32.60;-422.64;1.18;173.60;-31.97;5.45 
8.062;-0.46;0.53;1.00;8.00;1.95;31.44;10.00;-31.64;-424.64;1.22;173.27;-31.92;6.18 
8.092;-0.38;0.33;0.94;11.55;-23.51;34.78;15.00;-32.60;-427.64;1.07;172.58;-31.29;7.19 
8.122;-0.27;0.50;0.87;-3.55;-10.16;22.26;15.00;-36.43;-431.64;1.04;172.08;-30.40;7.93 
8.152;-0.30;0.37;0.94;-13.29;11.41;28.45;18.00;-38.35;-425.64;1.05;171.36;-30.21;8.34 
8.182;-0.38;0.24;0.90;-13.43;-9.46;24.77;18.00;-38.35;-427.64;1.01;170.44;-29.99;8.46 
8.212;-0.26;0.30;0.80;-9.67;-19.76;24.63;15.00;-41.23;-427.64;0.89;169.75;-29.35;8.60 
8.242;-0.24;0.24;0.68;-8.28;-8.14;20.24;16.00;-42.19;-425.64;0.76;169.13;-28.64;8.83 
8.273;-0.25;0.22;0.68;-8.70;8.70;11.27;16.00;-41.23;-427.64;0.76;168.70;-28.47;8.96 
8.303;-0.31;0.26;0.79;-12.73;9.81;5.36;13.00;-40.27;-427.64;0.89;168.41;-28.61;8.90 
8.333;-0.34;0.26;0.86;-13.57;2.78;3.06;13.00;-37.39;-420.65;0.96;168.23;-28.71;8.71 
8.363;-0.34;0.30;0.89;-14.96;-5.22;2.78;7.00;-40.27;-421.64;1.00;168.05;-28.60;8.46 
8.392;-0.33;0.18;0.78;-17.67;-8.90;-1.67;8.00;-41.23;-421.64;0.87;167.95;-28.29;8.11 
8.422;-0.31;0.16;0.80;-18.99;-8.42;-9.74;2.00;-43.14;-420.65;0.87;167.98;-27.95;7.58 
8.452;-0.31;0.27;0.82;-18.78;-7.65;-16.77;-6.00;-45.06;-424.64;0.92;168.30;-27.67;6.96 
8.483;-0.33;0.31;0.82;-20.66;-7.23;-12.94;-13.00;-49.86;-420.65;0.94;168.66;-27.46;6.32 
8.513;-0.32;0.37;0.82;-22.05;-10.85;-8.77;-20.00;-53.69;-419.65;0.95;168.85;-27.13;5.77 
8.543;-0.31;0.30;0.79;-28.45;-10.50;-7.30;-22.00;-53.69;-415.65;0.90;168.91;-26.77;5.21 
8.574;-0.43;0.24;0.74;-40.49;-13.77;-7.44;-34.00;-59.44;-414.65;0.89;168.81;-26.35;4.32 
8.604;-0.36;0.15;0.72;-43.06;3.13;-10.37;-42.00;-61.36;-408.66;0.82;168.61;-26.24;3.12 
8.634;-0.41;0.06;0.80;-36.31;21.08;-7.03;-51.00;-60.40;-409.65;0.90;168.43;-26.56;1.93 
8.664;-0.43;-0.02;0.91;-22.82;16.07;-9.18;-55.00;-58.48;-406.66;1.01;168.29;-27.23;0.99 
8.693;-0.46;-0.02;0.92;-14.68;-9.11;-10.23;-65.00;-56.57;-402.66;1.03;168.42;-27.38;0.26 
8.722;-0.37;0.02;0.81;-14.68;-21.36;-14.12;-69.00;-60.40;-397.66;0.89;168.76;-26.90;-0.35 
8.752;-0.30;0.07;0.75;-16.42;-13.63;-17.74;-74.00;-65.20;-399.66;0.81;169.19;-26.31;-0.99 
8.783;-0.27;0.06;0.87;-14.68;-7.10;-16.21;-78.00;-71.91;-396.67;0.91;169.68;-25.89;-1.66 
8.813;-0.28;0.01;0.89;-12.38;-7.65;-10.92;-85.00;-75.74;-394.67;0.93;170.08;-25.49;-2.22 
8.843;-0.26;-0.02;0.89;-6.75;-7.44;-8.90;-88.00;-78.62;-393.67;0.93;170.40;-25.20;-2.68 
8.874;-0.34;-0.14;0.86;3.34;-3.20;-6.47;-86.00;-80.54;-395.67;0.94;170.76;-24.92;-2.95 
8.904;-0.31;-0.02;0.77;5.43;-5.77;-9.18;-89.00;-82.45;-395.67;0.83;171.22;-24.72;-3.02 
8.933;-0.28;0.08;0.75;-0.42;-4.17;-9.25;-87.00;-83.41;-394.67;0.80;171.68;-24.47;-3.05 
8.963;-0.30;0.00;0.82;-0.21;2.09;-8.35;-86.00;-86.29;-395.67;0.87;172.07;-24.35;-3.17 
8.993;-0.30;-0.02;0.97;0.42;-0.83;-8.49;-89.00;-87.25;-393.67;1.02;172.45;-24.31;-3.32 
9.023;-0.29;0.00;0.91;0.35;-8.42;-8.83;-86.00;-88.21;-396.67;0.96;172.86;-24.04;-3.46 
9.052;-0.30;0.00;0.81;-0.70;-8.83;-7.79;-90.00;-88.21;-392.67;0.86;173.25;-23.72;-3.64 
9.083;-0.26;0.03;0.79;0.42;2.37;-5.77;-86.00;-93.96;-394.67;0.83;173.59;-23.53;-3.75 
9.113;-0.30;0.00;0.86;0.56;5.91;-3.97;-91.00;-93.96;-396.67;0.91;173.85;-23.61;-3.80 
9.143;-0.31;0.00;0.88;-0.35;1.39;-6.33;-90.00;-92.04;-395.67;0.93;174.11;-23.64;-3.91 
