Time(s) acc_x(g) acc_y(g) acc_z(g) gyr_x(°/s) gyr_y(°/s) gyr_z(°/s) mag_x(G) mag_y(G) mag_z(G) SVM(g) yaw(°) pitch(°) roll(°)
0.000;-0.26;0.36;0.50;-21.91;-15.79;-35.76;-49.96;-220.46;-360.00;0.67;139.06;-15.38;18.18 
0.030;-0.29;0.36;0.59;-24.90;29.43;-13.50;-60.95;-218.54;-358.00;0.75;140.02;-15.88;17.63 
0.061;-0.47;0.14;0.91;-28.03;23.58;-2.23;-62.95;-208.95;-352.00;1.03;140.04;-16.96;16.98 
0.091;-0.46;0.14;0.82;-27.06;-12.59;3.90;-68.94;-207.04;-348.00;0.95;140.18;-17.28;16.22 
0.121;-0.34;0.00;0.61;-24.77;-12.38;11.06;-73.94;-208.95;-348.00;0.70;140.22;-16.92;15.49 
0.151;-0.21;-0.02;0.57;-19.97;16.70;8.70;-77.94;-207.04;-344.00;0.61;140.09;-16.97;14.80 
0.181;-0.29;0.05;0.74;-16.90;32.49;10.43;-81.93;-198.41;-343.00;0.80;139.82;-17.71;14.39 
0.211;-0.38;0.06;0.80;-9.95;19.83;18.37;-85.93;-192.66;-344.00;0.89;139.43;-18.41;14.09 
0.241;-0.37;-0.05;0.79;-6.75;21.84;23.23;-79.93;-190.74;-343.00;0.87;138.93;-18.91;13.98 
0.272;-0.40;-0.06;0.85;-5.29;18.71;13.91;-82.93;-184.03;-340.00;0.94;138.51;-19.47;13.88 
0.302;-0.45;-0.07;0.81;-3.76;12.24;17.04;-78.93;-177.32;-342.00;0.93;138.26;-19.87;13.75 
0.332;-0.44;-0.10;0.72;1.04;17.18;15.93;-75.94;-175.41;-344.00;0.85;138.03;-20.24;13.71 
0.362;-0.41;-0.06;0.67;4.10;24.42;13.43;-72.94;-166.78;-344.00;0.79;137.86;-20.85;13.82 
0.392;-0.45;-0.10;0.72;0.83;31.72;10.64;-76.94;-163.90;-341.00;0.85;137.63;-21.69;13.87 
0.422;-0.49;-0.14;0.73;-2.78;35.20;-4.73;-70.94;-150.49;-341.00;0.89;137.58;-22.80;13.68 
0.452;-0.50;-0.16;0.84;-3.48;36.45;-10.78;-69.94;-143.78;-340.00;0.99;137.83;-24.00;13.26 
0.483;-0.59;-0.29;1.06;-10.23;46.68;-23.51;-72.94;-139.94;-338.00;1.25;138.23;-25.41;12.62 
0.513;-0.79;-0.30;1.51;-7.10;44.73;-56.83;-78.93;-125.56;-335.00;1.73;139.16;-27.12;11.53 
0.543;-0.91;-0.26;1.73;25.25;1.18;-93.08;-86.93;-129.40;-328.00;1.97;141.49;-28.43;10.27 
0.574;-0.71;0.21;1.43;-2.30;-8.21;-50.30;-94.92;-131.32;-322.00;1.61;144.32;-28.88;9.09 
0.603;-0.82;0.46;0.94;18.02;-7.58;-13.15;-98.92;-136.11;-325.00;1.33;145.75;-28.58;8.91 
0.633;-0.52;0.53;0.86;16.70;32.90;12.24;-97.92;-136.11;-331.00;1.14;146.57;-29.11;9.58 
0.663;-0.51;0.10;0.88;4.66;7.72;44.10;-89.93;-130.36;-324.00;1.02;145.94;-29.70;10.51 
0.693;-0.62;-0.14;0.57;-4.59;-53.43;46.61;-79.93;-127.48;-330.00;0.85;145.17;-28.87;11.02 
0.723;-0.72;-0.14;0.11;-3.69;-66.57;57.25;-77.94;-134.19;-343.00;0.74;144.54;-27.14;11.34 
0.753;-0.82;0.12;0.00;10.85;-15.58;57.04;-70.94;-133.23;-347.00;0.83;143.69;-25.45;12.16 
0.784;-0.67;0.53;0.41;16.49;66.02;77.70;-59.95;-121.73;-359.00;0.95;141.89;-26.18;13.76 
0.814;-0.57;0.58;1.02;5.57;47.37;101.91;-45.96;-103.52;-355.00;1.30;138.99;-27.54;15.64 
0.843;-0.50;0.40;0.99;4.87;-29.22;130.85;-26.98;-91.06;-361.00;1.18;135.98;-26.78;17.54 
0.872;-0.51;0.12;0.58;7.93;-57.46;137.25;-8.99;-90.10;-364.00;0.78;133.20;-24.26;19.52 
0.902;-0.53;-0.02;0.26;3.48;-38.47;124.31;12.99;-97.77;-370.00;0.59;130.47;-21.71;21.26 
0.932;-0.38;0.02;0.19;3.62;-3.90;98.71;36.97;-96.81;-373.00;0.43;127.85;-20.19;22.66 
0.962;-0.34;0.19;0.33;3.48;28.59;86.68;49.96;-92.98;-377.00;0.51;125.44;-19.73;23.85 
0.992;-0.30;0.32;0.49;2.92;42.02;86.19;61.95;-86.27;-376.00;0.66;122.80;-19.69;25.17 
1.022;-0.50;0.38;0.66;1.88;40.14;96.56;75.94;-72.85;-376.00;0.91;119.85;-19.61;26.49 
1.052;-0.61;0.26;0.74;1.46;31.86;89.53;95.92;-62.30;-375.00;0.99;116.82;-19.37;27.75 
1.083;-0.51;0.17;0.77;-2.02;14.40;68.03;111.91;-56.55;-376.00;0.94;114.36;-18.98;28.70 
1.113;-0.44;0.26;0.66;-1.81;3.69;47.86;119.90;-54.63;-374.00;0.83;112.84;-18.38;29.30 
1.143;-0.44;0.34;0.64;3.34;12.87;40.14;122.90;-50.80;-373.00;0.85;111.87;-17.98;29.91 
1.173;-0.44;0.42;0.68;9.60;24.49;35.20;138.88;-49.84;-371.00;0.91;110.82;-17.97;30.67 
1.203;-0.49;0.51;0.73;8.70;17.32;35.41;147.88;-45.05;-371.00;1.02;109.78;-18.03;31.58 
1.233;-0.48;0.46;0.69;5.98;10.71;36.52;153.87;-48.88;-368.00;0.96;108.90;-17.82;32.41 
1.263;-0.42;0.37;0.69;4.66;14.75;32.49;160.87;-41.22;-369.00;0.89;108.05;-17.63;33.14 
1.294;-0.42;0.35;0.68;3.90;15.58;28.31;172.86;-36.42;-369.00;0.87;107.24;-17.54;33.74 
1.324;-0.44;0.39;0.65;6.12;18.92;23.30;174.85;-34.51;-368.00;0.88;106.48;-17.61;34.32 
1.354;-0.43;0.42;0.59;6.96;18.78;14.40;183.85;-38.34;-364.00;0.84;105.94;-17.81;34.86 
1.385;-0.42;0.48;0.61;10.16;28.03;11.55;186.84;-32.59;-367.00;0.88;105.50;-18.21;35.45 
1.415;-0.50;0.45;0.60;12.52;34.99;19.55;188.84;-22.05;-363.00;0.90;104.69;-18.76;36.20 
1.445;-0.48;0.41;0.62;13.15;32.63;12.73;197.84;-21.09;-356.00;0.88;103.77;-19.33;36.93 
1.474;-0.54;0.45;0.65;8.00;30.12;5.84;202.83;-14.38;-354.00;0.96;103.12;-19.97;37.46 
1.503;-0.51;0.44;0.69;6.96;22.82;-2.78;206.83;-9.59;-350.00;0.96;102.76;-20.65;37.80 
1.532;-0.42;0.45;0.74;6.75;14.61;-8.63;206.83;-3.83;-347.00;0.96;102.86;-21.21;37.98 
1.562;-0.44;0.50;0.74;2.99;11.34;-10.30;205.83;0.00;-346.00;1.00;103.24;-21.67;38.10 
1.593;-0.55;0.58;0.78;3.13;4.45;-4.52;205.83;0.96;-346.00;1.12;103.71;-22.03;38.17 
1.623;-0.54;0.51;0.69;8.00;4.10;-2.43;209.83;1.92;-345.00;1.01;104.17;-22.23;38.41 
1.653;-0.55;0.52;0.76;0.70;-0.28;-4.59;208.83;5.75;-345.00;1.07;104.67;-22.43;38.60 
1.684;-0.61;0.62;0.78;0.42;-0.90;-5.50;210.82;3.83;-344.00;1.17;105.27;-22.56;38.67 
1.714;-0.64;0.67;0.86;7.03;-2.30;-2.71;210.82;0.96;-349.00;1.26;105.98;-22.69;38.83 
1.744;-0.63;0.70;0.96;3.13;-5.43;-0.07;209.83;3.83;-351.00;1.34;106.64;-22.68;39.09 
1.773;-0.76;0.71;0.99;0.42;-12.03;4.80;209.83;-1.92;-354.00;1.44;107.34;-22.46;39.27 
1.803;-0.80;0.51;0.93;0.35;-11.41;-8.97;212.82;-4.79;-361.00;1.33;108.17;-22.29;39.35 
1.833;-0.62;0.34;0.74;-5.57;-26.43;-37.77;209.83;-7.67;-365.00;1.02;109.85;-22.50;38.92 
1.863;-0.58;0.31;0.43;-2.99;-37.01;-50.64;192.84;-18.21;-374.00;0.79;112.54;-22.90;38.10 
1.894;-0.72;0.30;0.30;2.02;-16.56;-60.03;175.85;-23.00;-375.00;0.84;115.66;-23.68;37.39 
1.924;-0.70;0.29;0.58;-1.18;29.84;-86.75;155.87;-22.05;-380.00;0.95;118.16;-25.69;36.30 
1.954;-0.71;0.30;1.03;-6.26;8.97;-106.85;147.88;-22.05;-377.00;1.29;120.78;-28.39;34.49 
1.984;-0.61;0.38;0.94;-12.31;-67.48;-97.67;113.91;-23.96;-378.00;1.18;125.10;-29.81;32.33 
2.013;-0.44;0.35;0.52;-23.58;-95.17;-77.43;92.92;-42.17;-384.00;0.77;129.99;-29.43;30.39 
2.043;-0.35;0.19;0.20;-29.22;-82.43;-68.52;68.94;-73.80;-392.00;0.45;134.02;-28.52;28.69 
2.073;-0.39;0.00;0.04;-24.63;-48.00;-80.07;49.96;-89.14;-391.00;0.39;137.45;-28.43;26.78 
2.104;-0.46;0.03;0.25;-7.23;-0.77;-96.35;33.97;-100.64;-393.00;0.52;140.84;-29.25;25.02 
2.134;-0.42;0.10;0.51;3.48;2.99;-89.74;17.99;-105.44;-396.00;0.67;144.31;-31.13;23.13 
2.164;-0.47;0.21;0.59;9.67;-9.81;-77.63;2.00;-111.19;-394.00;0.78;147.50;-32.28;21.74 
2.195;-0.52;0.32;0.59;14.05;-7.86;-64.35;-7.99;-115.98;-396.00;0.85;150.60;-33.08;20.73 
2.225;-0.54;0.41;0.68;9.74;-2.09;-48.42;-7.99;-122.69;-400.00;0.96;153.24;-33.77;20.08 
2.255;-0.54;0.27;0.78;-0.14;-2.30;-28.38;-10.99;-123.65;-401.00;0.99;154.99;-34.31;19.56 
2.285;-0.54;0.13;0.84;-1.04;-12.38;-20.94;-17.99;-132.27;-401.00;1.01;156.21;-34.43;18.98 
2.315;-0.53;0.10;0.81;-0.14;-22.05;-14.40;-19.98;-136.11;-407.00;0.97;157.35;-34.23;18.43 
2.345;-0.46;0.11;0.67;-0.90;-28.31;-7.93;-22.98;-144.73;-407.00;0.82;158.33;-33.70;18.05 
2.375;-0.43;0.17;0.57;-1.46;-17.67;-2.78;-23.98;-145.69;-408.00;0.73;159.09;-33.18;17.79 
2.406;-0.48;0.19;0.66;0.63;-9.25;5.57;-24.98;-152.40;-411.00;0.84;159.57;-32.89;17.68 
2.436;-0.52;0.18;0.71;5.22;-6.40;13.91;-23.98;-157.20;-415.00;0.90;159.82;-32.65;17.84 
2.466;-0.51;0.20;0.78;3.76;-0.70;21.91;-23.98;-155.28;-415.00;0.95;159.83;-32.43;18.13 
2.496;-0.55;0.30;0.78;0.63;-2.16;29.70;-13.99;-155.28;-413.00;1.00;159.54;-32.21;18.59 
2.526;-0.55;0.27;0.72;-7.03;-12.03;34.23;-13.99;-154.32;-418.00;0.95;159.00;-31.73;19.02 
2.556;-0.48;0.23;0.62;-9.25;-5.36;38.19;-12.99;-154.32;-420.00;0.82;158.25;-31.14;19.36 
2.586;-0.47;0.17;0.58;-7.03;15.72;44.17;-9.99;-153.36;-418.00;0.77;157.24;-30.88;19.74 
2.617;-0.50;0.19;0.68;-4.87;25.25;45.22;-6.00;-148.57;-414.00;0.87;155.98;-31.08;20.24 
2.647;-0.51;0.28;0.70;-6.89;17.81;47.30;-2.00;-138.02;-417.00;0.91;154.67;-31.22;20.81 
2.677;-0.50;0.29;0.73;-10.16;14.05;47.93;0.00;-129.40;-414.00;0.93;153.32;-31.17;21.32 
2.708;-0.50;0.22;0.75;-14.33;9.95;46.26;3.00;-123.65;-413.00;0.93;151.92;-30.98;21.76 
2.738;-0.50;0.14;0.77;-13.57;4.73;38.89;9.99;-124.61;-409.00;0.93;150.65;-30.72;21.98 
2.767;-0.49;0.16;0.77;-13.15;-1.18;34.50;10.99;-122.69;-406.00;0.93;149.74;-30.38;22.12 
2.797;-0.50;0.18;0.78;-13.57;0.42;29.57;11.99;-117.90;-409.00;0.94;149.01;-30.04;22.17 
2.827;-0.46;0.18;0.79;-12.94;-1.39;22.89;11.99;-113.10;-410.00;0.93;148.40;-29.78;22.17 
2.857;-0.46;0.18;0.77;-10.64;-7.10;17.18;8.99;-115.98;-403.00;0.91;148.07;-29.45;22.08 
2.887;-0.43;0.13;0.77;-6.47;-6.47;9.11;6.00;-117.90;-409.00;0.89;148.03;-29.13;21.96 
2.917;-0.45;0.10;0.78;-3.20;-8.35;-0.14;9.99;-115.02;-410.00;0.91;148.34;-28.98;21.72 
2.947;-0.46;0.10;0.78;0.42;-15.79;-9.53;6.99;-120.77;-409.00;0.91;149.06;-28.77;21.45 
2.977;-0.45;0.14;0.74;3.97;-21.43;-16.21;6.00;-127.48;-413.00;0.88;150.13;-28.51;21.15 
3.007;-0.47;0.17;0.70;8.35;-17.25;-21.63;5.00;-130.36;-412.00;0.86;151.46;-28.28;20.89 
3.037;-0.50;0.21;0.73;11.76;-8.35;-25.60;4.00;-136.11;-419.00;0.91;152.98;-28.32;20.72 
3.067;-0.52;0.25;0.80;11.97;-8.14;-26.85;2.00;-141.86;-422.00;0.99;154.51;-28.55;20.54 
3.097;-0.50;0.26;0.79;11.20;-13.15;-24.49;6.00;-144.73;-421.00;0.97;156.03;-28.67;20.36 
3.128;-0.48;0.28;0.77;9.18;-11.90;-22.05;3.00;-148.57;-423.00;0.95;157.53;-28.67;20.21 
3.158;-0.46;0.26;0.75;7.10;-12.17;-17.67;0.00;-152.40;-424.00;0.92;158.83;-28.66;20.07 
3.188;-0.44;0.25;0.70;4.38;-10.50;-14.05;1.00;-159.11;-425.00;0.86;159.88;-28.59;19.92 
3.219;-0.47;0.24;0.67;3.55;-3.20;-11.97;-1.00;-157.20;-427.00;0.85;160.80;-28.67;19.75 
3.249;-0.48;0.24;0.67;2.71;1.88;-7.58;1.00;-161.99;-427.00;0.86;161.59;-28.94;19.59 
3.279;-0.49;0.22;0.67;1.53;7.23;-1.18;-2.00;-158.15;-429.00;0.86;162.16;-29.24;19.51 
3.309;-0.49;0.22;0.69;1.95;12.52;3.97;1.00;-156.24;-426.00;0.87;162.46;-29.62;19.50 
3.338;-0.51;0.22;0.70;4.17;14.05;7.23;4.00;-155.28;-426.00;0.89;162.66;-30.07;19.60 
3.368;-0.51;0.18;0.68;6.26;14.96;11.13;4.00;-148.57;-422.00;0.87;162.78;-30.49;19.74 
3.398;-0.49;0.21;0.63;6.75;19.20;14.40;10.99;-146.65;-420.00;0.83;162.84;-30.92;19.97 
3.429;-0.47;0.26;0.62;4.87;30.89;20.59;8.99;-136.11;-424.00;0.82;162.70;-31.53;20.34 
3.459;-0.46;0.36;0.74;0.63;37.98;33.74;17.99;-127.48;-417.00;0.94;162.13;-32.28;20.83 
3.489;-0.54;0.43;0.71;-0.21;31.30;52.17;20.98;-117.90;-412.00;0.99;161.06;-32.78;21.58 
3.519;-0.58;0.31;0.66;-2.23;21.98;65.18;29.98;-105.44;-409.00;0.93;159.49;-32.80;22.60 
3.549;-0.52;0.19;0.59;-4.24;32.77;57.74;37.97;-98.73;-404.00;0.81;157.73;-32.75;23.54 
3.579;-0.51;0.08;0.72;-5.50;42.16;37.22;43.96;-88.18;-399.00;0.89;156.21;-33.24;24.05 
3.609;-0.53;0.00;0.78;-1.53;32.63;13.36;48.96;-76.68;-390.00;0.94;155.28;-33.95;24.13 
3.640;-0.53;-0.02;0.75;2.99;21.22;-14.05;49.96;-66.14;-383.00;0.92;155.44;-34.79;23.79 
3.670;-0.46;0.19;0.66;-1.95;24.14;-30.26;46.96;-60.39;-380.00;0.83;156.38;-35.81;23.20 
3.700;-0.38;0.30;0.59;-11.34;24.83;-35.34;42.96;-54.63;-371.00;0.76;157.40;-36.96;22.32 
3.731;-0.42;0.44;0.51;-10.23;26.57;-31.44;35.97;-51.76;-364.00;0.79;158.28;-38.08;21.41 
3.761;-0.50;0.48;0.45;-11.97;38.61;-17.95;21.98;-41.22;-360.00;0.83;158.94;-39.28;20.78 
3.791;-0.53;0.46;0.58;-27.76;57.53;1.81;17.99;-31.63;-347.00;0.91;158.60;-40.70;20.33 
3.821;-0.63;0.42;0.72;-36.66;48.83;15.10;15.99;-23.96;-339.00;1.04;157.15;-42.10;19.81 
3.851;-0.66;0.26;0.74;-32.00;20.31;25.74;12.99;-12.46;-330.00;1.03;155.36;-42.84;19.37 
3.881;-0.56;0.17;0.60;-25.88;13.63;31.37;17.99;-1.92;-322.00;0.84;153.85;-42.94;19.28 
3.911;-0.53;0.06;0.52;-27.20;21.15;16.07;19.98;6.71;-318.00;0.74;152.48;-43.17;19.07 
3.942;-0.62;0.06;0.55;-31.79;24.28;-6.61;20.98;10.54;-312.00;0.83;151.54;-43.84;18.30 
3.971;-0.59;0.06;0.66;-41.46;29.29;-20.31;9.99;16.29;-304.00;0.89;150.88;-44.91;16.93 
4.001;-0.70;0.25;0.69;-34.23;18.16;-27.83;-1.00;20.13;-293.00;1.01;150.44;-45.90;15.46 
4.031;-0.62;0.43;0.74;-24.97;19.76;-8.49;-10.99;23.00;-286.00;1.06;150.43;-46.58;14.36 
4.061;-0.67;0.19;0.83;-21.29;-3.62;-0.21;-16.99;23.96;-283.00;1.08;150.03;-46.87;13.80 
4.091;-0.66;-0.02;0.69;-18.64;-27.34;-8.07;-18.98;27.80;-283.00;0.96;150.28;-46.40;13.13 
4.121;-0.57;-0.18;0.62;-9.95;-21.91;-32.90;-20.98;23.00;-283.00;0.86;151.23;-45.92;12.06 
4.152;-0.54;-0.21;0.59;7.17;-31.72;-58.16;-33.97;12.46;-285.00;0.83;153.42;-45.58;10.57 
4.182;-0.72;-0.07;0.43;5.77;-29.84;-85.15;-44.96;2.88;-285.00;0.84;156.56;-45.27;8.73 
4.212;-0.78;0.08;0.35;19.48;-23.30;-104.90;-58.95;-0.96;-289.00;0.86;160.43;-45.26;6.69 
4.243;-0.71;0.25;0.25;39.65;-0.42;-89.39;-79.93;-13.42;-302.00;0.79;164.74;-45.54;5.06 
4.273;-0.73;0.24;0.50;39.58;20.10;-77.01;-83.93;-14.38;-296.00;0.92;168.65;-46.47;4.10 
4.303;-0.75;0.31;0.79;32.14;7.10;-68.24;-90.92;-14.38;-302.00;1.13;172.09;-47.18;3.23 
4.333;-0.92;0.18;0.76;19.41;-38.12;-72.21;-93.92;-16.29;-299.00;1.21;175.09;-46.95;2.08 
4.363;-0.64;0.14;0.53;29.15;-35.13;-69.84;-103.91;-32.59;-304.00;0.84;178.29;-45.81;0.80 
4.393;-0.92;0.07;0.75;8.14;-8.42;-34.02;-105.91;-33.55;-303.00;1.19;-179.26;-45.21;0.05 
4.423;-1.10;-0.30;1.10;-15.30;32.70;-38.96;-107.91;-30.67;-302.00;1.58;-178.51;-45.48;-1.11 
4.453;-0.67;-0.31;1.11;27.13;26.71;-42.92;-118.90;-27.80;-298.00;1.33;-176.95;-46.34;-2.42 
4.483;-0.66;-0.18;0.96;47.03;-28.52;-43.55;-124.90;-28.76;-291.00;1.18;-174.52;-45.75;-2.96 
4.513;-0.48;-0.11;0.63;53.08;-16.14;-44.59;-120.90;-42.17;-298.00;0.80;-171.64;-44.75;-3.41 
4.543;-0.33;0.01;0.61;57.32;4.03;-19.27;-119.90;-48.88;-306.00;0.69;-169.22;-44.22;-3.33 
4.572;-0.35;0.28;0.50;70.05;16.14;18.57;-108.91;-53.68;-308.00;0.67;-167.36;-44.20;-2.02 
4.602;-0.62;0.22;0.48;75.83;48.97;17.60;-85.93;-59.43;-306.00;0.81;-165.85;-44.93;-0.02 
4.632;-0.85;0.02;0.69;27.20;98.57;-5.36;-65.95;-59.43;-308.00;1.09;-163.76;-47.39;1.20 
4.662;-0.59;-0.04;0.94;20.24;34.85;-11.41;-60.95;-50.80;-307.00;1.11;-161.96;-49.36;1.18 
4.692;-0.47;0.06;0.78;11.97;-24.97;5.50;-61.95;-51.76;-313.00;0.91;-161.34;-49.26;1.05 
4.722;-0.54;0.23;0.54;11.69;-44.94;31.65;-59.95;-58.47;-323.00;0.80;-161.92;-47.95;1.44 
4.753;-0.58;0.26;0.45;15.23;-41.95;56.90;-46.96;-66.14;-332.00;0.78;-163.18;-46.52;2.68 
4.783;-0.46;0.14;0.45;3.20;-33.32;74.71;-34.97;-68.05;-335.00;0.66;-165.17;-45.23;4.25 
4.813;-0.47;-0.02;0.36;3.27;-41.60;74.09;-22.98;-68.05;-340.00;0.59;-167.43;-43.98;5.68 
4.843;-0.50;-0.18;0.27;-1.95;-47.65;60.24;-12.99;-76.68;-345.00;0.60;-169.45;-42.58;6.69 
4.873;-0.52;-0.33;0.19;8.83;-41.25;37.36;-6.99;-80.51;-351.00;0.64;-170.92;-41.29;7.12 
4.903;-0.66;-0.10;0.24;26.09;-17.32;7.03;1.00;-87.22;-358.00;0.71;-171.04;-40.63;7.35 
4.932;-0.59;0.37;0.36;35.90;-6.68;0.21;6.00;-88.18;-359.00;0.78;-170.06;-40.67;7.92 
4.963;-0.46;0.49;0.36;28.10;-29.91;30.82;15.99;-92.98;-363.00;0.76;-169.44;-40.26;9.16 
4.993;-0.42;0.37;0.30;23.79;-40.14;39.10;28.98;-98.73;-365.00;0.64;-169.87;-38.99;10.70 
5.022;-0.59;0.50;0.30;18.50;-30.68;51.20;34.97;-106.39;-362.00;0.83;-170.53;-37.87;12.12 
5.053;-0.82;0.52;0.73;22.19;16.97;47.23;37.97;-109.27;-363.00;1.21;-171.37;-37.19;13.70 
5.083;-0.78;0.37;1.62;12.03;105.53;20.94;51.96;-105.44;-353.00;1.84;-171.60;-38.56;14.80 
5.113;-1.54;0.47;2.70;59.83;70.96;-24.70;57.95;-91.06;-341.00;3.14;-170.39;-41.62;15.27 
5.143;-1.12;1.00;2.19;-66.71;-9.18;-28.03;55.95;-84.35;-339.00;2.66;-168.30;-42.48;15.10 
5.173;-0.43;0.70;1.20;-37.22;-58.02;35.90;40.97;-90.10;-340.00;1.45;-169.66;-40.91;14.35 
5.202;-0.15;0.45;0.74;-24.49;-25.67;51.48;42.96;-92.02;-344.00;0.88;-171.84;-38.96;14.52 
5.232;-0.14;0.42;0.53;-5.63;-3.69;64.90;43.96;-93.93;-351.00;0.69;-173.78;-37.65;15.35 
5.263;-0.25;0.11;0.35;-1.32;5.29;59.48;54.95;-95.85;-350.00;0.44;-175.75;-36.74;16.70 
5.293;-0.35;-0.15;0.22;7.51;7.93;19.97;58.95;-95.85;-350.00;0.44;-176.60;-36.65;17.26 
5.323;-0.36;-0.15;0.27;7.65;14.96;-27.62;61.95;-95.85;-354.00;0.47;-176.02;-37.40;16.78 
5.353;-0.29;0.22;0.47;9.18;6.26;-41.11;61.95;-95.85;-356.00;0.59;-174.38;-38.30;15.93 
5.383;-0.30;0.47;0.51;4.66;-10.99;-19.55;59.95;-100.64;-362.00;0.76;-173.06;-38.39;15.61 
5.413;-0.38;0.74;0.64;-10.78;18.16;-30.19;56.95;-102.56;-358.00;1.05;-172.18;-38.46;15.40 
5.443;-0.33;0.79;1.02;-43.55;82.37;-35.48;50.96;-99.68;-352.00;1.33;-171.42;-40.03;14.42 
5.474;-0.63;0.60;1.30;-50.78;27.06;-17.53;39.97;-89.14;-342.00;1.56;-171.43;-41.95;12.81 
5.504;-0.58;0.50;1.06;-39.17;-50.37;23.72;28.98;-92.02;-343.00;1.31;-172.48;-41.41;11.69 
5.534;-0.51;0.50;0.63;-30.12;-63.37;58.64;24.98;-101.60;-343.00;0.95;-174.55;-39.25;11.80 
5.565;-0.39;0.55;0.35;-29.29;-41.88;65.53;29.98;-107.35;-351.00;0.76;-177.00;-37.08;12.53 
5.595;-0.39;0.54;0.26;-35.69;14.82;75.41;31.97;-110.23;-354.00;0.72;-179.55;-36.00;13.51 
5.624;-0.52;0.37;0.43;-41.95;63.51;77.36;34.97;-102.56;-349.00;0.77;177.63;-36.49;14.25 
5.654;-0.65;0.38;0.82;-29.98;76.38;79.51;40.97;-91.06;-342.00;1.11;174.84;-37.93;14.88 
5.684;-0.69;0.32;0.98;-32.14;16.28;89.88;47.96;-80.51;-338.00;1.24;171.64;-38.56;15.86 
5.714;-0.58;0.17;0.72;-47.51;-25.25;78.89;52.96;-77.64;-337.00;0.94;168.50;-37.43;16.59 
5.744;-0.49;-0.06;0.57;-54.68;0.14;50.43;51.96;-80.51;-339.00;0.75;165.70;-36.31;16.43 
5.775;-0.53;-0.16;0.80;-36.52;26.99;29.43;46.96;-75.72;-333.00;0.97;163.66;-36.40;15.67 
5.805;-0.61;0.02;0.90;-22.47;11.34;21.84;45.96;-72.85;-328.00;1.09;162.47;-36.84;15.15 
5.835;-0.59;0.10;0.80;-26.85;-6.68;17.74;43.96;-70.93;-328.00;1.00;161.69;-36.69;14.87 
5.865;-0.49;0.21;0.75;-32.07;-7.51;7.37;40.97;-71.89;-329.00;0.92;161.17;-36.34;14.36 
5.895;-0.42;0.19;0.74;-36.52;-2.57;7.79;32.97;-73.80;-326.00;0.87;160.66;-36.06;13.64 
5.925;-0.42;0.13;0.74;-33.39;2.92;19.90;28.98;-72.85;-325.00;0.86;159.92;-35.82;13.01 
5.955;-0.44;0.11;0.77;-26.57;14.40;22.54;25.98;-72.85;-320.00;0.89;159.02;-35.82;12.64 
5.986;-0.44;0.11;0.80;-23.86;14.26;18.50;21.98;-67.10;-317.00;0.92;158.16;-36.03;12.34 
6.016;-0.43;0.16;0.81;-25.04;3.69;17.74;19.98;-67.10;-314.00;0.93;157.48;-36.06;12.04 
6.046;-0.39;0.19;0.74;-25.04;-6.96;23.30;18.98;-66.14;-313.00;0.86;156.85;-35.72;11.79 
6.077;-0.35;0.15;0.70;-25.60;-2.64;28.38;15.99;-64.22;-313.00;0.80;156.06;-35.15;11.65 
6.107;-0.30;0.10;0.73;-23.44;6.89;26.85;15.99;-62.30;-312.00;0.80;155.17;-34.82;11.50 
6.137;-0.27;0.14;0.76;-17.81;11.20;29.77;13.99;-60.39;-307.00;0.82;154.35;-34.67;11.45 
6.167;-0.29;0.18;0.76;-11.76;15.17;37.22;21.98;-55.59;-308.00;0.83;153.43;-34.58;11.74 
6.197;-0.27;0.26;0.83;-9.95;17.60;41.81;21.98;-57.51;-301.00;0.91;152.39;-34.48;12.30 
6.227;-0.26;0.26;0.92;-15.03;15.37;47.17;29.98;-48.88;-300.00;0.99;151.21;-34.36;12.90 
6.257;-0.30;0.26;0.88;-15.65;3.20;55.93;33.97;-46.01;-302.00;0.97;149.79;-33.97;13.47 
6.288;-0.35;0.18;0.81;-8.28;-4.03;62.54;39.97;-44.09;-295.00;0.90;148.34;-33.11;14.37 
6.317;-0.39;-0.03;0.91;-10.64;4.52;55.17;49.96;-43.13;-301.00;0.99;146.85;-32.37;15.12 
6.347;-0.48;-0.10;0.96;-15.51;9.60;28.94;54.95;-41.22;-299.00;1.08;145.78;-31.99;15.45 
6.377;-0.62;0.04;1.06;-19.97;13.50;3.97;52.96;-38.34;-294.00;1.23;145.39;-32.12;15.36 
6.407;-0.82;0.22;1.08;-29.77;-1.25;-17.88;46.96;-36.42;-295.00;1.37;145.55;-32.33;14.68 
6.437;-0.82;0.39;0.88;-29.98;-24.77;-24.90;36.97;-41.22;-296.00;1.26;146.37;-32.28;13.63 
6.467;-0.65;0.46;0.60;-24.42;-51.55;0.49;34.97;-44.09;-293.00;1.00;147.27;-31.45;12.92 
6.498;-0.39;0.39;0.23;-13.50;-54.75;35.34;19.98;-55.59;-308.00;0.60;147.52;-29.79;13.11 
6.528;-0.37;0.29;0.10;-4.45;-7.10;46.33;25.98;-57.51;-311.00;0.48;146.89;-28.63;14.07 
6.558;-0.50;0.19;0.33;-11.13;54.33;36.94;30.97;-53.68;-310.00;0.63;145.75;-29.17;14.91 
6.589;-0.62;0.15;0.82;-12.24;75.76;18.50;32.97;-46.01;-301.00;1.04;144.38;-31.05;15.17 
6.619;-0.69;0.25;1.10;-4.87;42.23;10.57;31.97;-25.88;-288.00;1.32;143.46;-32.78;15.19 
6.649;-0.60;0.35;0.94;-1.67;-18.30;32.49;32.97;-23.00;-282.00;1.17;143.20;-32.92;15.52 
6.679;-0.40;0.28;0.52;-2.16;-25.04;38.26;35.97;-24.92;-284.00;0.71;142.92;-31.84;16.22 
6.709;-0.34;0.26;0.37;-1.32;21.22;34.09;39.97;-20.13;-287.00;0.57;142.34;-31.25;17.07 
6.739;-0.37;0.30;0.58;-1.53;53.77;30.26;46.96;-14.38;-280.00;0.75;141.37;-31.93;17.79 
6.769;-0.45;0.26;0.81;-1.04;50.02;31.30;48.96;-9.59;-275.00;0.96;140.14;-32.99;18.45 
6.800;-0.44;0.29;0.86;-2.37;29.70;25.25;53.96;1.92;-261.00;1.01;139.13;-33.68;19.02 
6.830;-0.48;0.21;0.90;-9.18;4.38;16.00;56.95;4.79;-261.00;1.04;138.63;-33.77;19.36 
6.860;-0.50;0.19;0.77;-19.41;-18.85;3.20;51.96;6.71;-258.00;0.94;138.70;-33.35;19.24 
6.890;-0.43;0.12;0.59;-32.42;-25.32;-10.23;47.96;4.79;-259.00;0.74;139.20;-32.69;18.59 
6.920;-0.35;0.14;0.56;-32.21;-1.04;-16.49;37.97;3.83;-256.00;0.68;139.77;-32.36;17.50 
6.950;-0.64;0.30;0.66;-26.37;6.75;-10.02;29.98;3.83;-252.00;0.97;140.15;-32.67;16.57 
6.980;-0.89;0.59;0.69;-8.00;23.10;5.77;18.98;10.54;-245.00;1.27;140.13;-33.12;16.14 
7.010;-0.77;0.74;0.82;13.63;48.83;47.65;25.98;16.29;-237.00;1.35;139.49;-34.25;16.97 
7.039;-0.70;0.30;0.78;-2.85;-5.08;83.20;35.97;25.88;-229.00;1.09;137.56;-34.22;18.54 
7.068;-0.58;-0.02;0.40;-18.64;-25.39;69.36;48.96;26.84;-224.00;0.70;135.90;-33.01;19.62 
7.098;-0.50;-0.13;0.19;-16.97;24.63;32.07;54.95;30.67;-219.00;0.55;134.53;-32.59;19.81 
7.127;-0.66;0.02;0.42;-5.70;87.30;13.63;56.95;42.17;-206.00;0.78;133.15;-34.29;19.70 
7.156;-0.87;0.26;0.86;-2.50;94.54;17.60;63.95;52.72;-187.00;1.25;131.43;-36.77;19.83 
7.186;-0.87;0.23;0.91;-9.11;52.10;29.77;70.94;60.39;-170.00;1.28;129.42;-38.63;20.18 
7.215;-0.69;0.12;0.65;-17.39;26.99;20.17;69.94;70.93;-158.00;0.96;127.96;-39.38;20.40 
7.244;-0.50;-0.03;0.33;-9.53;11.06;18.16;72.94;76.68;-149.00;0.60;127.10;-39.87;20.25 
7.273;-0.38;-0.05;-0.06;18.85;63.17;5.08;72.94;86.27;-127.00;0.39;126.62;-40.68;20.38 
7.303;-0.69;0.34;0.59;-6.89;113.81;-2.50;72.94;94.89;-107.00;0.97;124.18;-44.14;20.23 
7.333;-0.82;0.42;0.48;-21.01;68.31;14.05;69.94;103.52;-88.00;1.04;121.54;-46.49;20.21 
7.363;-0.66;0.33;0.24;-17.11;71.10;33.32;73.94;107.35;-74.00;0.78;118.77;-48.12;20.49 
7.392;-0.74;0.40;0.23;-14.61;101.63;49.95;81.93;114.06;-56.00;0.87;114.49;-49.99;21.48 
7.422;-0.62;0.24;0.35;-6.26;95.79;68.66;96.92;117.90;-23.00;0.75;108.92;-51.84;22.89 
7.452;-0.65;0.12;0.26;-3.41;90.57;73.11;112.91;125.56;-4.00;0.71;103.07;-52.83;24.82 
7.483;-0.82;0.06;0.40;7.37;100.94;63.30;131.89;130.36;18.00;0.91;96.40;-53.60;27.05 
7.512;-0.75;0.19;0.58;0.49;79.58;55.30;136.89;127.48;29.00;0.97;90.12;-54.23;28.84 
7.541;-0.67;0.42;0.42;-0.14;42.50;47.86;155.87;127.48;60.00;0.90;85.49;-54.09;30.42 
7.571;-0.60;0.57;0.30;2.02;26.85;46.26;162.86;128.44;72.00;0.88;81.93;-53.40;32.05 
7.601;-0.80;0.70;0.36;-2.23;23.79;76.45;173.86;126.52;82.00;1.12;77.73;-52.08;34.23 
7.630;-0.98;0.57;0.42;-5.63;7.44;93.29;192.84;120.77;87.00;1.21;73.49;-49.92;36.97 
7.659;-0.90;0.37;0.41;-1.60;-12.24;77.22;214.82;118.85;91.00;1.06;70.27;-47.65;39.52 
7.688;-0.74;0.56;0.28;13.57;-21.43;72.00;236.80;114.06;92.00;0.97;67.96;-45.67;41.69 
7.717;-0.85;0.96;0.29;17.74;-8.90;78.19;248.79;110.23;97.00;1.31;64.93;-43.40;44.28 
7.746;-0.86;0.88;0.29;17.39;-0.49;84.59;267.78;104.48;102.00;1.26;61.17;-41.18;46.90 
7.775;-0.94;0.56;0.32;25.67;-7.30;67.27;290.76;97.77;107.00;1.14;57.04;-38.81;49.65 
7.805;-0.93;0.63;0.33;5.22;-2.57;49.04;306.75;91.06;106.00;1.17;53.85;-37.24;51.54 
7.834;-0.90;0.78;0.39;-28.24;-6.12;37.01;321.73;85.31;109.00;1.25;52.04;-36.01;52.85 
7.864;-0.92;0.75;0.34;-30.05;-7.30;24.21;335.72;88.18;108.00;1.23;51.37;-35.06;53.73 
7.893;-0.94;0.75;0.42;-29.01;-10.09;6.68;346.71;86.27;111.00;1.27;51.36;-34.63;54.08 
7.922;-0.76;0.80;0.46;-20.03;-9.67;8.07;352.71;88.18;116.00;1.20;51.48;-34.40;54.26 
7.952;-0.83;0.84;0.42;-9.95;-4.73;-2.71;361.70;91.06;114.00;1.25;51.21;-34.32;54.38 
7.982;-0.70;0.89;0.36;1.67;5.98;-2.78;364.70;92.98;121.00;1.19;50.29;-34.42;54.45 
8.012;-0.70;0.78;0.39;1.81;10.99;4.66;374.69;95.85;127.00;1.12;48.62;-34.37;54.72 
8.042;-0.77;0.77;0.41;-3.41;8.07;9.18;378.69;98.73;130.00;1.16;46.79;-34.11;55.17 
8.072;-0.66;0.66;0.38;-4.17;3.83;5.57;380.68;99.68;127.00;1.01;45.39;-33.85;55.55 
8.102;-0.66;0.66;0.33;-1.32;6.47;-0.14;386.68;98.73;131.00;0.99;44.15;-33.69;55.82 
8.132;-0.70;0.70;0.38;-0.56;9.46;-5.77;384.68;96.81;132.00;1.06;42.85;-33.76;55.87 
8.162;-0.63;0.77;0.36;0.49;5.98;-6.82;381.68;101.60;131.00;1.06;41.69;-33.94;55.79 
8.192;-0.62;0.70;0.34;0.21;6.68;-3.55;379.68;103.52;135.00;0.99;40.42;-34.02;55.80 
8.222;-0.64;0.67;0.31;3.48;10.92;-2.02;382.68;99.68;137.00;0.98;39.00;-34.07;55.82 
8.253;-0.63;0.73;0.30;7.10;11.62;-2.50;379.68;101.60;141.00;1.01;37.26;-34.06;55.90 
8.283;-0.69;0.69;0.34;3.62;10.23;-3.13;374.69;103.52;144.00;1.03;35.52;-34.09;55.90 
8.313;-0.66;0.69;0.33;3.13;7.44;-7.79;375.69;101.60;145.00;1.01;34.18;-34.21;55.79 
8.343;-0.69;0.64;0.38;4.03;4.03;-16.00;373.69;102.56;150.00;1.01;33.18;-34.49;55.50 
8.373;-0.77;0.74;0.30;0.56;2.16;-23.30;366.70;105.44;152.00;1.11;32.52;-35.03;54.93 
8.403;-0.73;0.74;0.29;-0.42;4.66;-31.30;354.71;109.27;151.00;1.08;32.12;-35.76;54.17 
8.433;-0.74;0.69;0.28;9.32;6.96;-22.19;349.71;111.19;155.00;1.05;31.65;-36.58;53.30 
8.464;-0.66;0.70;0.28;27.41;5.91;-14.05;346.71;109.27;155.00;1.00;29.98;-37.09;52.67 
8.494;-0.73;0.69;0.24;28.45;3.76;-3.62;339.72;108.31;159.00;1.03;27.49;-37.20;52.37 
8.524;-0.73;0.63;0.24;19.06;5.70;-10.16;332.72;106.39;162.00;0.99;24.94;-37.25;52.09 
8.554;-0.74;0.57;0.26;17.11;-0.14;-23.51;329.73;108.31;163.00;0.97;23.41;-37.61;51.52 
8.584;-0.77;0.68;0.24;15.10;0.21;-32.35;325.73;110.23;162.00;1.05;22.00;-38.36;50.54 
8.614;-0.86;0.68;0.24;8.35;3.41;-37.98;310.74;114.06;166.00;1.12;21.28;-39.27;49.42 
8.644;-0.80;0.65;0.22;15.10;3.06;-42.50;297.75;115.02;162.00;1.05;20.80;-40.41;48.05 
8.675;-0.80;0.70;0.26;21.36;8.70;-33.67;290.76;117.90;164.00;1.09;19.53;-41.36;46.76 
8.705;-0.86;0.62;0.21;19.76;6.26;-34.71;277.77;119.81;170.00;1.08;18.25;-42.22;45.56 
8.735;-0.81;0.56;0.25;20.66;6.12;-49.32;269.78;123.65;164.00;1.02;17.22;-43.34;44.04 
8.766;-0.81;0.62;0.26;8.90;1.32;-47.51;254.79;122.69;160.00;1.05;16.79;-44.62;42.43 
8.795;-0.95;0.58;0.26;0.63;-1.39;-52.66;241.80;125.56;157.00;1.14;17.21;-45.99;40.86 
8.824;-0.87;0.53;0.30;-2.78;-3.76;-45.08;226.81;128.44;149.00;1.06;18.01;-47.32;39.38 
8.853;-0.86;0.48;0.31;-4.94;-13.22;-43.13;222.81;128.44;150.00;1.03;18.91;-48.53;38.15 
8.883;-0.92;0.50;0.30;-9.18;-21.77;-43.13;207.83;131.32;139.00;1.09;20.33;-49.87;36.90 
8.913;-0.89;0.46;0.34;-6.19;-25.46;-44.17;199.83;133.23;125.00;1.06;22.03;-51.24;35.72 
8.943;-0.82;0.42;0.37;-3.48;-29.08;-41.18;185.85;132.27;122.00;0.99;23.63;-52.68;34.46 
8.974;-0.82;0.40;0.39;-4.87;-37.08;-32.49;179.85;134.19;112.00;0.99;25.40;-54.06;33.35 
9.004;-0.79;0.38;0.42;-7.10;-45.08;-26.92;167.86;134.19;96.00;0.97;27.52;-55.33;32.47 
9.034;-0.84;0.37;0.43;-9.67;-51.41;-29.29;157.87;133.23;85.00;1.01;30.18;-56.57;31.65 
9.065;-0.81;0.42;0.48;-11.34;-59.20;-31.51;146.88;128.44;69.00;1.03;33.82;-57.94;30.76 
9.095;-0.82;0.36;0.50;-10.92;-77.01;-29.15;140.88;127.48;65.00;1.03;39.03;-59.31;29.91 
9.125;-0.77;0.27;0.46;-7.10;-87.58;-28.31;126.89;122.69;27.00;0.94;46.20;-60.61;29.07 
9.155;-0.74;0.21;0.46;-8.49;-88.14;-32.28;121.90;117.90;7.00;0.90;56.01;-61.76;28.19 
9.186;-0.68;0.18;0.44;-6.89;-81.32;-34.30;112.91;114.06;-20.00;0.83;68.79;-62.85;27.13 
9.216;-0.66;0.19;0.49;-0.28;-74.57;-33.32;109.91;104.48;-44.00;0.84;82.78;-63.67;26.08 
9.246;-0.62;0.24;0.58;4.52;-80.21;-30.89;103.91;91.06;-80.00;0.88;97.64;-64.08;25.20 
9.277;-0.62;0.26;0.57;4.45;-91.76;-28.94;97.92;88.18;-93.00;0.88;114.48;-64.03;24.42 
9.307;-0.68;0.27;0.50;-0.83;-94.54;-32.49;91.92;77.64;-127.00;0.89;129.79;-63.58;23.60 
9.337;-0.70;0.32;0.50;3.90;-69.91;-34.30;89.93;66.14;-151.00;0.92;140.47;-63.11;22.67 
9.367;-0.58;0.29;0.60;4.38;-48.42;-19.62;79.93;56.55;-170.00;0.88;147.41;-62.67;21.97 
9.397;-0.54;0.20;0.69;5.36;-61.50;-5.01;78.93;52.72;-184.00;0.90;152.72;-61.71;21.73 
9.427;-0.46;0.10;0.59;6.96;-70.75;-12.38;81.93;36.42;-209.00;0.75;157.51;-60.36;21.54 
9.457;-0.46;0.00;0.51;0.42;-58.57;-24.63;83.93;31.63;-223.00;0.69;161.45;-59.22;20.99 
9.487;-0.50;0.02;0.54;0.00;-37.77;-43.55;71.94;23.00;-246.00;0.74;164.65;-58.75;19.81 
9.517;-0.48;0.15;0.57;3.90;-18.78;-51.34;66.94;17.25;-252.00;0.76;167.68;-58.92;18.40 
9.547;-0.51;0.33;0.66;11.69;-16.49;-34.85;58.95;12.46;-258.00;0.90;170.54;-59.12;17.28 
9.577;-0.53;0.30;0.68;13.98;-20.80;-11.55;58.95;5.75;-266.00;0.91;173.03;-58.74;16.94 
9.606;-0.59;0.16;0.74;7.44;-22.61;-14.89;54.95;1.92;-275.00;0.96;174.88;-58.17;16.80 
9.636;-0.54;0.10;0.70;2.09;-24.28;-24.35;53.96;-4.79;-279.00;0.89;176.32;-57.67;16.23 
9.666;-0.43;0.18;0.70;8.97;-14.19;-26.37;46.96;-9.59;-282.00;0.84;177.93;-57.26;15.59 
9.696;-0.49;0.26;0.74;8.21;0.77;-20.52;44.96;-9.59;-287.00;0.92;179.69;-57.12;15.16 
9.726;-0.53;0.30;0.78;2.16;-6.89;-18.71;42.96;-12.46;-289.00;0.99;-178.96;-57.06;14.78 
9.756;-0.53;0.22;0.78;0.97;-17.67;-16.49;37.97;-19.17;-291.00;0.97;-177.97;-56.69;14.35 
9.787;-0.50;0.11;0.72;2.23;-16.14;-12.66;35.97;-19.17;-293.00;0.88;-177.09;-56.16;13.95 
9.817;-0.50;0.11;0.64;4.45;-7.44;-12.94;37.97;-26.84;-296.00;0.82;-176.21;-55.71;13.59 
9.847;-0.48;0.20;0.69;6.54;3.34;-16.14;35.97;-27.80;-299.00;0.86;-175.17;-55.56;13.24 
9.877;-0.50;0.27;0.77;5.84;5.43;-12.38;32.97;-24.92;-298.00;0.96;-174.09;-55.60;12.98 
9.907;-0.49;0.30;0.78;2.50;-2.64;-4.10;31.97;-26.84;-298.00;0.97;-173.34;-55.43;12.90 
9.937;-0.42;0.25;0.77;1.60;-8.14;-0.07;31.97;-24.92;-300.00;0.91;-173.00;-54.96;12.89 
9.967;-0.40;0.18;0.76;-0.63;0.70;-0.49;31.97;-26.84;-298.00;0.88;-172.80;-54.49;12.89 
9.998;-0.45;0.14;0.74;0.70;0.70;-1.11;28.98;-26.84;-301.00;0.88;-172.58;-54.15;12.84 
10.027;-0.42;0.18;0.71;2.16;1.74;-1.53;30.97;-26.84;-303.00;0.84;-172.28;-53.87;12.79 
10.056;-0.46;0.18;0.74;3.76;6.96;-2.43;31.97;-25.88;-297.00;0.89;-171.90;-53.69;12.77 
10.086;-0.48;0.19;0.81;3.55;4.59;-4.94;30.97;-24.92;-298.00;0.96;-171.40;-53.58;12.73 
10.116;-0.46;0.23;0.78;4.10;0.42;-3.34;33.97;-25.88;-297.00;0.93;-170.93;-53.36;12.68 
10.146;-0.45;0.23;0.76;3.41;3.34;-2.57;30.97;-24.92;-300.00;0.91;-170.51;-53.10;12.69 
10.176;-0.44;0.24;0.75;2.02;1.95;-0.63;29.98;-23.00;-298.00;0.90;-170.18;-52.86;12.70 
10.206;-0.42;0.22;0.74;1.53;2.23;2.16;33.97;-22.05;-298.00;0.88;-169.97;-52.56;12.77 
