Time(s) acc_x(g) acc_y(g) acc_z(g) gyr_x(°/s) gyr_y(°/s) gyr_z(°/s) mag_x(G) mag_y(G) mag_z(G) SVM(g) yaw(°) pitch(°) roll(°)
0.000;-0.37;-0.16;0.74;-30.40;-0.42;40.63;-114.61;-331.51;-365.00;0.84;125.98;-1.21;6.72 
0.030;-0.34;-0.16;0.77;-28.73;-0.49;40.42;-119.60;-326.72;-362.00;0.86;125.07;-1.25;5.90 
0.061;-0.27;-0.14;0.74;-28.17;-0.42;40.70;-124.58;-323.85;-361.00;0.80;124.12;-1.26;5.08 
0.091;-0.22;-0.14;0.74;-24.77;-0.28;40.70;-129.56;-319.06;-356.00;0.78;123.18;-1.27;4.34 
0.121;-0.22;-0.16;0.74;-19.83;6.89;36.03;-134.55;-312.35;-353.00;0.79;122.34;-1.30;3.72 
0.151;-0.17;-0.11;0.78;-10.43;8.77;31.44;-137.54;-307.56;-354.00;0.81;121.67;-1.50;3.30 
0.181;-0.14;-0.16;0.86;-5.29;-0.42;29.63;-136.54;-300.85;-351.00;0.89;121.03;-1.61;3.22 
0.211;-0.17;-0.21;0.83;0.63;-10.50;24.49;-133.55;-299.89;-354.00;0.87;120.57;-1.40;3.19 
0.241;-0.21;-0.21;0.88;8.70;-17.60;13.43;-131.56;-297.98;-353.00;0.93;120.34;-0.95;3.35 
0.272;-0.14;-0.14;0.98;10.16;-32.63;1.04;-132.55;-301.81;-357.00;1.00;120.51;-0.20;3.74 
0.302;-0.06;-0.13;0.82;10.92;-34.30;-2.37;-129.56;-308.52;-357.00;0.83;120.95;0.99;4.16 
0.332;0.00;-0.02;0.74;14.75;-11.27;-1.32;-128.57;-310.43;-360.00;0.74;121.43;1.80;4.67 
0.362;-0.40;-0.02;1.02;7.51;11.06;4.59;-122.59;-311.39;-365.00;1.10;121.66;1.81;5.20 
0.391;-0.57;-0.02;1.09;-14.47;-14.61;4.45;-123.58;-310.43;-364.00;1.23;121.99;1.56;5.29 
0.420;-0.72;0.17;0.68;-26.71;-17.81;9.81;-123.58;-312.35;-363.00;1.00;122.09;1.75;4.95 
0.450;-0.64;0.23;0.66;-44.52;-3.34;27.41;-131.56;-314.26;-359.00;0.95;122.00;1.76;4.37 
0.480;-0.56;-0.13;1.10;-30.61;9.53;47.30;-138.53;-308.52;-356.00;1.24;121.22;1.17;3.37 
0.510;-0.53;-0.34;1.10;5.29;-30.54;53.84;-140.53;-304.68;-353.00;1.27;120.05;1.28;2.98 
0.540;-0.39;-0.10;0.77;23.23;-29.15;45.01;-137.54;-300.85;-354.00;0.87;118.89;2.15;3.38 
0.571;-0.33;0.08;0.66;23.51;-0.07;41.95;-127.57;-301.81;-358.00;0.74;117.99;2.54;4.30 
0.601;-0.33;-0.11;0.78;20.52;14.47;42.50;-128.57;-295.10;-361.00;0.85;117.03;2.16;5.13 
0.631;-0.33;-0.20;0.93;24.90;1.11;22.47;-114.61;-285.52;-366.00;1.01;116.30;1.79;5.78 
0.661;-0.26;-0.04;1.02;34.37;-13.29;12.10;-110.63;-285.52;-368.00;1.05;116.22;1.87;6.69 
0.691;-0.24;0.12;0.85;25.11;-40.07;20.94;-104.65;-287.44;-371.00;0.89;116.24;2.64;7.80 
0.721;-0.18;0.02;0.73;22.82;-40.21;27.62;-97.67;-294.14;-376.00;0.75;115.99;3.86;8.71 
0.751;-0.09;0.07;0.66;21.77;-18.78;27.76;-88.70;-298.93;-380.00;0.67;115.60;4.88;9.46 
0.782;-0.18;0.02;0.74;21.91;2.09;24.49;-82.72;-298.93;-386.00;0.76;115.20;5.19;10.24 
0.812;-0.18;0.07;0.78;14.82;-0.28;20.59;-77.74;-294.14;-384.00;0.80;114.89;5.25;10.95 
0.842;-0.14;0.07;0.77;8.63;5.98;16.35;-73.75;-292.23;-387.00;0.79;114.68;5.25;11.44 
0.873;-0.18;0.06;0.78;6.68;13.98;16.21;-70.76;-290.31;-389.00;0.80;114.51;4.98;11.84 
0.902;-0.18;0.04;0.88;7.79;18.16;13.91;-67.77;-282.65;-389.00;0.90;114.36;4.54;12.19 
0.932;-0.23;0.10;0.88;9.88;21.63;14.19;-64.78;-277.86;-392.00;0.92;114.21;3.97;12.57 
0.962;-0.26;0.07;0.87;12.10;19.27;13.91;-62.79;-272.11;-388.00;0.91;114.05;3.33;13.02 
0.992;-0.27;0.07;0.80;15.17;17.60;13.08;-56.81;-261.57;-390.00;0.85;113.94;2.78;13.55 
1.022;-0.28;0.10;0.82;15.17;20.73;13.77;-52.82;-257.74;-393.00;0.87;113.84;2.19;14.18 
1.052;-0.27;0.18;0.84;11.62;23.58;13.77;-51.83;-252.94;-392.00;0.90;113.71;1.52;14.81 
1.083;-0.26;0.18;0.86;4.73;24.14;17.11;-47.84;-245.28;-391.00;0.92;113.45;0.82;15.28 
1.113;-0.30;0.20;0.84;-2.16;27.27;18.50;-38.87;-236.66;-388.00;0.91;113.11;0.14;15.54 
1.143;-0.26;0.24;0.85;-7.93;37.63;23.72;-37.87;-228.03;-388.00;0.92;112.60;-0.63;15.65 
1.173;-0.26;0.22;0.99;-7.58;52.17;29.36;-39.87;-217.49;-385.00;1.05;111.87;-1.77;15.71 
1.203;-0.34;0.04;1.10;-2.43;54.33;31.86;-36.88;-205.04;-381.00;1.15;110.79;-3.07;15.71 
1.233;-0.49;0.01;1.18;1.18;62.47;18.71;-32.89;-184.92;-379.00;1.28;109.90;-4.38;15.97 
1.263;-0.57;0.20;1.28;-0.77;56.77;3.97;-30.90;-172.46;-371.00;1.42;109.45;-6.13;16.17 
1.294;-0.54;0.24;1.08;-9.25;35.90;11.90;-30.90;-161.92;-370.00;1.23;109.13;-7.54;16.23 
1.324;-0.44;0.09;0.76;-13.36;31.79;8.28;-29.90;-155.22;-367.00;0.88;108.82;-8.54;16.11 
1.354;-0.48;-0.06;0.63;-18.92;36.73;-8.77;-32.89;-141.80;-362.00;0.79;108.78;-9.69;15.74 
1.385;-0.62;-0.06;0.58;-21.98;37.15;-32.42;-40.86;-137.01;-357.00;0.85;109.37;-11.18;14.99 
1.415;-0.72;-0.02;0.62;-16.00;39.23;-47.37;-42.86;-129.35;-351.00;0.95;110.53;-12.58;14.35 
1.445;-0.82;-0.04;0.72;-11.06;24.97;-59.48;-56.81;-128.39;-352.00;1.09;112.08;-13.76;13.82 
1.475;-0.73;-0.14;0.86;-6.89;13.57;-69.77;-65.78;-126.47;-347.00;1.14;114.12;-15.06;13.07 
1.506;-0.73;-0.16;0.78;-3.34;-0.35;-78.05;-69.77;-124.56;-346.00;1.08;116.65;-16.06;12.22 
1.536;-0.69;-0.09;0.69;-11.41;5.43;-91.27;-83.72;-134.14;-347.00;0.98;119.57;-16.89;11.20 
1.566;-0.59;-0.10;0.68;-21.15;20.59;-99.97;-98.67;-139.89;-347.00;0.91;122.60;-18.04;9.82 
1.597;-0.59;-0.13;0.67;-18.23;29.01;-107.27;-121.59;-148.51;-341.00;0.90;125.82;-19.63;8.13 
1.627;-0.59;-0.15;0.66;-19.27;29.57;-105.04;-136.54;-155.22;-336.00;0.90;129.09;-21.23;6.36 
1.657;-0.52;-0.08;0.66;-24.21;25.25;-101.98;-154.48;-163.84;-331.00;0.84;132.22;-22.48;4.50 
1.687;-0.50;-0.08;0.61;-29.57;-1.18;-91.20;-169.43;-172.46;-330.00;0.79;135.15;-23.26;2.53 
1.717;-0.43;-0.11;0.56;-21.08;-11.06;-78.05;-185.38;-191.62;-324.00;0.71;137.91;-23.26;0.70 
1.747;-0.36;0.05;0.51;-18.57;-8.49;-67.13;-196.34;-202.16;-325.00;0.63;140.23;-23.07;-0.66 
1.777;-0.32;-0.16;0.54;-18.99;-16.28;-48.42;-203.32;-209.83;-323.00;0.65;142.09;-22.75;-1.84 
1.808;-0.32;-0.27;0.54;-15.86;-19.48;-43.69;-211.29;-222.28;-321.00;0.68;143.77;-22.22;-3.13 
1.838;-0.39;-0.26;0.53;-12.24;-12.73;-33.88;-222.25;-234.74;-321.00;0.71;145.26;-21.73;-4.27 
1.867;-0.42;-0.23;0.63;-11.27;-7.72;-21.43;-224.25;-241.45;-319.00;0.79;146.25;-21.53;-5.07 
1.897;-0.41;-0.32;0.70;-12.03;-2.85;-13.22;-226.24;-243.36;-318.00;0.87;146.91;-21.47;-5.74 
1.927;-0.44;-0.42;0.77;-8.90;-4.38;-13.77;-230.23;-248.15;-318.00;0.98;147.50;-21.41;-6.44 
1.957;-0.40;-0.41;0.70;-9.74;-3.27;-12.94;-233.22;-249.11;-314.00;0.90;148.07;-21.30;-7.07 
1.987;-0.38;-0.38;0.66;-10.09;0.77;-15.37;-242.19;-251.99;-315.00;0.85;148.64;-21.27;-7.76 
2.018;-0.37;-0.42;0.62;-13.98;8.14;-10.37;-241.19;-254.86;-310.00;0.84;149.18;-21.43;-8.53 
2.048;-0.40;-0.34;0.62;-10.37;9.46;-4.45;-241.19;-254.86;-313.00;0.81;149.51;-21.78;-9.24 
2.078;-0.36;-0.34;0.62;-10.57;13.22;3.34;-250.16;-252.94;-310.00;0.79;149.58;-22.25;-9.77 
2.109;-0.45;-0.39;0.69;-8.07;11.90;9.67;-245.18;-246.24;-306.00;0.91;149.49;-22.74;-10.16 
2.139;-0.50;-0.57;0.77;-9.39;6.54;6.96;-252.15;-244.32;-306.00;1.08;149.25;-23.24;-10.58 
2.169;-0.41;-0.46;0.67;-7.37;1.32;5.70;-253.15;-243.36;-304.00;0.91;149.30;-23.42;-11.06 
2.199;-0.43;-0.42;0.78;-10.30;7.23;8.90;-253.15;-238.57;-302.00;0.98;149.19;-23.68;-11.43 
2.229;-0.53;-0.48;0.90;-12.59;0.49;11.20;-259.13;-236.66;-303.00;1.15;149.00;-23.93;-11.86 
2.259;-0.60;-0.51;0.90;-6.82;-11.69;17.32;-260.13;-233.78;-301.00;1.20;148.69;-23.92;-12.21 
2.289;-0.50;-0.30;0.71;-0.90;-9.39;19.76;-260.13;-233.78;-305.00;0.92;148.39;-23.79;-12.27 
2.320;-0.49;-0.34;0.70;-4.38;4.10;34.50;-257.14;-228.99;-304.00;0.92;147.69;-24.08;-12.13 
2.350;-0.51;-0.34;0.74;-0.90;-1.11;40.56;-257.14;-225.16;-303.00;0.96;146.73;-24.48;-11.89 
2.380;-0.49;-0.44;0.66;3.27;-2.50;41.74;-250.16;-215.58;-304.00;0.93;145.71;-24.78;-11.51 
2.410;-0.52;-0.40;0.57;5.57;3.76;38.47;-248.17;-214.62;-309.00;0.87;144.75;-25.17;-11.09 
2.440;-0.58;-0.30;0.75;8.28;5.36;41.67;-242.19;-203.12;-311.00;0.99;143.74;-25.77;-10.54 
2.470;-0.62;-0.29;0.84;7.44;-10.23;47.79;-238.20;-195.46;-312.00;1.08;142.69;-26.10;-9.83 
2.500;-0.58;-0.31;0.75;9.32;-16.70;49.25;-236.21;-190.67;-321.00;1.00;141.57;-26.04;-9.05 
2.531;-0.51;-0.35;0.69;14.61;-6.33;51.90;-230.23;-189.71;-322.00;0.93;140.42;-26.06;-8.19 
2.561;-0.53;-0.33;0.80;18.57;-0.35;51.83;-217.27;-178.21;-332.00;1.01;139.22;-26.28;-7.19 
2.591;-0.54;-0.27;0.89;22.75;-7.10;47.93;-206.31;-173.42;-334.00;1.08;138.17;-26.47;-6.12 
2.622;-0.52;-0.22;0.82;27.27;-23.86;49.95;-199.33;-170.55;-341.00;1.00;137.24;-26.24;-4.85 
2.652;-0.47;-0.22;0.72;28.66;-34.23;50.43;-188.37;-171.50;-347.00;0.89;136.36;-25.54;-3.46 
2.682;-0.44;-0.23;0.59;29.22;-37.36;45.70;-173.42;-175.34;-359.00;0.77;135.68;-24.56;-2.17 
2.712;-0.42;-0.14;0.54;30.96;-29.77;40.77;-163.45;-175.34;-367.00;0.70;135.11;-23.71;-0.91 
2.741;-0.37;-0.10;0.53;29.01;-22.75;39.37;-150.49;-175.34;-376.00;0.65;134.64;-23.02;0.31 
2.771;-0.39;-0.08;0.61;26.16;-17.46;40.00;-143.52;-180.13;-381.00;0.73;134.11;-22.53;1.50 
2.801;-0.43;-0.04;0.70;25.88;-17.95;38.12;-132.55;-178.21;-390.00;0.82;133.60;-22.05;2.73 
2.832;-0.48;-0.10;0.63;21.36;-21.77;30.61;-122.59;-180.13;-396.00;0.80;133.18;-21.52;3.83 
2.862;-0.47;-0.13;0.62;17.88;-17.04;20.59;-117.60;-183.00;-402.00;0.79;133.03;-21.05;4.62 
2.892;-0.48;-0.06;0.72;17.25;-10.71;7.72;-113.62;-183.96;-406.00;0.87;133.17;-20.72;5.24 
2.922;-0.51;0.01;0.78;11.20;-11.76;-1.25;-106.64;-186.83;-410.00;0.93;133.61;-20.57;5.70 
2.951;-0.50;0.00;0.75;6.26;-23.17;-4.52;-101.66;-194.50;-410.00;0.90;134.27;-20.01;6.06 
2.981;-0.46;-0.03;0.73;3.13;-28.38;-10.37;-103.65;-200.25;-412.00;0.86;135.06;-19.28;6.25 
3.011;-0.41;-0.02;0.66;-2.16;-26.92;-14.47;-104.65;-206.00;-414.00;0.78;135.99;-18.62;6.17 
3.042;-0.37;-0.03;0.66;-8.14;-21.50;-19.69;-102.65;-214.62;-415.00;0.76;137.02;-17.93;5.97 
3.072;-0.34;-0.10;0.68;-9.60;-14.33;-24.77;-109.63;-224.20;-417.00;0.77;138.13;-17.52;5.49 
3.102;-0.44;-0.09;0.86;-7.72;-5.98;-24.42;-115.61;-229.95;-418.00;0.97;139.23;-17.44;5.02 
3.133;-0.51;0.00;0.94;-7.23;-9.88;-23.23;-117.60;-232.82;-420.00;1.07;140.34;-17.42;4.56 
3.162;-0.43;0.05;0.98;-4.87;-19.20;-9.04;-120.59;-238.57;-414.00;1.07;141.26;-17.14;4.31 
3.192;-0.42;-0.09;0.77;-2.99;-15.30;3.55;-122.59;-242.41;-416.00;0.88;141.68;-16.74;4.22 
3.222;-0.37;-0.19;0.64;-2.71;-0.28;-5.50;-120.59;-246.24;-418.00;0.76;142.09;-16.65;4.00 
3.252;-0.36;-0.14;0.75;-2.43;10.92;-11.48;-124.58;-246.24;-417.00;0.84;142.65;-16.98;3.69 
3.282;-0.41;0.00;0.86;1.04;6.89;-8.77;-121.59;-244.32;-415.00;0.95;143.26;-17.44;3.53 
3.312;-0.36;-0.09;0.85;0.97;-8.49;0.28;-126.57;-247.20;-417.00;0.93;143.73;-17.58;3.60 
3.343;-0.35;-0.11;0.75;-1.67;-4.38;-1.81;-124.58;-250.07;-414.00;0.83;144.12;-17.45;3.56 
3.373;-0.37;-0.13;0.80;-4.66;3.76;-3.76;-125.58;-249.11;-418.00;0.89;144.53;-17.59;3.39 
3.403;-0.39;-0.10;0.82;-3.20;0.97;-3.55;-122.59;-248.15;-415.00;0.91;144.93;-17.78;3.19 
3.433;-0.38;-0.14;0.85;-1.46;-2.78;-5.15;-126.57;-247.20;-417.00;0.94;145.38;-17.85;3.03 
3.463;-0.34;-0.14;0.83;-1.39;0.49;-8.63;-128.57;-250.07;-416.00;0.91;145.92;-17.92;2.84 
3.493;-0.37;-0.10;0.84;-0.35;1.53;-9.74;-128.57;-250.07;-414.00;0.92;146.50;-18.06;2.67 
3.523;-0.38;-0.07;0.79;0.28;-2.57;-9.46;-127.57;-250.07;-413.00;0.88;147.11;-18.18;2.52 
3.552;-0.35;-0.07;0.78;0.07;-3.27;-8.35;-131.56;-252.94;-414.00;0.86;147.75;-18.19;2.41 
3.581;-0.34;-0.09;0.78;-0.14;-1.32;-6.82;-128.57;-253.90;-414.00;0.86;148.30;-18.21;2.31 
3.610;-0.34;-0.10;0.80;0.35;-0.42;-5.91;-128.57;-256.78;-418.00;0.87;148.78;-18.26;2.20 
3.640;-0.34;-0.07;0.81;0.70;-0.63;-5.36;-130.56;-256.78;-418.00;0.88;149.27;-18.33;2.10 
3.670;-0.37;-0.09;0.80;1.18;-1.53;-3.27;-127.57;-255.82;-415.00;0.89;149.74;-18.39;2.02 
3.700;-0.38;-0.10;0.82;0.56;-2.02;-0.83;-128.57;-256.78;-414.00;0.91;150.13;-18.44;1.95 
3.731;-0.36;-0.10;0.82;0.07;0.00;0.90;-127.57;-259.65;-416.00;0.90;150.46;-18.49;1.90 
3.761;-0.34;-0.08;0.83;-0.49;-0.35;2.50;-127.57;-260.61;-415.00;0.90;150.73;-18.57;1.85 
3.791;-0.33;-0.09;0.82;-1.11;-0.49;3.48;-129.56;-258.69;-416.00;0.89;150.95;-18.64;1.80 
3.821;-0.34;-0.10;0.78;-1.25;0.49;5.01;-128.57;-257.74;-417.00;0.86;151.12;-18.72;1.74 
3.852;-0.35;-0.10;0.77;-1.25;1.88;6.05;-128.57;-256.78;-416.00;0.85;151.25;-18.84;1.68 
3.882;-0.34;-0.10;0.83;-1.18;1.60;6.33;-130.56;-255.82;-416.00;0.90;151.37;-18.96;1.62 
3.912;-0.36;-0.10;0.83;-1.32;0.97;5.98;-127.57;-255.82;-416.00;0.91;151.47;-19.07;1.55 
3.943;-0.36;-0.09;0.87;-0.63;1.04;6.40;-132.55;-251.99;-415.00;0.95;151.59;-19.19;1.51 
3.972;-0.38;-0.10;0.83;-0.07;0.00;7.10;-127.57;-251.99;-415.00;0.92;151.70;-19.26;1.50 
4.002;-0.35;-0.11;0.84;-0.07;-0.83;6.12;-128.57;-251.99;-415.00;0.92;151.80;-19.34;1.50 
4.032;-0.33;-0.10;0.80;0.49;0.07;5.57;-125.58;-251.99;-417.00;0.87;151.93;-19.41;1.49 
4.062;-0.36;-0.11;0.77;0.83;0.07;5.15;-126.57;-252.94;-419.00;0.86;152.07;-19.51;1.47 
4.092;-0.35;-0.10;0.79;1.25;-0.35;4.94;-125.58;-251.99;-415.00;0.87;152.23;-19.59;1.48 
4.122;-0.36;-0.10;0.80;1.32;-0.70;5.63;-126.57;-253.90;-413.00;0.88;152.38;-19.67;1.47 
4.153;-0.38;-0.10;0.79;0.90;-0.35;5.08;-123.58;-249.11;-416.00;0.88;152.54;-19.73;1.47 
4.183;-0.37;-0.11;0.79;0.63;0.49;4.38;-122.59;-248.15;-414.00;0.88;152.71;-19.84;1.43 
4.213;-0.38;-0.07;0.80;0.56;-0.14;5.36;-123.58;-250.07;-417.00;0.89;152.86;-19.94;1.41 
4.243;-0.39;-0.10;0.81;0.07;-0.21;5.50;-124.58;-249.11;-417.00;0.90;152.99;-20.03;1.39 
4.272;-0.38;-0.06;0.77;0.00;2.50;6.33;-121.59;-246.24;-414.00;0.86;153.12;-20.17;1.35 
4.302;-0.32;-0.06;0.84;-0.83;4.94;8.49;-123.58;-246.24;-416.00;0.90;153.17;-20.40;1.33 
4.332;-0.38;-0.10;0.78;-1.60;5.57;9.81;-123.58;-245.28;-413.00;0.87;153.17;-20.65;1.32 
4.362;-0.37;-0.07;0.78;-3.20;5.77;11.90;-125.58;-238.57;-415.00;0.87;153.10;-20.95;1.28 
4.392;-0.37;-0.06;0.77;-4.03;5.50;18.02;-122.59;-238.57;-414.00;0.86;152.92;-21.23;1.28 
4.422;-0.41;0.00;0.76;-2.71;9.39;22.68;-128.57;-233.78;-411.00;0.86;152.55;-21.55;1.38 
4.453;-0.38;-0.02;0.78;-4.45;14.12;28.38;-124.58;-228.03;-412.00;0.87;151.99;-21.95;1.58 
4.483;-0.38;-0.05;0.84;-4.17;16.70;33.81;-123.58;-216.54;-411.00;0.92;151.25;-22.41;1.84 
4.513;-0.35;-0.02;0.79;-3.90;17.95;37.15;-119.60;-212.70;-409.00;0.86;150.35;-22.95;2.10 
4.543;-0.34;-0.02;0.82;-5.43;18.37;36.17;-117.60;-204.08;-405.00;0.89;149.43;-23.49;2.35 
4.573;-0.34;-0.06;0.83;-6.40;17.11;31.79;-117.60;-193.54;-403.00;0.90;148.56;-24.00;2.53 
4.603;-0.38;-0.06;0.90;-5.22;13.15;27.06;-114.61;-187.79;-405.00;0.98;147.85;-24.41;2.67 
4.633;-0.40;-0.07;0.85;-4.24;8.35;20.73;-112.62;-183.00;-403.00;0.94;147.34;-24.70;2.75 
4.664;-0.38;-0.06;0.82;-2.37;10.37;15.17;-112.62;-177.25;-399.00;0.91;147.05;-24.96;2.84 
4.694;-0.41;-0.06;0.84;-1.39;8.00;10.16;-110.63;-174.38;-399.00;0.94;146.92;-25.22;2.88 
4.724;-0.44;0.00;0.84;-1.81;1.53;5.98;-109.63;-168.63;-401.00;0.95;146.95;-25.39;2.90 
4.755;-0.45;0.00;0.74;-1.39;0.28;1.32;-111.62;-170.55;-400.00;0.87;147.14;-25.44;2.93 
4.784;-0.47;-0.02;0.80;-2.57;1.53;-4.80;-112.62;-173.42;-398.00;0.93;147.51;-25.51;2.88 
4.814;-0.46;-0.06;0.79;-3.13;0.42;-10.57;-114.61;-172.46;-398.00;0.92;148.01;-25.66;2.66 
4.844;-0.46;-0.10;0.74;0.77;-5.08;-11.48;-111.62;-173.42;-398.00;0.88;148.65;-25.70;2.38 
4.874;-0.37;-0.11;0.60;2.71;2.23;-13.29;-115.61;-174.38;-395.00;0.71;149.40;-25.74;2.13 
4.904;-0.38;-0.03;0.62;3.20;16.77;-15.10;-111.62;-178.21;-397.00;0.73;150.12;-26.10;1.91 
4.934;-0.50;0.10;0.74;2.02;16.97;-9.32;-117.60;-171.50;-398.00;0.90;150.72;-26.78;1.78 
4.965;-0.56;0.05;0.77;-4.17;15.03;-2.64;-119.60;-166.71;-398.00;0.95;151.06;-27.44;1.77 
4.995;-0.50;-0.17;0.74;-10.09;11.27;-7.65;-121.59;-166.71;-392.00;0.91;151.31;-28.02;1.39 
5.025;-0.47;-0.22;0.75;-4.10;8.83;-14.82;-123.58;-161.92;-391.00;0.91;151.78;-28.45;0.80 
5.054;-0.44;-0.05;0.75;-2.64;12.31;-15.65;-126.57;-164.80;-393.00;0.87;152.43;-28.84;0.33 
5.083;-0.50;0.02;0.80;-7.44;13.70;-11.97;-126.57;-162.88;-387.00;0.94;153.00;-29.28;-0.06 
5.113;-0.54;0.08;0.79;-8.90;12.59;-6.12;-132.55;-159.05;-384.00;0.96;153.37;-29.73;-0.41 
5.143;-0.54;-0.09;0.74;-6.54;15.79;-1.18;-132.55;-159.05;-383.00;0.92;153.53;-30.26;-0.70 
5.173;-0.50;-0.15;0.77;-4.17;20.17;-6.40;-137.54;-150.43;-380.00;0.93;153.70;-30.92;-1.09 
5.203;-0.50;-0.08;0.80;-2.99;15.58;-8.63;-135.54;-151.38;-375.00;0.95;154.05;-31.49;-1.48 
5.233;-0.53;-0.02;0.80;-3.06;9.04;-2.78;-139.53;-145.63;-375.00;0.96;154.38;-31.89;-1.72 
5.264;-0.54;-0.05;0.79;-3.27;4.80;-1.18;-137.54;-144.68;-375.00;0.96;154.60;-32.17;-1.92 
5.294;-0.53;-0.12;0.74;-2.64;3.48;-4.03;-139.53;-145.63;-374.00;0.92;154.85;-32.34;-2.10 
5.324;-0.50;-0.10;0.77;-1.18;2.16;-5.22;-136.54;-146.59;-374.00;0.92;155.21;-32.47;-2.37 
5.354;-0.49;-0.05;0.74;-0.56;-0.07;-3.76;-141.52;-144.68;-370.00;0.89;155.59;-32.55;-2.59 
5.384;-0.50;-0.08;0.71;-1.67;-2.09;-1.25;-140.53;-146.59;-370.00;0.87;155.93;-32.59;-2.74 
5.414;-0.50;-0.08;0.67;-1.88;-2.02;-1.53;-141.52;-145.63;-370.00;0.84;156.20;-32.58;-2.90 
5.444;-0.50;-0.07;0.69;-1.74;-1.67;-0.21;-143.52;-144.68;-372.00;0.85;156.46;-32.60;-3.02 
5.475;-0.51;-0.09;0.66;-2.99;-2.85;0.07;-142.52;-145.63;-369.00;0.84;156.69;-32.61;-3.15 
5.505;-0.49;-0.14;0.67;-4.94;-4.38;-2.92;-143.52;-144.68;-371.00;0.84;156.95;-32.56;-3.42 
5.535;-0.50;-0.16;0.70;-5.70;-4.17;-8.28;-146.51;-147.55;-371.00;0.87;157.28;-32.50;-3.83 
5.566;-0.51;-0.13;0.72;-5.84;-0.35;-11.20;-149.50;-149.47;-368.00;0.89;157.75;-32.46;-4.30 
5.596;-0.51;-0.15;0.70;-6.19;4.10;-15.30;-151.49;-147.55;-369.00;0.88;158.26;-32.57;-4.82 
5.626;-0.51;-0.17;0.69;-4.03;8.42;-20.38;-151.49;-150.43;-368.00;0.87;158.90;-32.76;-5.43 
5.656;-0.54;-0.15;0.67;-0.35;12.45;-24.14;-151.49;-150.43;-364.00;0.87;159.65;-33.06;-6.04 
5.687;-0.53;-0.13;0.70;0.07;14.54;-25.39;-158.47;-147.55;-360.00;0.89;160.52;-33.46;-6.59 
5.717;-0.52;-0.12;0.70;-0.21;14.05;-28.52;-161.46;-147.55;-362.00;0.88;161.46;-33.80;-7.21 
5.747;-0.57;-0.13;0.73;1.53;13.43;-29.57;-164.45;-150.43;-360.00;0.94;162.44;-34.12;-7.84 
5.778;-0.54;-0.17;0.77;2.92;13.43;-29.91;-165.44;-145.63;-355.00;0.96;163.49;-34.42;-8.46 
5.808;-0.55;-0.17;0.76;1.67;9.18;-32.90;-170.43;-150.43;-354.00;0.95;164.60;-34.62;-9.15 
5.837;-0.53;-0.16;0.72;1.25;8.28;-34.64;-174.41;-151.38;-349.00;0.91;165.69;-34.68;-9.84 
5.866;-0.58;-0.17;0.73;-0.70;8.00;-34.92;-179.40;-155.22;-350.00;0.95;166.82;-34.71;-10.61 
5.896;-0.62;-0.20;0.74;-0.07;5.77;-34.71;-179.40;-156.17;-351.00;0.99;167.93;-34.71;-11.37 
5.926;-0.54;-0.20;0.66;-1.53;5.57;-34.99;-185.38;-162.88;-348.00;0.88;169.03;-34.64;-12.16 
5.956;-0.55;-0.25;0.73;-3.27;4.94;-35.55;-187.37;-164.80;-343.00;0.95;170.09;-34.55;-13.03 
5.987;-0.54;-0.23;0.75;-1.39;3.62;-35.76;-193.35;-168.63;-342.00;0.95;171.19;-34.38;-13.95 
6.017;-0.53;-0.22;0.70;0.90;1.88;-36.94;-198.33;-172.46;-341.00;0.91;172.36;-34.13;-14.79 
6.047;-0.52;-0.21;0.66;1.25;0.07;-36.31;-201.32;-179.17;-335.00;0.87;173.50;-33.82;-15.56 
6.078;-0.46;-0.24;0.69;2.71;-3.62;-37.36;-204.31;-183.96;-334.00;0.86;174.69;-33.41;-16.34 
6.108;-0.43;-0.26;0.62;3.76;-6.96;-41.04;-205.31;-187.79;-337.00;0.80;175.99;-32.82;-17.18 
6.138;-0.42;-0.27;0.63;0.14;-9.04;-45.22;-208.30;-197.37;-337.00;0.80;177.35;-32.07;-18.07 
6.168;-0.46;-0.30;0.60;-2.71;-8.07;-49.32;-215.28;-206.00;-337.00;0.81;178.72;-31.30;-19.11 
6.199;-0.51;-0.32;0.58;0.49;-13.01;-51.69;-216.27;-215.58;-332.00;0.84;-179.76;-30.42;-20.24 
6.229;-0.51;-0.38;0.62;4.87;-2.85;-47.03;-222.25;-223.24;-335.00;0.89;-178.24;-29.53;-21.29 
6.259;-0.58;-0.43;0.83;9.95;8.49;-36.80;-220.26;-233.78;-333.00;1.10;-176.84;-29.03;-22.06 
6.289;-0.67;-0.43;1.10;10.71;16.77;-22.40;-220.26;-233.78;-333.00;1.36;-175.75;-28.93;-22.47 
6.319;-0.63;-0.45;1.32;7.10;-4.73;-12.66;-220.26;-235.70;-331.00;1.53;-175.08;-28.92;-22.60 
6.349;-0.49;-0.44;0.74;3.27;-40.00;-24.35;-218.27;-245.28;-334.00;0.99;-174.68;-27.86;-22.93 
6.379;-0.26;-0.26;0.51;8.56;0.00;-24.97;-216.27;-251.03;-334.00;0.63;-173.79;-26.77;-23.46 
6.409;-0.30;-0.34;0.76;5.57;-1.39;-19.62;-215.28;-260.61;-334.00;0.88;-173.02;-26.44;-23.84 
6.439;-0.29;-0.30;0.62;5.43;-20.66;-11.34;-213.28;-270.19;-336.00;0.75;-172.46;-25.69;-24.16 
6.469;-0.30;-0.26;0.59;3.48;-2.23;1.67;-216.27;-271.15;-335.00;0.71;-172.26;-25.14;-24.33 
6.500;-0.40;-0.23;0.64;1.25;6.33;14.61;-213.28;-269.23;-338.00;0.79;-172.51;-25.31;-24.29 
6.530;-0.31;-0.22;0.67;5.50;-1.18;25.39;-214.28;-266.36;-336.00;0.77;-173.08;-25.61;-24.05 
6.560;-0.37;-0.24;0.58;4.80;-3.34;33.81;-207.30;-264.44;-337.00;0.73;-173.86;-25.81;-23.63 
6.590;-0.36;-0.30;0.62;8.28;6.40;39.58;-206.31;-258.69;-340.00;0.78;-174.87;-26.30;-23.17 
6.620;-0.42;-0.26;0.72;14.54;9.25;49.74;-201.32;-251.03;-337.00;0.87;-176.05;-27.09;-22.37 
6.650;-0.46;-0.24;0.72;19.13;-5.43;58.57;-191.36;-240.49;-340.00;0.89;-177.33;-27.79;-21.24 
6.680;-0.45;-0.14;0.63;16.00;-14.75;65.67;-184.38;-237.61;-345.00;0.79;-178.85;-28.27;-19.96 
6.711;-0.40;-0.08;0.62;14.82;-17.60;81.74;-174.41;-230.91;-347.00;0.74;179.20;-28.67;-18.49 
6.741;-0.54;-0.02;0.69;16.90;-25.74;96.42;-164.45;-222.28;-347.00;0.88;176.83;-29.09;-16.66 
6.770;-0.43;0.00;0.68;20.73;-37.43;108.59;-152.49;-213.66;-354.00;0.80;174.30;-29.28;-14.65 
6.801;-0.42;-0.16;0.54;20.10;-43.69;115.83;-137.54;-211.75;-356.00;0.70;171.48;-29.12;-12.42 
6.831;-0.46;-0.27;0.41;19.97;-38.82;105.60;-123.58;-205.04;-362.00;0.67;168.55;-28.84;-10.33 
6.861;-0.50;-0.25;0.44;15.30;-24.35;83.20;-119.60;-203.12;-366.00;0.71;166.16;-28.68;-8.74 
6.891;-0.50;-0.21;0.47;15.65;-21.36;55.23;-98.67;-201.21;-367.00;0.72;164.55;-28.61;-7.60 
6.921;-0.46;-0.03;0.54;22.54;-29.15;46.54;-96.68;-201.21;-369.00;0.71;163.56;-28.34;-6.48 
6.951;-0.40;0.08;0.56;24.21;-48.28;55.72;-83.72;-205.04;-371.00;0.69;162.79;-27.63;-5.06 
6.980;-0.50;0.06;0.72;2.85;-45.43;58.64;-74.75;-209.83;-376.00;0.88;161.74;-26.44;-3.72 
7.010;-0.54;-0.14;1.70;-23.30;-4.38;31.10;-70.76;-215.58;-371.00;1.79;160.67;-25.78;-3.22 
7.039;-0.63;-0.11;2.25;-13.22;-46.61;8.14;-73.75;-221.33;-372.00;2.34;160.35;-25.38;-3.15 
7.069;-0.45;-0.06;1.37;-10.37;-153.74;1.32;-78.74;-240.49;-372.00;1.44;160.82;-21.96;-3.55 
7.100;0.09;0.22;1.30;-24.14;-36.73;-11.48;-84.72;-264.44;-378.00;1.32;161.58;-18.76;-4.06 
7.130;-0.22;0.07;1.38;-18.78;-47.10;5.29;-89.70;-270.19;-377.00;1.40;161.80;-17.58;-4.70 
7.160;0.18;0.15;0.54;2.64;-56.70;7.51;-93.69;-289.35;-377.00;0.59;162.08;-15.60;-4.75 
7.190;0.14;0.04;0.18;22.54;15.58;5.91;-94.68;-292.23;-378.00;0.23;162.36;-14.31;-3.96 
7.220;-0.12;0.03;0.71;14.33;85.08;-5.77;-85.71;-286.48;-377.00;0.72;162.61;-15.37;-3.17 
7.250;-0.51;0.19;1.52;-10.85;50.92;-29.22;-85.71;-279.77;-378.00;1.61;163.44;-17.98;-3.22 
7.280;-0.19;0.10;0.97;-15.86;-36.17;3.83;-88.70;-272.11;-379.00;0.99;163.88;-18.05;-3.58 
7.311;0.10;0.06;0.45;-13.84;-7.37;9.46;-89.70;-272.11;-374.00;0.46;163.96;-16.98;-3.81 
7.341;0.00;0.06;0.58;-23.79;51.06;17.18;-99.66;-272.11;-370.00;0.58;163.68;-17.41;-3.99 
7.371;-0.17;-0.06;0.98;-29.01;50.37;19.55;-101.66;-269.23;-367.00;1.00;163.02;-19.03;-4.56 
7.400;-0.26;-0.03;1.05;-22.54;25.95;10.85;-106.64;-249.11;-363.00;1.08;162.51;-20.15;-5.12 
7.430;-0.26;-0.04;1.01;-23.72;5.50;7.58;-111.62;-246.24;-356.00;1.04;162.23;-20.65;-5.67 
7.459;-0.26;0.00;0.86;-22.47;3.55;9.46;-116.61;-243.36;-355.00;0.90;162.05;-20.65;-6.22 
7.488;-0.23;0.03;0.73;-27.20;4.38;10.09;-121.59;-243.36;-350.00;0.77;161.80;-20.60;-6.83 
7.518;-0.23;0.06;0.79;-29.63;21.77;15.79;-120.59;-243.36;-350.00;0.82;161.37;-20.96;-7.34 
7.548;-0.32;0.06;0.97;-27.76;13.63;25.88;-131.56;-231.87;-342.00;1.02;160.68;-21.59;-7.79 
7.578;-0.34;0.01;0.97;-24.07;-3.90;30.05;-139.53;-232.82;-339.00;1.03;159.87;-21.82;-8.07 
7.609;-0.34;0.08;0.86;-25.11;-10.78;32.63;-139.53;-229.95;-336.00;0.93;158.97;-21.70;-8.26 
7.639;-0.32;0.13;0.78;-28.45;-7.72;39.23;-145.51;-227.08;-334.00;0.85;157.88;-21.56;-8.38 
7.669;-0.36;0.09;0.72;-28.03;-1.04;46.68;-143.52;-223.24;-330.00;0.81;156.62;-21.63;-8.46 
7.699;-0.37;0.10;0.79;-26.23;6.47;47.72;-147.50;-218.45;-324.00;0.88;155.23;-21.95;-8.44 
7.729;-0.47;0.10;0.81;-26.09;3.41;49.95;-148.50;-213.66;-320.00;0.94;153.70;-22.44;-8.36 
7.759;-0.45;0.07;0.70;-29.43;-4.10;52.38;-150.49;-209.83;-322.00;0.84;152.20;-22.77;-8.31 
7.789;-0.40;-0.12;0.66;-30.82;1.25;43.90;-154.48;-201.21;-316.00;0.78;150.73;-23.04;-8.42 
7.820;-0.42;-0.54;0.94;-19.69;20.17;25.04;-158.47;-194.50;-307.00;1.16;149.69;-23.48;-8.94 
7.849;-0.44;-0.66;1.57;45.98;21.57;36.38;-158.47;-187.79;-307.00;1.76;149.59;-24.20;-8.92 
7.878;-0.20;-0.28;0.74;58.37;-59.90;23.72;-147.50;-185.88;-315.00;0.82;149.38;-23.44;-7.14 
7.909;0.09;-0.38;0.26;9.81;3.48;2.09;-136.54;-191.62;-323.00;0.47;149.91;-22.25;-6.19 
7.938;-0.17;-0.38;0.92;-7.65;74.78;-24.49;-137.54;-183.96;-318.00;1.01;150.36;-23.28;-6.89 
7.967;-0.48;-0.10;1.35;6.89;28.59;-14.19;-138.53;-180.13;-319.00;1.44;151.13;-24.78;-7.29 
7.997;-0.37;-0.13;1.09;-6.89;-37.98;8.14;-139.53;-179.17;-316.00;1.16;151.53;-24.56;-7.23 
8.026;-0.08;-0.26;0.68;-19.27;-40.35;17.18;-142.52;-185.88;-319.00;0.73;151.58;-23.10;-7.53 
8.056;-0.10;-0.32;0.55;-21.36;-10.85;20.66;-141.52;-188.75;-319.00;0.64;151.37;-22.14;-8.09 
8.086;-0.17;-0.32;0.66;-16.97;14.61;16.70;-151.49;-183.96;-317.00;0.75;151.02;-22.08;-8.69 
8.116;-0.21;-0.30;0.79;-14.89;28.94;10.16;-147.50;-183.96;-312.00;0.87;150.76;-22.65;-9.19 
8.146;-0.36;-0.30;0.82;-9.53;19.55;3.20;-150.49;-172.46;-306.00;0.94;150.66;-23.35;-9.61 
8.176;-0.34;-0.23;0.84;-2.02;4.31;-3.90;-151.49;-172.46;-306.00;0.93;150.89;-23.66;-9.92 
8.207;-0.35;-0.16;0.75;4.80;0.90;-1.32;-151.49;-172.46;-305.00;0.84;151.29;-23.64;-10.00 
8.237;-0.37;-0.12;0.79;8.97;4.59;4.31;-152.49;-170.55;-307.00;0.88;151.59;-23.72;-9.77 
8.266;-0.39;-0.15;0.86;7.30;3.48;6.40;-149.50;-171.50;-307.00;0.96;151.76;-23.82;-9.43 
8.295;-0.40;-0.18;0.83;-0.70;0.97;2.23;-149.50;-168.63;-311.00;0.94;151.92;-23.87;-9.29 
8.325;-0.32;-0.18;0.83;-4.94;0.21;-1.39;-148.50;-170.55;-307.00;0.91;152.18;-23.87;-9.42 
8.355;-0.31;-0.11;0.81;-7.30;-0.56;2.99;-148.50;-169.59;-305.00;0.87;152.43;-23.77;-9.59 
8.385;-0.28;-0.13;0.77;-7.86;1.04;7.86;-150.49;-169.59;-309.00;0.83;152.51;-23.72;-9.74 
8.415;-0.27;-0.22;0.75;-6.54;5.22;9.95;-148.50;-167.67;-304.00;0.83;152.47;-23.75;-9.87 
8.445;-0.28;-0.28;0.80;-3.06;10.16;4.59;-154.48;-163.84;-305.00;0.89;152.49;-23.88;-10.04 
8.475;-0.36;-0.26;0.80;0.00;14.68;-1.11;-151.49;-160.96;-301.00;0.91;152.67;-24.17;-10.20 
8.506;-0.37;-0.29;0.84;0.21;14.82;-5.84;-151.49;-160.96;-301.00;0.96;152.99;-24.53;-10.35 
8.536;-0.36;-0.31;0.83;0.42;13.91;-14.96;-152.49;-160.96;-301.00;0.96;153.51;-24.86;-10.61 
8.566;-0.35;-0.18;0.78;6.05;8.77;-22.33;-154.48;-160.01;-298.00;0.87;154.33;-25.01;-10.89 
8.596;-0.34;-0.17;0.77;8.63;11.20;-20.31;-155.48;-161.92;-299.00;0.86;155.25;-25.08;-11.01 
8.626;-0.36;-0.26;0.78;8.42;15.23;-27.06;-151.49;-163.84;-298.00;0.90;156.27;-25.26;-11.19 
8.656;-0.33;-0.21;0.86;7.30;14.05;-33.18;-155.48;-162.88;-297.00;0.94;157.44;-25.44;-11.49 
8.685;-0.35;-0.13;0.83;6.40;9.67;-30.89;-158.47;-166.71;-300.00;0.91;158.63;-25.50;-11.76 
8.714;-0.38;-0.14;0.83;6.05;7.65;-27.13;-159.46;-170.55;-299.00;0.92;159.76;-25.50;-11.98 
8.744;-0.41;-0.09;0.85;5.77;4.17;-22.40;-158.47;-170.55;-300.00;0.95;160.72;-25.50;-12.14 
8.774;-0.42;-0.03;0.82;4.03;-2.78;-15.93;-163.45;-170.55;-297.00;0.92;161.55;-25.41;-12.27 
8.805;-0.42;-0.04;0.77;0.07;-8.00;-5.22;-161.46;-175.34;-299.00;0.88;162.09;-25.16;-12.32 
8.834;-0.35;0.00;0.81;1.18;-9.39;6.61;-162.45;-178.21;-301.00;0.88;162.35;-24.80;-12.27 
8.863;-0.41;-0.06;0.86;6.82;-0.56;18.37;-159.46;-175.34;-301.00;0.95;162.25;-24.72;-12.00 
