Time(s) acc_x(g) acc_y(g) acc_z(g) gyr_x(°/s) gyr_y(°/s) gyr_z(°/s) mag_x(G) mag_y(G) mag_z(G) SVM(g) yaw(°) pitch(°) roll(°)
0.000;0.01;0.21;0.86;0.28;7.03;0.97;415.25;-126.24;-380.00;0.89;-103.01;5.15;13.62 
0.031;0.00;0.22;0.87;0.21;2.23;1.32;412.26;-123.37;-382.00;0.90;-103.15;5.00;13.71 
0.061;0.01;0.22;0.88;-0.21;0.63;0.90;415.25;-122.42;-381.00;0.91;-103.28;5.04;13.80 
0.091;0.02;0.22;0.92;-0.28;2.78;1.32;412.26;-122.42;-381.00;0.95;-103.38;5.07;13.88 
0.122;0.00;0.22;0.86;0.70;6.19;-0.07;413.26;-122.42;-379.00;0.89;-103.50;4.93;13.96 
0.152;0.02;0.21;0.90;0.14;5.70;0.70;413.26;-120.50;-379.00;0.92;-103.62;4.77;14.03 
0.181;0.00;0.20;0.88;0.07;7.65;0.21;414.26;-122.42;-379.00;0.90;-103.75;4.66;14.11 
0.211;-0.02;0.22;0.89;0.63;8.77;-0.28;412.26;-120.50;-382.00;0.92;-103.86;4.43;14.19 
0.241;-0.01;0.20;0.88;0.28;8.63;0.97;413.26;-114.77;-381.00;0.90;-104.00;4.22;14.29 
0.271;-0.04;0.20;0.91;-0.35;9.25;2.02;412.26;-116.68;-378.00;0.93;-104.18;4.05;14.38 
0.301;-0.02;0.22;0.88;-0.63;10.23;1.32;413.26;-116.68;-374.00;0.91;-104.36;3.78;14.42 
0.332;-0.02;0.22;0.88;-0.77;10.92;2.16;410.27;-115.72;-378.00;0.91;-104.57;3.45;14.46 
0.362;0.00;0.22;0.89;-0.90;10.23;1.60;415.25;-111.90;-377.00;0.92;-104.77;3.21;14.51 
0.391;-0.02;0.22;0.89;-1.18;10.16;1.81;411.27;-111.90;-379.00;0.92;-104.96;2.99;14.57 
0.422;-0.02;0.21;0.82;-0.83;10.30;1.67;414.26;-109.03;-376.00;0.85;-105.15;2.77;14.62 
0.452;0.00;0.22;0.83;0.00;4.52;1.60;413.26;-107.11;-378.00;0.86;-105.31;2.61;14.69 
0.482;0.02;0.20;0.87;0.49;1.11;1.95;415.25;-109.98;-376.00;0.89;-105.44;2.60;14.78 
0.512;0.02;0.24;0.87;-0.35;3.34;2.16;415.25;-112.85;-373.00;0.90;-105.56;2.62;14.86 
0.543;0.02;0.18;0.90;-0.83;9.46;4.52;413.26;-105.20;-374.00;0.92;-105.77;2.52;14.88 
0.573;-0.04;0.23;0.89;-0.56;10.99;5.70;416.25;-109.03;-370.00;0.92;-106.06;2.31;14.94 
0.603;-0.02;0.26;0.90;-1.39;10.02;3.55;415.25;-108.07;-371.00;0.94;-106.34;2.08;14.99 
0.634;-0.03;0.26;0.84;-0.56;11.13;-1.53;414.26;-103.29;-376.00;0.88;-106.51;1.79;15.06 
0.664;-0.08;0.21;0.91;0.35;12.52;-2.37;415.25;-101.38;-375.00;0.94;-106.59;1.40;15.14 
0.694;-0.05;0.21;0.85;0.35;8.97;-1.04;416.25;-102.33;-374.00;0.88;-106.67;1.04;15.20 
0.724;-0.02;0.23;0.91;-0.28;4.73;0.49;413.26;-102.33;-372.00;0.94;-106.77;0.86;15.26 
0.754;0.00;0.22;0.90;-1.67;9.18;-0.28;414.26;-98.51;-371.00;0.93;-106.90;0.73;15.33 
0.784;-0.05;0.17;0.93;-1.18;15.72;-0.97;417.24;-96.59;-370.00;0.95;-107.04;0.39;15.35 
0.814;-0.07;0.22;0.89;-1.88;21.77;-2.78;414.26;-91.81;-373.00;0.92;-107.18;-0.16;15.35 
0.845;-0.10;0.22;0.82;-1.53;19.90;-5.29;415.25;-87.03;-367.00;0.85;-107.27;-0.87;15.38 
0.875;-0.10;0.22;0.86;0.90;13.50;-8.28;415.25;-85.12;-369.00;0.89;-107.25;-1.43;15.46 
0.905;-0.06;0.23;0.87;0.21;13.43;-13.01;412.26;-81.29;-371.00;0.90;-107.10;-1.88;15.54 
0.934;-0.06;0.18;0.84;1.11;18.43;-14.47;409.28;-77.47;-367.00;0.86;-106.85;-2.40;15.62 
0.963;-0.02;0.11;0.80;0.07;21.63;-9.60;411.27;-72.68;-366.00;0.81;-106.70;-3.05;15.63 
0.992;-0.06;0.06;0.78;-1.46;9.95;-0.70;411.27;-67.90;-362.00;0.78;-106.68;-3.52;15.54 
1.021;-0.03;0.18;0.89;-1.18;-0.21;6.82;415.25;-68.86;-362.00;0.91;-106.84;-3.55;15.50 
1.051;-0.04;0.33;0.99;-2.16;10.78;5.43;409.28;-69.82;-363.00;1.04;-107.15;-3.46;15.55 
1.081;-0.04;0.27;0.91;-3.76;33.04;-3.34;414.26;-66.95;-364.00;0.95;-107.39;-4.02;15.57 
1.111;-0.09;0.18;0.85;-3.83;30.40;-3.27;411.27;-61.21;-356.00;0.87;-107.55;-4.94;15.48 
1.142;-0.12;0.21;0.86;-4.66;25.67;0.97;408.28;-56.43;-357.00;0.89;-107.74;-5.72;15.38 
1.172;-0.09;0.25;0.86;-7.03;28.10;-4.03;412.26;-50.69;-356.00;0.90;-107.93;-6.45;15.30 
1.202;-0.13;0.22;0.86;-9.88;34.50;-8.90;407.28;-46.86;-353.00;0.90;-107.98;-7.32;15.12 
1.232;-0.12;0.22;0.80;-7.17;41.32;-12.73;404.30;-38.26;-351.00;0.84;-107.94;-8.41;14.93 
1.262;-0.14;0.18;0.78;-6.47;44.52;-14.19;402.31;-31.56;-351.00;0.81;-107.85;-9.75;14.73 
1.292;-0.17;0.20;0.85;-6.12;41.53;-13.57;402.31;-25.82;-343.00;0.89;-107.72;-11.03;14.56 
1.322;-0.12;0.23;0.88;-8.70;45.29;-14.75;402.31;-13.39;-343.00;0.92;-107.60;-12.26;14.37 
1.351;-0.10;0.21;0.83;-9.25;58.50;-14.82;397.33;-4.78;-339.00;0.86;-107.48;-13.70;14.10 
1.381;-0.09;0.18;0.79;-8.90;64.77;-15.23;393.34;8.61;-333.00;0.82;-107.38;-15.33;13.83 
1.411;-0.09;0.21;0.78;-9.39;66.23;-14.19;389.36;18.17;-325.00;0.81;-107.29;-17.12;13.56 
1.442;-0.04;0.25;0.74;-12.10;70.05;-15.65;390.36;26.78;-320.00;0.78;-107.19;-19.01;13.25 
1.472;0.02;0.31;0.71;-11.90;70.40;-19.20;385.38;37.30;-315.00;0.77;-107.05;-20.93;12.94 
1.502;0.00;0.30;0.70;-13.91;70.54;-28.17;378.41;53.56;-304.00;0.76;-106.74;-22.76;12.60 
1.532;-0.02;0.26;0.74;-16.56;82.78;-34.71;372.43;65.99;-295.00;0.78;-106.17;-24.75;12.04 
1.562;-0.02;0.22;0.62;-17.88;90.50;-40.49;370.44;78.42;-282.00;0.66;-105.41;-27.22;11.33 
1.592;0.01;0.18;0.59;-20.94;90.71;-45.29;365.46;85.12;-280.00;0.62;-104.39;-29.99;10.37 
1.622;-0.04;0.16;0.54;-26.99;100.24;-50.09;348.53;113.81;-255.00;0.56;-103.28;-32.53;9.25 
1.653;-0.14;0.21;0.46;-28.45;115.06;-57.81;338.57;122.42;-240.00;0.52;-101.90;-35.76;7.88 
1.683;-0.14;0.15;0.36;-29.08;128.97;-66.99;326.62;138.67;-220.00;0.41;-100.18;-39.41;6.32 
1.713;-0.14;0.22;0.23;-31.58;135.10;-70.82;315.67;153.98;-199.00;0.35;-98.44;-43.31;4.81 
1.744;-0.10;0.10;0.14;-39.93;131.48;-82.57;292.77;171.19;-167.00;0.20;-96.39;-47.52;3.03 
1.774;-0.06;0.01;0.16;-46.75;129.88;-76.24;274.84;181.71;-146.00;0.17;-93.90;-51.46;0.58 
1.804;0.06;-0.10;0.25;-51.34;125.50;-57.74;263.89;193.19;-123.00;0.28;-91.56;-54.53;-1.90 
1.834;-0.13;-0.57;0.58;-48.70;159.37;-29.70;249.95;197.01;-97.00;0.82;-89.39;-57.68;-4.35 
1.865;-5.00;-4.54;-0.94;-77.29;398.68;138.23;242.98;202.75;-39.00;6.82;-86.51;-64.44;-6.55 
1.895;-0.77;-0.26;-2.09;-136.70;263.58;217.11;283.80;188.41;28.00;2.24;-88.42;-78.21;-3.47 
1.925;0.07;0.90;-1.42;-39.79;44.17;55.37;319.65;166.41;49.00;1.68;-91.58;-84.52;0.31 
1.956;-0.98;1.33;-1.69;-29.91;-14.68;98.23;332.60;161.63;52.00;2.36;-94.36;-84.37;3.16 
1.986;-2.82;0.61;-0.13;27.27;-76.80;-149.29;336.58;172.15;27.00;2.89;-93.94;-80.93;1.63 
2.016;-1.27;-0.51;-0.34;33.88;197.63;-121.74;316.67;177.89;47.00;1.41;-89.42;-83.84;-2.01 
2.046;-1.41;-1.36;-1.17;14.33;186.43;-113.60;292.77;176.93;85.00;2.28;-83.91;-83.80;-6.15 
2.076;-0.84;-1.68;-1.25;-14.47;110.68;-11.62;265.88;170.23;125.00;2.26;-80.36;-79.43;-8.83 
2.105;-0.62;-0.91;-1.54;-25.18;75.62;62.12;272.85;158.76;140.00;1.89;-79.99;-77.22;-8.63 
2.135;-0.80;-0.11;-1.67;-2.02;-104.56;62.47;286.79;155.89;136.00;1.85;-81.70;-77.45;-6.72 
2.166;-0.72;-0.02;-0.95;23.72;-304.42;57.39;296.75;163.54;108.00;1.19;-84.38;-83.19;-5.11 
2.196;-1.11;0.26;0.08;7.51;-307.20;-1.74;305.71;178.84;56.00;1.14;-87.43;-84.24;-3.43 
2.226;-1.39;-0.48;0.92;24.63;-143.79;-15.17;304.72;187.45;-9.00;1.73;-87.67;-77.39;-4.09 
2.256;-0.95;-0.18;0.57;14.61;1.18;14.54;301.73;189.36;-22.00;1.12;-87.86;-75.15;-4.05 
2.286;-1.02;-0.02;0.18;13.15;2.78;9.74;306.71;189.36;-15.00;1.04;-88.27;-75.53;-3.45 
2.316;-1.06;-0.06;0.18;4.38;-31.51;12.38;306.71;189.36;-17.00;1.08;-88.62;-75.35;-3.01 
2.346;-1.03;-0.09;0.14;-2.09;-22.75;13.01;309.70;185.54;-27.00;1.04;-89.11;-74.61;-2.56 
2.377;-0.79;-0.15;-0.06;5.29;-20.59;-1.32;308.70;186.49;-30.00;0.81;-89.35;-74.12;-2.31 
2.407;-0.77;-0.23;0.00;7.23;-38.47;9.95;309.70;184.58;-31.00;0.80;-89.30;-73.59;-2.32 
2.437;-1.02;-0.15;0.32;15.58;-53.08;25.25;308.70;183.62;-38.00;1.08;-89.86;-72.39;-1.75 
2.468;-0.73;0.02;0.36;15.65;-37.29;24.42;318.66;177.89;-51.00;0.81;-90.74;-70.97;-0.80 
2.498;-0.69;0.19;0.27;6.26;-13.91;13.77;323.64;178.84;-61.00;0.76;-91.64;-70.09;0.18 
2.528;-0.85;0.00;0.18;-0.28;2.64;-0.70;326.62;175.02;-60.00;0.87;-91.98;-69.94;0.60 
2.558;-0.87;-0.14;0.10;1.67;2.50;5.15;324.63;179.80;-56.00;0.89;-91.94;-70.18;0.62 
2.587;-0.83;-0.13;0.01;6.33;-8.83;11.76;327.62;174.06;-58.00;0.84;-92.07;-70.35;0.84 
2.617;-0.83;-0.03;0.06;4.52;-11.97;12.87;330.61;176.93;-59.00;0.83;-92.47;-70.08;1.31 
2.647;-0.88;0.01;0.14;1.04;-8.83;9.11;333.59;174.06;-62.00;0.89;-92.83;-69.81;1.73 
2.678;-0.99;0.00;0.15;-0.21;-7.51;7.30;333.59;173.10;-61.00;1.00;-93.08;-69.73;2.02 
2.707;-0.98;-0.04;0.16;2.78;-5.22;7.10;337.58;172.15;-63.00;0.99;-93.32;-69.67;2.31 
2.737;-0.98;-0.07;0.16;1.81;-1.60;5.08;337.58;172.15;-63.00;1.00;-93.47;-69.70;2.52 
2.768;-0.98;-0.06;0.22;0.42;5.36;5.77;337.58;170.23;-66.00;1.01;-93.54;-69.88;2.64 
2.798;-1.06;0.00;0.18;-0.49;9.81;4.17;337.58;174.06;-62.00;1.08;-93.68;-70.23;2.82 
2.828;-1.02;-0.02;0.13;-0.42;8.28;3.90;339.57;173.10;-65.00;1.03;-93.83;-70.53;3.01 
2.858;-1.02;-0.02;0.09;-0.21;-1.25;0.28;340.57;171.19;-64.00;1.02;-93.92;-70.63;3.15 
2.889;-1.02;-0.02;0.18;-2.71;-2.92;-1.46;340.57;168.32;-61.00;1.04;-93.88;-70.74;3.13 
2.918;-1.04;-0.06;0.14;-3.06;2.50;-1.53;339.57;172.15;-62.00;1.05;-93.83;-70.77;3.10 
2.948;-1.02;-0.07;0.13;-1.46;5.08;0.63;340.57;172.15;-61.00;1.03;-93.79;-71.02;3.08 
2.979;-1.03;0.03;0.06;0.56;-4.03;-3.97;342.56;171.19;-65.00;1.03;-93.70;-71.28;3.03 
3.008;-1.00;-0.06;0.14;-1.53;-8.00;-3.27;339.57;172.15;-63.00;1.01;-93.56;-71.28;2.93 
3.038;-0.98;-0.10;0.18;0.00;3.06;-2.50;340.57;170.23;-69.00;1.00;-93.40;-71.31;2.80 
3.068;-1.00;-0.10;0.12;-0.83;4.03;-2.37;337.58;171.19;-63.00;1.01;-93.25;-71.61;2.70 
3.098;-1.02;-0.06;0.06;0.14;-9.11;-3.55;338.57;173.10;-64.00;1.02;-93.11;-71.78;2.58 
3.128;-0.94;-0.03;0.19;1.46;-10.37;-4.66;334.59;171.19;-65.00;0.96;-92.96;-71.63;2.48 
3.158;-0.95;-0.09;0.23;0.07;1.95;-4.94;335.59;173.10;-67.00;0.98;-92.77;-71.59;2.34 
3.189;-0.95;-0.10;0.16;-0.21;7.30;-3.69;334.59;171.19;-64.00;0.97;-92.55;-71.88;2.15 
3.219;-0.97;-0.12;0.12;-2.71;3.13;1.67;335.59;174.06;-63.00;0.98;-92.43;-72.20;2.05 
3.249;-1.01;-0.03;0.10;-2.78;-1.60;1.46;334.59;173.10;-63.00;1.02;-92.43;-72.37;2.05 
3.280;-1.01;-0.06;0.12;-3.20;-3.90;2.85;335.59;175.02;-68.00;1.02;-92.45;-72.42;2.08 
3.310;-0.98;-0.09;0.14;-1.74;-1.39;2.92;334.59;173.10;-71.00;0.99;-92.50;-72.44;2.11 
3.340;-0.96;0.00;0.17;-2.23;2.09;-1.18;337.58;173.10;-69.00;0.97;-92.50;-72.57;2.13 
3.370;-1.01;0.00;0.16;-2.78;3.20;-3.48;333.59;171.19;-70.00;1.02;-92.47;-72.67;2.10 
3.401;-1.00;-0.10;0.14;-0.83;1.46;-2.85;333.59;175.02;-68.00;1.01;-92.33;-72.90;1.99 
3.431;-1.01;-0.17;0.10;-0.07;0.35;0.35;336.58;170.23;-68.00;1.03;-92.21;-73.12;1.89 
3.461;-1.02;-0.09;0.09;-0.49;-7.17;1.39;336.58;173.10;-67.00;1.03;-92.15;-73.21;1.85 
3.492;-1.02;-0.03;0.19;-1.88;-7.86;1.18;335.59;173.10;-68.00;1.04;-92.15;-73.08;1.86 
3.522;-0.96;-0.04;0.18;-1.32;0.77;-0.56;334.59;171.19;-70.00;0.98;-92.13;-73.05;1.85 
3.552;-0.95;-0.05;0.18;-0.70;5.01;-1.74;334.59;174.06;-69.00;0.97;-92.06;-73.27;1.79 
3.581;-0.98;-0.10;0.04;0.21;1.60;-2.64;334.59;173.10;-67.00;0.99;-91.92;-73.55;1.67 
3.610;-0.94;-0.07;0.09;2.09;-7.30;-1.46;334.59;175.02;-69.00;0.95;-91.82;-73.66;1.60 
3.640;-0.98;-0.06;0.18;2.57;-6.47;-0.83;333.59;172.15;-72.00;1.00;-91.76;-73.55;1.57 
3.670;-0.98;-0.10;0.22;1.25;-0.70;-1.81;332.60;171.19;-72.00;1.01;-91.66;-73.50;1.52 
3.701;-1.02;-0.10;0.24;-0.35;-1.04;-0.83;336.58;175.02;-72.00;1.05;-91.55;-73.56;1.43 
3.731;-0.98;-0.11;0.19;-2.30;1.46;1.88;332.60;173.10;-78.00;1.00;-91.51;-73.62;1.39 
3.761;-1.00;-0.04;0.18;-2.16;4.38;1.60;335.59;173.10;-73.00;1.02;-91.52;-73.78;1.40 
3.792;-1.02;-0.05;0.15;-1.39;0.63;0.63;338.57;174.06;-72.00;1.03;-91.52;-73.94;1.39 
3.822;-1.02;-0.06;0.20;-1.32;-1.39;0.90;335.59;172.15;-70.00;1.04;-91.52;-73.99;1.40 
3.851;-1.02;-0.06;0.18;-1.18;2.57;1.04;333.59;172.15;-76.00;1.04;-91.54;-74.06;1.42 
3.881;-0.98;-0.11;0.19;-1.25;4.73;1.39;333.59;173.10;-72.00;1.00;-91.55;-74.21;1.44 
3.911;-1.00;-0.06;0.16;-1.39;6.96;1.46;333.59;175.97;-73.00;1.01;-91.54;-74.46;1.43 
3.941;-0.99;-0.09;0.13;-1.81;6.26;0.83;333.59;169.28;-69.00;1.00;-91.56;-74.76;1.44 
3.971;-0.99;-0.08;0.10;-1.25;4.10;1.32;336.58;172.15;-69.00;1.00;-91.54;-75.03;1.42 
4.002;-1.00;-0.10;0.10;-0.56;2.64;2.37;334.59;170.23;-65.00;1.01;-91.53;-75.24;1.41 
4.032;-0.99;-0.07;0.13;0.00;-1.67;2.92;333.59;173.10;-69.00;1.00;-91.57;-75.36;1.46 
4.062;-0.98;-0.02;0.18;-0.70;-0.77;2.09;337.58;173.10;-69.00;1.00;-91.62;-75.40;1.52 
4.092;-0.95;0.00;0.18;-1.04;5.57;-0.70;337.58;170.23;-68.00;0.97;-91.64;-75.52;1.54 
4.121;-0.98;-0.04;0.13;-0.21;2.16;-1.39;336.58;171.19;-73.00;0.99;-91.60;-75.75;1.51 
4.151;-0.97;-0.10;0.12;0.56;-5.57;0.97;336.58;174.06;-68.00;0.98;-91.54;-75.82;1.47 
4.181;-0.99;-0.06;0.17;-0.28;-1.60;1.95;336.58;172.15;-70.00;1.01;-91.56;-75.74;1.50 
4.212;-1.02;-0.07;0.13;-0.70;5.91;0.63;335.59;171.19;-69.00;1.03;-91.56;-75.86;1.50 
4.242;-1.04;-0.05;0.07;0.07;0.56;-0.28;338.57;173.10;-67.00;1.04;-91.54;-76.09;1.49 
4.272;-1.01;-0.10;0.12;0.35;-7.03;-0.07;334.59;173.10;-70.00;1.02;-91.50;-76.12;1.46 
4.302;-1.00;-0.08;0.18;0.90;-3.69;-0.28;338.57;169.28;-69.00;1.02;-91.44;-75.98;1.42 
4.332;-0.99;-0.07;0.13;0.49;1.88;0.21;336.58;169.28;-71.00;1.00;-91.38;-76.02;1.37 
4.362;-0.98;-0.04;0.14;0.63;-1.88;0.56;341.56;172.15;-73.00;0.99;-91.37;-76.09;1.37 
4.392;-0.99;-0.06;0.13;0.49;-6.33;0.07;336.58;173.10;-71.00;1.00;-91.37;-76.05;1.39 
4.422;-0.97;-0.10;0.24;0.07;-4.80;1.81;336.58;170.23;-72.00;1.00;-91.33;-75.93;1.35 
4.452;-1.00;-0.03;0.14;0.56;-2.50;1.74;338.57;168.32;-74.00;1.01;-91.32;-75.85;1.35 
4.482;-0.98;-0.02;0.15;-0.63;-2.43;0.49;336.58;169.28;-75.00;0.99;-91.37;-75.77;1.41 
4.513;-0.98;-0.04;0.15;-0.14;-3.62;-0.14;337.58;168.32;-74.00;0.99;-91.36;-75.77;1.39 
4.543;-0.98;-0.08;0.15;0.70;-6.40;0.00;338.57;171.19;-76.00;0.99;-91.30;-75.71;1.35 
4.573;-1.02;-0.10;0.16;0.35;-4.45;1.74;339.57;170.23;-75.00;1.04;-91.26;-75.59;1.32 
4.603;-1.05;-0.06;0.15;1.11;-3.83;-0.07;337.58;171.19;-76.00;1.06;-91.24;-75.52;1.31 
4.633;-1.02;-0.09;0.18;0.42;-6.54;1.11;337.58;172.15;-76.00;1.04;-91.20;-75.43;1.28 
4.663;-1.03;-0.06;0.17;1.04;-8.49;0.56;341.56;168.32;-79.00;1.05;-91.19;-75.28;1.28 
4.692;-0.97;-0.06;0.17;1.32;-8.70;-1.04;338.57;170.23;-80.00;0.99;-91.15;-75.09;1.26 
4.722;-0.95;-0.08;0.20;0.56;-3.34;-0.90;338.57;170.23;-84.00;0.97;-91.09;-74.90;1.21 
4.752;-0.95;-0.05;0.20;0.83;1.18;-1.60;338.57;168.32;-85.00;0.97;-91.02;-74.90;1.15 
4.782;-0.94;-0.07;0.17;0.97;-3.48;-0.83;340.57;172.15;-80.00;0.96;-90.95;-74.92;1.09 
4.813;-0.93;-0.11;0.24;1.32;-8.49;1.11;339.57;171.19;-83.00;0.97;-90.90;-74.74;1.05 
4.843;-0.91;-0.03;0.22;-0.49;-0.77;1.67;339.57;170.23;-84.00;0.94;-90.89;-74.53;1.05 
4.873;-0.94;-0.06;0.20;-1.04;4.66;1.74;335.59;170.23;-83.00;0.96;-90.92;-74.59;1.07 
4.903;-0.94;-0.05;0.20;-0.21;-0.90;1.88;339.57;168.32;-84.00;0.96;-90.94;-74.70;1.08 
4.932;-0.93;-0.04;0.25;-1.11;-1.46;0.49;338.57;169.28;-87.00;0.96;-90.97;-74.67;1.11 
4.962;-0.94;0.00;0.19;-0.70;4.73;-1.74;341.56;169.28;-85.00;0.96;-91.00;-74.68;1.14 
4.992;-1.01;-0.06;0.18;-0.21;5.50;-3.20;341.56;170.23;-82.00;1.03;-90.93;-74.87;1.06 
5.023;-1.00;-0.08;0.15;0.49;-3.83;-0.56;336.58;172.15;-86.00;1.01;-90.85;-74.99;0.98 
5.053;-0.96;-0.07;0.25;0.49;-0.14;0.42;340.57;170.23;-84.00;0.99;-90.79;-74.95;0.92 
5.083;-0.98;-0.09;0.22;-1.81;11.13;0.90;336.58;170.23;-84.00;1.01;-90.75;-75.11;0.88 
5.114;-1.02;-0.09;0.09;-0.21;1.74;1.25;338.57;171.19;-82.00;1.03;-90.76;-75.44;0.86 
5.144;-0.98;-0.06;0.18;0.42;-10.57;0.49;339.57;168.32;-80.00;1.00;-90.76;-75.35;0.87 
5.174;-0.97;-0.08;0.26;-0.21;-1.04;-0.77;341.56;170.23;-85.00;1.01;-90.75;-75.14;0.86 
5.204;-0.97;-0.06;0.24;0.21;8.28;-1.74;338.57;168.32;-84.00;1.00;-90.66;-75.24;0.77 
5.233;-0.97;-0.08;0.13;0.90;2.71;-0.21;337.58;166.41;-80.00;0.98;-90.60;-75.49;0.70 
5.262;-0.94;-0.07;0.18;0.83;-3.55;1.60;338.57;170.23;-87.00;0.96;-90.58;-75.53;0.69 
5.292;-0.94;-0.06;0.22;-0.35;-0.21;1.18;340.57;172.15;-86.00;0.97;-90.58;-75.46;0.69 
5.323;-0.94;-0.04;0.22;-0.90;3.83;0.42;337.58;171.19;-86.00;0.97;-90.61;-75.54;0.71 
5.353;-0.98;-0.07;0.16;-0.77;1.18;1.95;336.58;168.32;-85.00;1.00;-90.62;-75.66;0.71 
5.383;-0.98;-0.02;0.14;0.35;-1.18;0.21;341.56;168.32;-83.00;0.99;-90.64;-75.70;0.73 
5.414;-0.96;-0.03;0.19;-0.77;0.35;0.28;340.57;168.32;-83.00;0.98;-90.64;-75.71;0.72 
5.444;-1.02;-0.03;0.16;-0.35;3.20;-1.39;339.57;169.28;-83.00;1.03;-90.62;-75.79;0.70 
5.474;-1.02;-0.06;0.11;-0.28;-1.04;-1.11;339.57;171.19;-82.00;1.03;-90.57;-75.90;0.65 
5.503;-0.97;-0.08;0.18;-0.14;-0.35;0.49;336.58;171.19;-83.00;0.99;-90.54;-75.87;0.61 
5.533;-0.99;-0.03;0.19;0.28;1.11;-1.88;341.56;167.37;-84.00;1.01;-90.51;-75.92;0.58 
5.563;-0.98;-0.07;0.21;-1.18;-1.74;-0.21;338.57;169.28;-83.00;1.00;-90.45;-75.94;0.52 
5.593;-0.98;-0.08;0.22;0.14;2.02;-0.56;338.57;168.32;-81.00;1.01;-90.41;-75.94;0.46 
5.624;-0.96;-0.10;0.18;-0.35;3.20;-0.77;338.57;170.23;-85.00;0.98;-90.33;-76.05;0.39 
5.654;-0.99;-0.08;0.20;-0.21;0.21;1.46;337.58;170.23;-82.00;1.01;-90.30;-76.14;0.35 
5.684;-0.99;-0.04;0.20;0.28;0.63;-0.63;337.58;169.28;-83.00;1.01;-90.30;-76.15;0.34 
5.714;-0.98;-0.06;0.16;-0.56;0.42;-2.09;337.58;172.15;-83.00;0.99;-90.24;-76.19;0.28 
5.743;-0.98;-0.08;0.16;-0.28;0.14;-1.18;338.57;171.19;-83.00;1.00;-90.17;-76.23;0.21 
5.773;-0.95;-0.02;0.23;-0.14;2.23;-2.09;336.58;168.32;-85.00;0.98;-90.14;-76.28;0.17 
5.803;-0.98;-0.10;0.18;0.28;1.53;-0.83;338.57;168.32;-81.00;1.00;-90.05;-76.34;0.08 
5.834;-0.98;-0.08;0.11;0.07;0.28;1.25;334.59;171.19;-79.00;0.99;-90.06;-76.40;0.09 
5.864;-1.00;-0.02;0.16;-0.63;-0.21;-0.56;336.58;172.15;-82.00;1.01;-90.05;-76.45;0.07 
5.894;-0.97;-0.06;0.22;-1.32;1.32;-0.77;338.57;173.10;-83.00;1.00;-90.01;-76.46;0.02 
5.924;-1.00;-0.03;0.20;-0.14;2.50;-0.56;336.58;169.28;-82.00;1.02;-89.97;-76.50;-0.03 
5.954;-0.95;-0.03;0.15;0.63;-2.64;-1.67;338.57;171.19;-85.00;0.96;-89.95;-76.54;-0.06 
5.984;-0.98;-0.06;0.18;0.00;1.95;-2.99;337.58;170.23;-82.00;1.00;-89.86;-76.51;-0.15 
6.014;-1.01;-0.08;0.10;0.28;0.28;-2.16;335.59;170.23;-82.00;1.02;-89.74;-76.62;-0.27 
6.044;-0.97;-0.10;0.18;0.14;-6.54;-0.28;334.59;171.19;-83.00;0.99;-89.65;-76.59;-0.36 
6.074;-1.00;-0.09;0.22;-0.21;-1.74;-0.28;336.58;171.19;-82.00;1.03;-89.60;-76.41;-0.42 
6.104;-0.98;-0.06;0.23;-2.37;3.62;1.32;335.59;172.15;-86.00;1.01;-89.60;-76.41;-0.43 
6.134;-0.94;-0.06;0.18;-2.02;4.10;0.63;333.59;172.15;-81.00;0.96;-89.64;-76.52;-0.41 
6.163;-0.95;-0.03;0.15;-0.83;2.30;-1.74;336.58;170.23;-83.00;0.96;-89.62;-76.62;-0.44 
6.193;-0.95;-0.08;0.22;0.21;0.21;-1.11;336.58;170.23;-83.00;0.98;-89.54;-76.71;-0.53 
6.224;-0.98;-0.03;0.16;1.88;-3.76;-3.13;331.60;171.19;-82.00;0.99;-89.46;-76.69;-0.61 
6.254;-0.98;-0.10;0.22;-0.42;-3.27;-2.09;337.58;171.19;-81.00;1.01;-89.33;-76.60;-0.73 
6.284;-0.98;-0.12;0.25;-0.42;0.21;-0.35;335.59;173.10;-80.00;1.02;-89.24;-76.53;-0.83 
6.314;-0.98;-0.10;0.26;-0.70;5.84;1.46;332.60;172.15;-80.00;1.02;-89.22;-76.57;-0.86 
6.345;-1.01;-0.07;0.20;-1.46;7.17;2.64;336.58;171.19;-79.00;1.03;-89.25;-76.78;-0.84 
6.375;-0.98;-0.04;0.15;0.21;-1.81;0.49;336.58;172.15;-84.00;0.99;-89.29;-76.91;-0.81 
6.404;-0.99;-0.06;0.24;-0.07;0.77;-0.07;333.59;171.19;-82.00;1.02;-89.31;-76.86;-0.80 
6.435;-0.98;-0.07;0.16;1.60;3.20;-1.95;338.57;172.15;-80.00;1.00;-89.24;-76.95;-0.87 
6.465;-0.98;-0.09;0.14;0.14;-1.18;-1.74;335.59;174.06;-83.00;0.99;-89.14;-77.03;-0.97 
6.495;-1.01;-0.07;0.19;-0.49;-2.23;-1.11;332.60;172.15;-84.00;1.03;-89.08;-77.01;-1.03 
6.525;-0.99;-0.05;0.19;-0.90;-0.42;-0.77;333.59;175.02;-81.00;1.01;-89.02;-76.98;-1.10 
6.555;-0.99;-0.10;0.18;-1.88;0.90;0.49;334.59;170.23;-82.00;1.01;-89.01;-77.00;-1.14 
6.585;-1.02;0.00;0.21;-1.95;5.57;-0.14;332.60;171.19;-83.00;1.04;-89.03;-77.07;-1.13 
6.615;-0.97;-0.04;0.16;-1.67;8.21;0.00;335.59;171.19;-80.00;0.98;-89.03;-77.28;-1.15 
6.645;-0.97;-0.08;0.07;0.49;-1.46;-0.97;331.60;173.10;-81.00;0.98;-89.02;-77.50;-1.16 
6.675;-0.94;-0.08;0.20;0.28;-9.74;-1.53;333.59;172.15;-81.00;0.96;-88.97;-77.38;-1.21 
6.705;-0.95;-0.11;0.23;-0.21;-0.97;-0.63;332.60;173.10;-81.00;0.98;-88.91;-77.17;-1.28 
6.736;-0.99;-0.06;0.17;1.11;1.18;-3.13;333.59;175.02;-82.00;1.01;-88.84;-77.21;-1.35 
6.766;-0.98;-0.08;0.20;-0.21;-3.76;-3.27;334.59;174.06;-83.00;1.00;-88.73;-77.16;-1.46 
6.796;-0.98;-0.10;0.25;0.14;1.74;-3.41;331.60;175.02;-82.00;1.02;-88.61;-77.09;-1.59 
6.826;-0.99;-0.13;0.18;0.00;4.59;-0.97;332.60;169.28;-81.00;1.01;-88.49;-77.17;-1.72 
6.855;-0.97;-0.13;0.20;-1.18;1.46;2.85;331.60;174.06;-79.00;1.00;-88.43;-77.28;-1.78 
6.885;-0.95;-0.06;0.20;-1.18;2.16;1.46;332.60;171.19;-81.00;0.97;-88.48;-77.36;-1.75 
6.915;-0.98;-0.06;0.14;-1.39;2.43;0.35;331.60;173.10;-79.00;0.99;-88.52;-77.46;-1.73 
6.946;-0.99;-0.10;0.15;0.83;-1.11;-0.14;332.60;173.10;-81.00;1.01;-88.50;-77.53;-1.75 
6.976;-0.98;-0.10;0.21;0.90;0.83;0.42;332.60;175.02;-81.00;1.01;-88.47;-77.47;-1.79 
7.006;-0.99;-0.03;0.14;0.28;2.71;-0.28;332.60;175.02;-80.00;1.00;-88.44;-77.54;-1.82 
7.036;-0.98;-0.07;0.17;-0.49;-0.49;-0.42;333.59;175.02;-77.00;1.00;-88.43;-77.58;-1.83 
7.065;-0.98;-0.06;0.19;-0.21;-0.35;-0.49;333.59;174.06;-84.00;1.00;-88.43;-77.54;-1.85 
7.095;-0.98;-0.06;0.18;-0.70;1.25;0.00;328.62;174.06;-82.00;1.00;-88.40;-77.54;-1.88 
7.125;-0.98;-0.10;0.19;-0.35;3.97;0.42;333.59;173.10;-80.00;1.00;-88.39;-77.61;-1.90 
7.156;-1.00;-0.09;0.15;0.42;0.97;0.07;330.61;171.19;-80.00;1.02;-88.38;-77.73;-1.91 
7.186;-0.98;-0.08;0.18;-0.97;-3.06;1.11;332.60;171.19;-81.00;1.00;-88.37;-77.69;-1.93 
7.216;-0.94;-0.06;0.22;-0.97;2.02;-0.14;333.59;171.19;-80.00;0.97;-88.38;-77.62;-1.93 
7.247;-0.98;-0.10;0.15;-1.39;4.73;-1.18;333.59;174.06;-82.00;1.00;-88.35;-77.74;-1.98 
7.276;-1.00;-0.11;0.13;-0.83;0.07;1.88;332.60;170.23;-82.00;1.01;-88.33;-77.85;-2.01 
7.306;-0.97;-0.06;0.20;0.28;-1.53;-0.07;334.59;171.19;-81.00;0.99;-88.35;-77.84;-2.00 
7.336;-0.98;-0.06;0.21;-2.02;2.99;0.70;331.60;171.19;-78.00;1.00;-88.37;-77.84;-2.00 
7.366;-1.00;-0.07;0.16;-0.90;1.39;0.00;332.60;172.15;-77.00;1.02;-88.37;-77.92;-2.01 
7.396;-0.99;-0.07;0.15;-0.42;-0.14;0.00;330.61;172.15;-82.00;1.00;-88.36;-77.93;-2.03 
7.426;-0.98;-0.06;0.21;-0.07;-0.28;0.42;334.59;176.93;-79.00;1.00;-88.34;-77.92;-2.06 
7.456;-0.97;-0.08;0.20;0.07;2.43;-0.70;333.59;174.06;-81.00;0.99;-88.30;-77.93;-2.10 
7.486;-0.98;-0.10;0.17;-0.56;3.62;0.28;333.59;169.28;-80.00;1.00;-88.25;-78.00;-2.15 
7.516;-0.99;-0.06;0.17;-0.56;0.28;0.56;336.58;174.06;-82.00;1.01;-88.24;-78.08;-2.17 
7.547;-0.98;-0.06;0.19;-0.63;0.97;0.56;330.61;174.06;-79.00;1.00;-88.23;-78.06;-2.20 
7.577;-0.97;-0.09;0.15;-0.49;2.99;0.77;333.59;172.15;-81.00;0.99;-88.23;-78.11;-2.20 
7.607;-1.02;-0.08;0.16;0.28;1.74;1.74;333.59;172.15;-78.00;1.04;-88.24;-78.22;-2.20 
7.637;-1.00;-0.06;0.16;0.14;-3.13;0.97;333.59;168.32;-77.00;1.01;-88.25;-78.21;-2.19 
7.666;-0.98;-0.06;0.22;-1.39;4.10;-0.35;332.60;173.10;-83.00;1.01;-88.28;-78.16;-2.18 
7.696;-1.00;-0.06;0.14;0.21;2.16;-1.81;333.59;174.06;-78.00;1.01;-88.23;-78.28;-2.24 
7.726;-0.97;-0.09;0.18;0.21;-3.13;0.63;332.60;172.15;-78.00;0.99;-88.20;-78.28;-2.27 
7.757;-0.98;-0.06;0.20;0.28;1.11;-0.21;335.59;171.19;-77.00;1.00;-88.19;-78.21;-2.28 
7.787;-0.96;-0.05;0.18;-0.21;5.01;-1.67;333.59;173.10;-81.00;0.98;-88.15;-78.26;-2.33 
7.817;-0.97;-0.10;0.16;-1.53;6.12;-0.35;334.59;174.06;-76.00;0.99;-88.10;-78.40;-2.38 
7.847;-0.94;-0.10;0.15;-0.97;1.46;-0.14;335.59;173.10;-76.00;0.96;-88.08;-78.55;-2.41 
7.876;-0.96;-0.07;0.18;-1.18;0.97;0.14;333.59;174.06;-76.00;0.98;-88.06;-78.56;-2.44 
7.906;-0.98;-0.10;0.20;-1.04;3.34;0.21;332.60;171.19;-77.00;1.01;-88.05;-78.62;-2.46 
7.936;-1.00;-0.06;0.14;-0.42;3.41;0.49;334.59;173.10;-74.00;1.01;-88.04;-78.71;-2.48 
7.967;-0.98;-0.10;0.16;-1.11;3.41;0.83;333.59;173.10;-75.00;1.00;-88.02;-78.82;-2.50 
7.997;-0.99;-0.09;0.11;-0.63;-0.56;0.21;331.60;174.06;-79.00;1.00;-88.02;-78.90;-2.52 
8.027;-0.98;-0.10;0.14;-0.56;-0.70;0.70;330.61;175.97;-74.00;0.99;-88.02;-78.89;-2.52 
8.057;-0.96;-0.09;0.14;-0.42;-0.70;0.70;330.61;171.19;-78.00;0.97;-88.00;-78.89;-2.55 
8.086;-0.94;-0.07;0.18;-0.28;-1.46;0.70;332.60;170.23;-74.00;0.96;-87.99;-78.86;-2.57 
8.116;-0.94;-0.10;0.14;-0.70;-3.41;2.23;333.59;173.10;-76.00;0.96;-88.03;-78.80;-2.55 
8.146;-0.95;-0.08;0.14;-1.04;-6.12;2.85;335.59;173.10;-79.00;0.96;-88.11;-78.70;-2.48 
8.176;-0.98;-0.09;0.18;-0.97;-4.59;3.76;337.58;172.15;-78.00;1.00;-88.21;-78.58;-2.40 
8.206;-1.02;-0.02;0.18;-0.42;-3.41;2.16;338.57;171.19;-79.00;1.04;-88.32;-78.48;-2.30 
8.236;-1.04;-0.05;0.18;0.42;-2.78;0.56;336.58;171.19;-82.00;1.06;-88.37;-78.38;-2.27 
8.267;-1.04;-0.07;0.20;1.46;-4.87;-2.02;336.58;170.23;-81.00;1.06;-88.35;-78.25;-2.30 
8.297;-1.00;-0.09;0.21;-0.21;0.07;-1.39;334.59;169.28;-79.00;1.03;-88.28;-78.11;-2.37 
8.327;-1.00;-0.06;0.18;-0.77;4.45;-1.74;331.60;173.10;-83.00;1.02;-88.22;-78.16;-2.44 
8.357;-1.00;-0.10;0.14;-0.35;-2.02;-1.11;333.59;169.28;-81.00;1.01;-88.17;-78.24;-2.49 
8.387;-0.98;-0.08;0.21;0.35;-3.90;0.90;334.59;170.23;-83.00;1.01;-88.15;-78.12;-2.52 
8.417;-0.98;-0.06;0.25;0.28;-0.77;-1.04;333.59;174.06;-85.00;1.01;-88.15;-78.03;-2.53 
8.447;-0.98;-0.14;0.14;-0.49;1.67;0.35;337.58;169.28;-82.00;1.00;-88.11;-78.04;-2.58 
8.477;-0.96;-0.07;0.18;0.14;1.32;0.28;334.59;171.19;-80.00;0.98;-88.09;-78.07;-2.61 
8.507;-0.99;-0.06;0.17;0.14;-1.53;-0.21;333.59;170.23;-83.00;1.01;-88.08;-78.06;-2.62 
8.537;-0.99;-0.08;0.20;-0.56;-2.78;1.11;339.57;170.23;-82.00;1.01;-88.07;-77.99;-2.64 
8.567;-0.95;-0.05;0.22;0.21;0.14;-0.42;333.59;175.02;-87.00;0.98;-88.08;-77.92;-2.64 
8.597;-0.98;-0.10;0.18;-0.70;2.92;0.63;337.58;171.19;-83.00;1.00;-88.05;-77.94;-2.68 
8.627;-1.00;-0.10;0.17;0.90;0.77;0.77;338.57;173.10;-83.00;1.02;-88.06;-78.01;-2.68 
8.657;-0.99;-0.06;0.16;1.04;-2.64;0.28;335.59;171.19;-84.00;1.00;-88.07;-78.02;-2.67 
8.687;-0.99;-0.08;0.23;-0.07;-0.21;0.77;336.58;173.10;-86.00;1.02;-88.11;-77.94;-2.64 
8.717;-0.98;-0.06;0.14;0.70;-0.83;-0.90;340.57;170.23;-80.00;0.99;-88.10;-77.94;-2.66 
8.746;-0.94;-0.08;0.22;-0.35;-0.83;0.14;334.59;169.28;-84.00;0.97;-88.07;-77.91;-2.70 
8.777;-0.99;-0.05;0.18;0.21;0.90;-0.35;335.59;171.19;-85.00;1.01;-88.06;-77.88;-2.71 
8.807;-0.98;-0.08;0.17;0.07;-0.21;-0.56;334.59;174.06;-84.00;1.00;-88.03;-77.86;-2.75 
8.837;-0.98;-0.05;0.21;-0.21;-0.42;-0.56;333.59;172.15;-86.00;1.00;-88.01;-77.84;-2.78 
8.868;-0.98;-0.06;0.18;0.07;0.21;-1.11;333.59;169.28;-83.00;1.00;-87.98;-77.82;-2.81 
8.898;-0.98;-0.09;0.18;-0.42;0.63;0.07;333.59;171.19;-87.00;1.00;-87.95;-77.83;-2.85 
8.927;-1.01;-0.07;0.18;-0.28;-1.11;-0.49;336.58;169.28;-85.00;1.03;-87.93;-77.81;-2.88 
8.957;-0.97;-0.05;0.19;-0.97;-0.28;-1.04;334.59;172.15;-85.00;0.99;-87.92;-77.77;-2.91 
8.987;-0.98;-0.10;0.16;-0.42;0.90;-1.32;338.57;170.23;-86.00;1.00;-87.90;-77.78;-2.94 
9.017;-1.01;-0.06;0.15;0.90;-0.35;-1.18;337.58;173.10;-82.00;1.02;-87.84;-77.80;-3.00 
9.047;-1.00;-0.05;0.19;0.07;-2.02;-1.46;334.59;173.10;-83.00;1.02;-87.79;-77.76;-3.06 
9.078;-1.00;-0.13;0.18;0.90;-2.16;0.77;334.59;171.19;-83.00;1.02;-87.75;-77.70;-3.11 
9.108;-0.97;-0.07;0.18;1.53;-2.99;-0.97;334.59;170.23;-82.00;0.99;-87.74;-77.62;-3.12 
9.137;-0.96;-0.08;0.24;-1.32;0.63;-0.63;334.59;171.19;-86.00;0.99;-87.68;-77.53;-3.19 
9.168;-0.98;-0.04;0.21;-1.32;3.83;-2.57;333.59;172.15;-91.00;1.00;-87.63;-77.55;-3.25 
9.198;-0.99;-0.06;0.15;-0.49;0.49;-2.43;331.60;173.10;-85.00;1.00;-87.56;-77.60;-3.33 
9.228;-0.98;-0.12;0.18;0.70;-3.20;0.70;336.58;173.10;-83.00;1.00;-87.51;-77.53;-3.39 
9.258;-0.98;-0.06;0.23;0.70;1.32;-0.83;332.60;175.02;-87.00;1.01;-87.52;-77.43;-3.40 
9.289;-0.99;-0.10;0.18;-1.67;8.00;-0.42;333.59;173.10;-85.00;1.01;-87.50;-77.53;-3.42 
9.318;-1.07;-0.07;0.20;-0.70;5.22;-0.14;336.58;172.15;-86.00;1.09;-87.45;-77.73;-3.47 
9.348;-1.13;-0.15;0.26;-1.81;6.26;2.16;334.59;171.19;-84.00;1.17;-87.43;-77.84;-3.49 
