Time(s) acc_x(g) acc_y(g) acc_z(g) gyr_x(°/s) gyr_y(°/s) gyr_z(°/s) mag_x(G) mag_y(G) mag_z(G) SVM(g) yaw(°) pitch(°) roll(°)
0.000;-0.29;0.05;0.81;4.80;-2.43;-19.97;372.77;-201.08;-360.00;0.86;-145.36;-23.76;11.48 
0.031;-0.27;0.05;0.82;5.15;-4.10;-19.55;371.77;-199.17;-358.00;0.86;-144.65;-23.65;11.42 
0.061;-0.26;0.02;0.87;3.90;-4.87;-17.25;367.78;-198.22;-359.00;0.91;-144.00;-23.47;11.33 
0.091;-0.26;0.00;0.85;2.43;-2.50;-14.26;370.77;-196.31;-354.00;0.89;-143.46;-23.30;11.23 
0.121;-0.27;-0.02;0.86;1.46;-0.07;-11.48;370.77;-193.45;-356.00;0.90;-143.01;-23.21;11.25 
0.152;-0.29;0.00;0.86;-0.35;1.32;-6.19;370.77;-196.31;-356.00;0.91;-142.67;-23.19;11.28 
0.182;-0.26;0.01;0.89;-1.95;2.71;-2.30;368.78;-195.36;-352.00;0.93;-142.49;-23.10;11.23 
0.212;-0.30;0.05;0.82;-2.09;5.29;-0.70;365.79;-193.45;-358.00;0.87;-142.38;-23.09;11.17 
0.243;-0.28;0.07;0.86;-1.67;1.46;-1.25;370.77;-192.50;-355.00;0.91;-142.30;-23.02;11.14 
0.273;-0.31;0.10;0.88;-1.11;2.85;-2.57;366.79;-191.55;-357.00;0.94;-142.20;-22.91;11.11 
0.303;-0.29;0.10;0.86;0.49;4.31;-5.08;366.79;-192.50;-356.00;0.91;-142.03;-22.90;11.12 
0.333;-0.34;0.07;0.84;1.11;3.76;-6.40;365.79;-190.59;-356.00;0.91;-141.79;-22.91;11.13 
0.363;-0.30;0.06;0.79;1.32;2.02;-8.00;367.78;-188.69;-356.00;0.85;-141.48;-22.91;11.13 
0.393;-0.31;0.06;0.83;1.18;1.74;-7.72;367.78;-188.69;-355.00;0.89;-141.19;-22.88;11.10 
0.423;-0.30;0.02;0.82;1.60;2.92;-7.58;365.79;-185.83;-353.00;0.87;-140.89;-22.87;11.09 
0.454;-0.30;0.06;0.82;1.81;2.71;-7.30;366.79;-182.97;-353.00;0.88;-140.59;-22.89;11.06 
0.484;-0.33;0.06;0.87;3.06;1.46;-7.03;364.79;-186.78;-355.00;0.93;-140.28;-22.87;11.06 
0.514;-0.32;0.05;0.83;2.30;1.25;-3.55;363.80;-182.97;-357.00;0.89;-140.06;-22.83;11.12 
0.544;-0.29;0.06;0.84;0.07;0.90;-3.13;364.79;-180.11;-355.00;0.89;-139.91;-22.72;11.14 
0.574;-0.30;0.07;0.84;-2.92;3.41;-2.57;363.80;-182.97;-353.00;0.89;-139.77;-22.65;11.10 
0.604;-0.27;0.05;0.86;-3.55;5.01;-2.09;360.81;-181.06;-355.00;0.90;-139.66;-22.64;11.01 
0.634;-0.29;0.00;0.85;-2.50;5.84;0.42;363.80;-182.02;-353.00;0.90;-139.59;-22.62;10.92 
0.665;-0.30;-0.05;0.86;-1.81;8.77;6.82;361.80;-182.02;-352.00;0.91;-139.60;-22.65;10.84 
0.695;-0.30;0.00;0.85;-4.52;10.30;13.29;363.80;-182.97;-353.00;0.90;-139.84;-22.74;10.96 
0.725;-0.30;0.02;0.88;-5.84;12.87;19.83;362.80;-177.25;-350.00;0.93;-140.26;-22.87;11.10 
0.756;-0.28;0.00;0.79;-6.54;9.25;24.00;364.79;-181.06;-351.00;0.84;-140.87;-22.96;11.30 
0.786;-0.26;-0.03;0.82;-8.90;5.08;32.21;367.78;-182.02;-353.00;0.86;-141.66;-22.88;11.52 
0.816;-0.26;-0.03;0.92;-8.90;7.86;39.17;368.78;-182.97;-354.00;0.96;-142.69;-22.64;11.64 
0.845;-0.30;0.00;0.94;-9.95;15.79;41.04;368.78;-189.64;-353.00;0.99;-143.78;-22.58;11.94 
0.875;-0.33;0.09;0.82;-10.71;24.00;42.71;369.78;-190.59;-354.00;0.89;-144.93;-22.78;12.14 
0.905;-0.35;0.08;0.76;-9.39;13.84;38.40;374.76;-192.50;-352.00;0.84;-146.03;-23.02;12.41 
0.934;-0.29;0.18;0.86;-4.80;1.81;29.22;377.75;-194.41;-353.00;0.93;-146.98;-22.92;12.74 
0.965;-0.30;0.24;1.01;-5.77;13.50;16.28;377.75;-195.36;-356.00;1.08;-147.62;-22.74;13.04 
0.995;-0.34;0.10;0.86;-10.99;33.25;12.38;379.74;-193.45;-353.00;0.93;-147.86;-23.24;13.12 
1.025;-0.34;0.08;0.85;-9.39;34.43;12.38;378.75;-190.59;-351.00;0.92;-148.00;-24.08;12.98 
1.055;-0.24;0.17;0.99;-1.95;34.57;7.72;374.76;-185.83;-349.00;1.03;-148.14;-24.82;13.11 
1.085;-0.34;0.06;0.88;-0.83;55.65;7.51;375.76;-179.16;-342.00;0.95;-148.09;-25.85;13.23 
1.115;-0.40;0.00;0.72;-0.07;60.24;8.77;376.75;-172.49;-341.00;0.82;-147.81;-27.45;13.36 
1.145;-0.42;-0.04;0.66;-6.75;44.45;17.32;377.75;-162.00;-335.00;0.78;-147.78;-28.83;13.61 
1.176;-0.36;0.01;0.70;-14.75;28.87;25.32;377.75;-160.10;-331.00;0.79;-148.11;-29.72;13.64 
1.206;-0.26;0.13;0.77;-18.99;26.92;27.27;378.75;-159.15;-331.00;0.82;-148.81;-30.10;13.66 
1.236;-0.31;0.22;0.62;-16.21;17.18;12.59;375.76;-154.38;-329.00;0.73;-149.35;-30.48;13.69 
1.266;-0.30;0.26;0.76;-6.26;-7.10;-5.84;382.73;-154.38;-332.00;0.86;-149.45;-30.42;13.70 
1.295;-0.38;0.18;0.83;4.73;-6.33;-18.30;381.74;-156.29;-331.00;0.93;-149.04;-30.05;13.69 
1.325;-0.40;0.11;0.71;8.56;6.82;-25.18;373.76;-153.43;-330.00;0.82;-148.21;-30.13;13.65 
1.355;-0.29;0.04;0.58;9.74;4.94;-28.38;372.77;-150.57;-329.00;0.65;-147.13;-30.42;13.54 
1.385;-0.22;0.00;0.60;9.60;-7.72;-25.88;372.77;-148.66;-324.00;0.64;-146.04;-30.47;13.38 
1.415;-0.29;0.06;0.66;8.07;-22.19;-22.96;372.77;-148.66;-327.00;0.72;-145.18;-30.07;13.28 
1.445;-0.34;0.08;0.74;6.33;-22.68;-22.47;369.78;-153.43;-327.00;0.82;-144.47;-29.39;13.17 
1.475;-0.28;0.04;0.77;5.63;-16.49;-22.26;370.77;-152.48;-327.00;0.82;-143.73;-28.84;13.03 
1.505;-0.26;0.01;0.77;7.58;-14.26;-18.23;367.78;-152.48;-326.00;0.81;-143.05;-28.36;12.91 
1.534;-0.30;0.02;0.66;8.97;-11.90;-17.60;370.77;-150.57;-328.00;0.73;-142.43;-28.04;13.02 
1.565;-0.30;-0.03;0.56;11.55;-11.48;-15.93;367.78;-151.52;-329.00;0.64;-141.79;-27.72;13.16 
1.595;-0.26;-0.03;0.46;9.46;-13.29;-9.46;371.77;-150.57;-325.00;0.53;-141.22;-27.40;13.17 
1.625;-0.18;0.08;0.41;4.59;-19.34;-8.21;369.78;-156.29;-325.00;0.45;-140.87;-26.97;13.23 
1.655;-0.07;0.02;0.46;7.93;-22.82;-11.90;370.77;-156.29;-325.00;0.47;-140.52;-26.24;13.27 
1.685;-0.06;-0.05;0.50;8.63;-27.41;-5.63;372.77;-160.10;-325.00;0.51;-140.34;-25.15;13.34 
1.715;-0.06;-0.08;0.62;6.96;-26.99;3.62;369.78;-163.91;-330.00;0.63;-140.26;-24.06;13.39 
1.745;-0.19;0.00;0.73;7.23;-20.10;9.04;371.77;-166.77;-326.00;0.75;-140.46;-23.14;13.75 
1.776;-0.30;0.07;1.00;4.80;13.98;7.51;378.75;-172.49;-328.00;1.05;-140.64;-22.61;14.01 
1.806;-0.48;0.13;1.00;-3.83;99.76;2.43;379.74;-165.82;-322.00;1.12;-140.53;-23.94;14.14 
1.836;-0.38;-0.03;0.66;-11.90;141.63;19.13;380.74;-160.10;-317.00;0.76;-140.35;-27.23;14.19 
1.866;-0.30;0.00;0.70;-24.90;161.04;25.88;382.73;-134.37;-297.00;0.76;-140.15;-31.26;13.98 
1.896;-1.26;0.42;1.16;-60.03;131.83;49.04;382.73;-122.93;-281.00;1.76;-140.21;-35.63;13.66 
1.926;-0.51;1.58;6.85;231.58;138.16;36.24;401.67;-133.42;-277.00;7.05;-145.21;-31.63;16.58 
1.956;-0.17;-0.26;2.70;11.34;480.42;-111.72;417.62;-87.67;-199.00;2.72;-139.60;-41.47;21.01 
1.987;0.82;-0.30;1.10;-195.13;584.56;-63.79;399.68;-41.93;-135.00;1.40;-131.56;-57.13;16.90 
2.017;1.44;-0.17;0.61;-102.12;446.05;-29.29;381.74;-18.11;-68.00;1.57;-121.56;-69.93;13.71 
2.037;-0.50;-0.24;0.35;26.50;-117.63;22.61;347.85;12.39;-55.00;0.66;-80.99;-75.24;-9.72 
2.068;-1.09;0.15;-0.06;-27.83;-52.52;2.64;353.83;13.34;-67.00;1.10;-81.66;-77.95;-8.83 
2.098;-0.94;-0.15;-0.62;-25.74;-107.20;13.63;357.82;10.48;-81.00;1.14;-82.14;-79.44;-8.14 
2.128;-1.09;-0.08;0.08;-0.21;-35.83;14.12;355.82;8.58;-94.00;1.10;-82.70;-80.64;-7.52 
2.159;-1.01;0.00;0.38;18.37;42.64;14.26;361.80;2.86;-95.00;1.08;-83.52;-81.48;-6.71 
2.189;-1.05;0.09;0.15;39.51;105.81;-0.63;363.80;4.76;-88.00;1.06;-84.14;-80.31;-6.23 
2.219;-0.96;0.01;-0.29;1.53;20.03;-3.90;366.79;4.76;-65.00;1.00;-84.40;-78.84;-6.11 
2.249;-1.02;-0.05;-0.09;-0.56;14.96;-4.87;362.80;5.72;-60.00;1.03;-84.48;-78.39;-6.03 
2.280;-1.02;-0.09;-0.11;-0.56;10.57;-2.09;359.81;9.53;-56.00;1.03;-84.63;-78.09;-5.88 
2.309;-1.03;-0.05;0.05;2.16;17.60;-10.37;359.81;11.44;-58.00;1.03;-84.66;-77.70;-5.85 
2.339;-1.18;-0.11;-0.10;3.41;32.14;-4.59;355.82;11.44;-50.00;1.19;-84.73;-77.11;-5.80 
2.370;-1.20;0.00;-0.10;8.49;26.78;-12.80;357.82;12.39;-43.00;1.20;-84.87;-76.20;-5.74 
2.400;-0.84;-0.15;-0.02;2.09;32.77;2.30;353.83;10.48;-37.00;0.85;-84.92;-75.31;-5.79 
2.430;-1.04;-0.03;-0.27;-1.53;14.89;-0.14;356.82;12.39;-33.00;1.07;-85.18;-74.69;-5.56 
2.460;-1.03;-0.05;-0.22;0.35;-8.21;-1.46;356.82;12.39;-31.00;1.05;-85.42;-74.61;-5.32 
2.490;-1.00;-0.07;-0.03;0.28;-4.38;0.00;355.82;14.29;-34.00;1.00;-85.65;-74.94;-5.09 
2.520;-1.03;-0.05;-0.10;-0.56;5.84;-1.04;354.83;17.15;-34.00;1.04;-85.87;-75.06;-4.86 
2.549;-1.04;-0.06;-0.18;-0.35;1.39;-1.39;355.82;13.34;-31.00;1.06;-86.08;-75.00;-4.65 
2.580;-1.02;-0.06;-0.12;-0.07;-2.43;-0.70;353.83;12.39;-34.00;1.03;-86.27;-75.09;-4.45 
2.610;-1.02;-0.06;-0.10;-0.35;-0.28;-1.04;353.83;9.53;-32.00;1.03;-86.47;-75.22;-4.24 
2.640;-1.02;-0.07;-0.09;-0.77;1.39;-0.49;356.82;13.34;-31.00;1.03;-86.64;-75.28;-4.06 
2.671;-1.02;-0.06;-0.15;-0.28;-0.14;0.14;353.83;11.44;-31.00;1.03;-86.84;-75.34;-3.85 
2.700;-1.03;-0.05;-0.09;-0.07;-0.70;-0.21;355.82;14.29;-33.00;1.04;-87.06;-75.46;-3.63 
2.730;-1.03;-0.05;-0.09;-0.07;0.63;-0.14;354.83;13.34;-35.00;1.04;-87.26;-75.56;-3.42 
2.760;-1.02;-0.06;-0.15;-0.14;1.18;-0.21;353.83;14.29;-35.00;1.03;-87.45;-75.60;-3.22 
2.790;-1.03;-0.06;-0.13;-0.07;1.60;0.21;353.83;14.29;-32.00;1.04;-87.66;-75.63;-3.01 
2.820;-1.02;-0.03;-0.10;0.07;0.90;-0.90;355.82;12.39;-32.00;1.03;-87.85;-75.63;-2.81 
2.849;-1.02;-0.06;-0.12;0.00;0.63;-0.28;357.82;17.15;-31.00;1.03;-88.04;-75.66;-2.62 
2.880;-1.02;-0.07;-0.10;0.35;1.67;-0.35;353.83;12.39;-33.00;1.03;-88.22;-75.69;-2.44 
2.910;-1.00;-0.03;-0.09;0.70;1.67;0.00;353.83;17.15;-31.00;1.00;-88.41;-75.70;-2.25 
2.940;-1.03;-0.04;-0.14;-0.07;1.46;-0.28;355.82;12.39;-30.00;1.04;-88.62;-75.71;-2.04 
2.970;-1.04;-0.06;-0.11;0.28;1.53;-0.14;356.82;12.39;-31.00;1.05;-88.80;-75.73;-1.86 
2.999;-1.02;-0.05;-0.13;0.07;1.32;-0.14;355.82;13.34;-32.00;1.03;-88.99;-75.71;-1.66 
3.029;-1.02;-0.04;-0.14;-0.07;0.35;-0.28;354.83;9.53;-32.00;1.03;-89.15;-75.73;-1.49 
3.059;-1.02;-0.06;-0.13;-0.42;-1.04;-0.28;353.83;14.29;-28.00;1.03;-89.32;-75.79;-1.32 
3.090;-1.05;-0.06;-0.13;-0.28;-0.83;-0.49;353.83;14.29;-32.00;1.06;-89.49;-75.85;-1.14 
3.120;-1.02;-0.06;-0.10;0.07;0.63;0.14;355.82;12.39;-31.00;1.03;-89.66;-75.93;-0.97 
3.149;-1.02;-0.06;-0.12;0.14;0.42;0.00;355.82;14.29;-36.00;1.03;-89.85;-75.96;-0.76 
3.180;-1.03;-0.07;-0.08;0.14;-0.56;0.42;351.83;14.29;-32.00;1.04;-90.03;-76.02;-0.58 
3.210;-1.02;-0.06;-0.13;-0.21;0.83;0.56;354.83;15.25;-30.00;1.03;-90.23;-76.05;-0.38 
3.240;-1.02;-0.04;-0.12;-0.49;0.77;0.14;354.83;14.29;-33.00;1.03;-90.40;-76.08;-0.19 
3.270;-1.02;-0.06;-0.14;-0.42;-0.28;0.56;353.83;15.25;-31.00;1.03;-90.55;-76.08;-0.03 
3.299;-1.01;-0.06;-0.11;-0.14;-0.28;0.70;352.83;13.34;-33.00;1.02;-90.72;-76.12;0.15 
3.329;-1.03;-0.03;-0.13;-0.63;0.49;0.56;351.83;11.44;-34.00;1.04;-90.90;-76.15;0.34 
3.359;-1.06;-0.02;-0.14;-0.35;0.90;-0.21;352.83;10.48;-32.00;1.07;-91.07;-76.19;0.52 
3.390;-1.04;-0.05;-0.10;-0.21;1.11;-0.07;354.83;11.44;-35.00;1.05;-91.22;-76.21;0.68 
3.420;-1.09;-0.06;-0.15;-0.42;2.43;-0.28;357.82;11.44;-32.00;1.10;-91.36;-76.21;0.83 
3.450;-1.02;-0.05;-0.14;-0.14;0.97;-0.42;354.83;13.34;-31.00;1.03;-91.50;-76.17;0.97 
3.480;-1.05;-0.06;-0.10;0.00;0.83;-0.42;354.83;13.34;-32.00;1.06;-91.63;-76.17;1.11 
3.510;-1.03;-0.06;-0.11;-0.28;2.92;0.21;356.82;13.34;-30.00;1.04;-91.74;-76.19;1.23 
3.540;-1.01;-0.06;-0.14;-0.14;2.09;0.56;353.83;11.44;-29.00;1.02;-91.87;-76.14;1.37 
3.570;-1.03;0.00;-0.10;-0.56;0.63;0.21;356.82;13.34;-31.00;1.03;-92.01;-76.11;1.51 
3.599;-1.02;-0.04;-0.13;-0.90;0.21;0.21;356.82;15.25;-32.00;1.03;-92.15;-76.10;1.66 
3.629;-1.02;-0.05;-0.10;-0.77;0.90;0.07;356.82;13.34;-31.00;1.03;-92.27;-76.11;1.79 
3.659;-1.04;-0.05;-0.08;-0.49;0.90;0.63;355.82;12.39;-31.00;1.04;-92.41;-76.10;1.95 
3.690;-1.04;-0.06;-0.11;-0.28;2.30;-0.49;357.82;13.34;-31.00;1.05;-92.53;-76.09;2.08 
3.719;-1.02;-0.07;-0.15;-0.49;2.92;-0.14;354.83;13.34;-31.00;1.03;-92.62;-76.09;2.18 
3.749;-1.02;-0.03;-0.14;-0.63;2.64;-0.14;355.82;12.39;-31.00;1.03;-92.74;-76.02;2.30 
3.780;-1.04;-0.04;-0.17;-0.56;1.46;-0.21;354.83;10.48;-29.00;1.05;-92.85;-75.97;2.43 
3.810;-1.03;-0.06;-0.14;-0.42;1.18;0.00;355.82;14.29;-30.00;1.04;-92.96;-75.93;2.55 
3.840;-1.02;-0.05;-0.12;-0.28;0.35;0.28;352.83;11.44;-29.00;1.03;-93.06;-75.94;2.66 
3.869;-1.03;-0.05;-0.13;-0.14;0.70;-0.07;354.83;16.20;-32.00;1.04;-93.18;-75.94;2.78 
3.899;-1.05;-0.03;-0.15;-0.07;-0.28;-0.14;351.83;13.34;-26.00;1.06;-93.28;-75.99;2.89 
3.929;-1.06;-0.06;-0.12;-0.28;1.04;-0.14;353.83;12.39;-29.00;1.07;-93.38;-76.00;3.00 
3.959;-1.03;-0.06;-0.11;-0.07;1.74;-0.21;355.82;14.29;-29.00;1.04;-93.48;-75.98;3.10 
3.989;-1.04;-0.07;-0.17;-0.07;0.77;0.14;353.83;15.25;-32.00;1.06;-93.56;-75.97;3.19 
4.019;-1.02;-0.06;-0.14;0.07;-0.83;-0.63;356.82;11.44;-29.00;1.03;-93.65;-76.00;3.29 
4.049;-1.04;-0.03;-0.10;-0.21;0.70;-0.63;351.83;14.29;-28.00;1.05;-93.74;-76.06;3.38 
4.079;-1.02;-0.05;-0.14;-0.21;1.88;-0.28;355.82;13.34;-28.00;1.03;-93.83;-76.04;3.48 
4.109;-1.02;-0.06;-0.12;-0.14;-0.28;-1.18;355.82;12.39;-28.00;1.03;-93.92;-76.02;3.58 
4.139;-1.02;-0.06;-0.13;-0.63;0.56;-0.70;352.83;12.39;-27.00;1.03;-93.99;-76.06;3.66 
4.169;-1.03;-0.05;-0.11;-0.28;0.63;-0.14;355.82;11.44;-31.00;1.04;-94.07;-76.05;3.75 
4.200;-1.05;-0.04;-0.08;-0.21;0.07;-0.28;353.83;14.29;-29.00;1.05;-94.15;-76.08;3.84 
4.230;-1.02;-0.07;-0.12;0.00;1.18;-0.56;351.83;11.44;-30.00;1.03;-94.23;-76.09;3.93 
4.259;-1.02;-0.07;-0.15;0.00;1.25;-0.56;354.83;13.34;-27.00;1.03;-94.27;-76.07;3.98 
4.290;-1.02;-0.08;-0.17;-0.28;-1.60;-0.07;352.83;13.34;-28.00;1.04;-94.35;-76.08;4.06 
4.320;-1.02;-0.07;-0.11;0.28;-0.90;0.77;355.82;14.29;-31.00;1.03;-94.42;-76.14;4.13 
4.350;-1.03;-0.07;-0.16;0.90;-1.53;1.46;352.83;13.34;-28.00;1.04;-94.50;-76.16;4.22 
4.379;-1.02;-0.05;-0.10;0.21;-5.22;1.32;349.84;13.34;-29.00;1.03;-94.61;-76.25;4.33 
4.409;-1.02;-0.04;-0.09;-0.42;-0.77;1.04;355.82;13.34;-31.00;1.02;-94.73;-76.39;4.45 
4.439;-1.02;-0.05;-0.09;-1.18;3.20;0.07;350.84;13.34;-29.00;1.03;-94.84;-76.38;4.57 
4.469;-1.02;-0.03;-0.13;-1.18;0.14;-0.42;356.82;16.20;-31.00;1.03;-94.92;-76.33;4.67 
4.499;-1.02;-0.03;-0.14;-0.77;0.35;-0.56;353.83;13.34;-32.00;1.03;-94.99;-76.36;4.76 
4.529;-1.02;-0.04;-0.13;0.00;0.21;-1.18;357.82;12.39;-31.00;1.03;-95.04;-76.36;4.82 
4.559;-1.05;-0.10;-0.18;-0.21;0.14;-1.11;356.82;12.39;-32.00;1.07;-95.08;-76.36;4.87 
4.590;-1.02;-0.04;-0.11;0.21;0.49;-1.11;354.83;12.39;-30.00;1.03;-95.11;-76.41;4.90 
4.620;-1.04;-0.08;-0.10;0.42;-0.35;-1.74;356.82;11.44;-29.00;1.05;-95.13;-76.44;4.93 
4.650;-1.02;-0.08;-0.07;0.42;-0.07;-1.46;352.83;14.29;-29.00;1.03;-95.13;-76.49;4.94 
4.680;-1.02;-0.12;-0.14;0.83;1.81;-0.28;354.83;15.25;-29.00;1.04;-95.14;-76.50;4.96 
4.710;-1.01;-0.06;-0.12;0.63;-0.07;0.77;354.83;9.53;-28.00;1.02;-95.20;-76.46;5.01 
4.740;-1.02;-0.04;-0.12;0.21;-0.77;0.28;353.83;14.29;-30.00;1.03;-95.27;-76.49;5.09 
4.769;-1.03;-0.06;-0.11;-0.35;1.53;0.14;352.83;13.34;-30.00;1.04;-95.32;-76.53;5.14 
4.800;-1.03;-0.06;-0.14;-0.35;1.04;0.07;352.83;13.34;-32.00;1.04;-95.41;-76.51;5.24 
4.830;-1.01;-0.06;-0.09;-0.63;0.83;-0.07;353.83;14.29;-30.00;1.02;-95.47;-76.51;5.32 
4.860;-1.03;-0.06;-0.14;-0.56;0.97;0.07;357.82;11.44;-32.00;1.04;-95.53;-76.48;5.38 
4.890;-1.02;-0.06;-0.15;-0.28;-0.07;-0.56;352.83;12.39;-31.00;1.03;-95.56;-76.48;5.42 
4.919;-1.03;-0.05;-0.11;0.14;0.00;-0.49;350.84;13.34;-30.00;1.04;-95.59;-76.48;5.47 
4.949;-1.02;-0.08;-0.11;0.77;-1.46;-0.97;351.83;12.39;-31.00;1.03;-95.62;-76.52;5.50 
4.979;-1.02;-0.04;-0.14;0.28;0.90;-0.21;351.83;13.34;-31.00;1.03;-95.65;-76.56;5.54 
5.010;-1.03;-0.05;-0.10;0.35;0.49;-0.21;351.83;14.29;-30.00;1.04;-95.68;-76.56;5.57 
5.039;-1.02;-0.07;-0.10;-0.21;-0.14;-0.83;355.82;13.34;-28.00;1.03;-95.72;-76.59;5.61 
5.069;-1.04;-0.06;-0.10;-0.21;1.53;0.70;352.83;13.34;-32.00;1.05;-95.73;-76.62;5.63 
5.100;-1.02;-0.06;-0.13;-0.83;1.74;0.42;351.83;14.29;-29.00;1.03;-95.78;-76.59;5.69 
5.130;-1.03;-0.05;-0.12;-1.04;0.63;0.35;354.83;13.34;-30.00;1.04;-95.83;-76.58;5.76 
5.160;-1.02;-0.06;-0.10;-1.04;2.30;-0.14;353.83;14.29;-29.00;1.03;-95.87;-76.58;5.81 
5.189;-1.02;-0.06;-0.13;-0.63;2.57;-0.14;352.83;15.25;-33.00;1.03;-95.90;-76.56;5.85 
5.219;-1.02;-0.05;-0.11;-0.28;2.78;-0.49;353.83;15.25;-28.00;1.03;-95.91;-76.52;5.87 
5.249;-1.03;-0.06;-0.14;0.21;2.43;-0.21;352.83;12.39;-28.00;1.04;-95.95;-76.48;5.92 
5.279;-1.03;-0.06;-0.14;-0.28;1.60;-0.70;353.83;14.29;-28.00;1.04;-95.95;-76.45;5.93 
5.310;-1.02;-0.07;-0.10;0.00;2.85;-1.04;353.83;14.29;-27.00;1.03;-95.93;-76.43;5.92 
5.339;-1.02;-0.06;-0.14;0.00;3.27;-0.42;351.83;12.39;-30.00;1.03;-95.94;-76.39;5.93 
5.369;-1.02;-0.07;-0.15;-0.35;1.46;0.07;355.82;12.39;-28.00;1.03;-95.95;-76.34;5.94 
5.400;-1.02;-0.06;-0.13;-0.49;2.30;0.49;353.83;14.29;-25.00;1.03;-95.96;-76.31;5.96 
5.430;-1.03;-0.02;-0.10;-0.63;3.27;0.28;355.82;14.29;-27.00;1.04;-96.00;-76.25;6.01 
5.460;-1.02;-0.08;-0.14;-0.35;1.88;0.35;353.83;14.29;-28.00;1.03;-96.03;-76.19;6.05 
5.489;-1.02;-0.06;-0.17;-0.35;2.37;0.28;352.83;11.44;-26.00;1.04;-96.06;-76.19;6.09 
5.519;-1.03;-0.06;-0.14;-0.35;1.39;0.21;348.84;13.34;-27.00;1.04;-96.11;-76.14;6.15 
5.549;-1.03;-0.06;-0.12;-0.35;0.14;0.00;355.82;12.39;-25.00;1.04;-96.14;-76.13;6.18 
5.579;-1.05;-0.06;-0.12;-0.35;1.53;0.21;352.83;11.44;-24.00;1.06;-96.14;-76.14;6.18 
5.610;-1.02;-0.05;-0.15;-0.42;1.18;0.07;351.83;17.15;-23.00;1.03;-96.16;-76.12;6.21 
5.639;-1.02;-0.07;-0.18;-0.28;0.49;-0.14;353.83;17.15;-27.00;1.04;-96.17;-76.13;6.23 
5.669;-1.02;-0.06;-0.15;-0.28;0.35;0.21;358.81;15.25;-27.00;1.03;-96.20;-76.15;6.26 
5.700;-1.04;-0.07;-0.14;-0.28;1.04;-0.14;353.83;13.34;-27.00;1.05;-96.23;-76.17;6.29 
5.730;-1.02;-0.06;-0.12;-0.07;1.11;-0.35;353.83;14.29;-24.00;1.03;-96.23;-76.18;6.30 
5.760;-1.02;-0.08;-0.14;0.00;0.83;-0.49;350.84;14.29;-26.00;1.03;-96.24;-76.19;6.31 
5.789;-1.03;-0.07;-0.14;0.00;0.83;0.28;351.83;16.20;-26.00;1.04;-96.24;-76.19;6.32 
5.819;-1.00;-0.06;-0.14;-0.28;1.18;-0.07;352.83;16.20;-25.00;1.01;-96.23;-76.21;6.31 
5.849;-1.03;-0.05;-0.13;-0.28;2.16;0.21;355.82;14.29;-27.00;1.04;-96.25;-76.20;6.34 
5.879;-1.05;-0.04;-0.11;-0.28;1.18;0.35;355.82;15.25;-24.00;1.06;-96.27;-76.18;6.37 
5.910;-1.02;-0.06;-0.16;-0.07;1.18;0.28;352.83;15.25;-25.00;1.03;-96.29;-76.16;6.38 
5.940;-1.06;-0.10;-0.18;-0.28;1.25;0.35;352.83;15.25;-27.00;1.08;-96.30;-76.15;6.40 
5.970;-1.04;-0.06;-0.11;-0.07;2.09;-0.14;349.84;15.25;-22.00;1.05;-96.33;-76.14;6.43 
6.000;-1.03;-0.05;-0.16;-0.07;2.09;0.14;354.83;11.44;-22.00;1.04;-96.34;-76.12;6.45 
6.030;-1.03;-0.05;-0.16;-0.14;0.56;0.07;353.83;13.34;-22.00;1.04;-96.35;-76.12;6.47 
6.060;-1.02;-0.06;-0.17;-0.90;-1.18;0.14;353.83;15.25;-26.00;1.04;-96.37;-76.13;6.49 
6.089;-1.04;-0.02;-0.16;-1.11;-1.25;-0.35;354.83;12.39;-23.00;1.05;-96.38;-76.18;6.50 
6.120;-1.02;-0.06;-0.16;-0.77;-0.49;-1.39;353.83;13.34;-24.00;1.03;-96.36;-76.25;6.49 
6.150;-1.04;-0.05;-0.16;-0.07;0.07;-0.70;352.83;15.25;-23.00;1.05;-96.32;-76.31;6.45 
6.180;-1.05;-0.06;-0.14;0.90;-1.67;-1.39;354.83;14.29;-23.00;1.06;-96.29;-76.37;6.42 
6.211;-1.01;-0.09;-0.10;0.14;-0.49;-0.90;353.83;15.25;-26.00;1.02;-96.25;-76.48;6.38 
6.241;-1.02;-0.07;-0.14;-0.42;1.74;-0.70;348.84;15.25;-22.00;1.03;-96.23;-76.52;6.36 
6.270;-1.02;-0.08;-0.11;0.07;-0.14;-0.42;355.82;14.29;-24.00;1.03;-96.21;-76.54;6.35 
6.300;-1.02;-0.06;-0.14;-0.49;0.00;-0.07;351.83;14.29;-23.00;1.03;-96.18;-76.60;6.32 
6.330;-1.02;-0.05;-0.11;-0.77;2.92;0.00;353.83;14.29;-23.00;1.03;-96.18;-76.64;6.32 
6.360;-1.02;-0.07;-0.13;-0.70;1.67;0.90;350.84;13.34;-23.00;1.03;-96.17;-76.59;6.32 
6.390;-1.06;-0.06;-0.13;-0.49;-1.46;0.90;350.84;13.34;-24.00;1.07;-96.18;-76.62;6.34 
6.420;-1.03;-0.06;-0.12;-0.21;-0.35;0.56;352.83;13.34;-27.00;1.04;-96.19;-76.69;6.35 
6.450;-1.02;-0.05;-0.13;-0.21;0.42;-0.28;353.83;14.29;-27.00;1.03;-96.21;-76.72;6.37 
6.480;-1.02;-0.06;-0.12;0.07;1.18;0.35;353.83;11.44;-24.00;1.03;-96.20;-76.74;6.36 
6.511;-1.04;-0.05;-0.18;0.21;-1.25;0.00;352.83;15.25;-27.00;1.06;-96.20;-76.77;6.37 
6.541;-1.03;-0.07;-0.16;-0.14;-0.35;0.07;352.83;16.20;-25.00;1.04;-96.19;-76.85;6.36 
6.571;-1.02;-0.06;-0.15;-0.07;0.35;0.14;350.84;13.34;-26.00;1.03;-96.17;-76.88;6.34 
6.601;-1.02;-0.06;-0.14;-0.07;-1.81;-0.42;353.83;13.34;-28.00;1.03;-96.19;-76.93;6.36 
6.632;-1.02;-0.09;-0.13;-0.35;0.49;0.63;351.83;12.39;-28.00;1.03;-96.16;-77.01;6.34 
6.662;-1.05;-0.04;-0.13;-0.21;1.11;0.28;351.83;13.34;-24.00;1.06;-96.18;-77.01;6.36 
6.692;-1.05;-0.05;-0.14;-0.49;-0.14;-0.07;355.82;14.29;-24.00;1.06;-96.16;-77.05;6.34 
6.722;-1.02;-0.06;-0.14;-0.49;0.97;0.28;354.83;13.34;-26.00;1.03;-96.17;-77.06;6.35 
6.752;-1.02;-0.06;-0.17;-0.14;0.35;0.49;354.83;13.34;-26.00;1.04;-96.17;-77.07;6.36 
6.782;-1.03;-0.05;-0.15;-0.14;-1.32;-0.21;353.83;12.39;-26.00;1.04;-96.17;-77.13;6.36 
6.812;-0.98;-0.03;-0.09;-0.14;-0.90;0.21;351.83;11.44;-27.00;0.98;-96.16;-77.23;6.35 
6.841;-1.03;-0.04;-0.14;-0.35;0.56;0.00;353.83;14.29;-28.00;1.04;-96.15;-77.28;6.35 
6.871;-1.06;-0.05;-0.14;-0.42;0.07;-0.42;354.83;13.34;-25.00;1.07;-96.14;-77.30;6.34 
6.901;-1.02;-0.07;-0.15;-0.28;-0.63;-0.42;357.82;13.34;-27.00;1.03;-96.11;-77.35;6.31 
6.932;-1.03;-0.07;-0.10;-0.07;0.56;-0.14;354.83;14.29;-27.00;1.04;-96.08;-77.40;6.29 
6.962;-1.04;-0.07;-0.14;-0.35;0.77;-0.63;354.83;13.34;-28.00;1.05;-96.05;-77.43;6.26 
6.992;-1.02;-0.06;-0.13;-0.21;0.21;-0.14;352.83;14.29;-27.00;1.03;-96.01;-77.47;6.23 
7.023;-1.02;-0.07;-0.14;-0.49;1.39;-0.14;352.83;15.25;-29.00;1.03;-95.97;-77.51;6.19 
7.053;-1.02;-0.05;-0.12;-0.49;-0.14;-0.07;353.83;11.44;-28.00;1.03;-95.95;-77.53;6.18 
7.083;-1.02;-0.06;-0.12;-0.42;0.77;-0.07;352.83;12.39;-30.00;1.03;-95.93;-77.59;6.16 
7.113;-1.02;-0.05;-0.14;0.00;1.25;0.77;352.83;14.29;-28.00;1.03;-95.92;-77.61;6.16 
7.142;-1.02;-0.06;-0.16;-0.14;0.70;0.63;354.83;13.34;-25.00;1.03;-95.94;-77.61;6.17 
7.172;-1.03;-0.05;-0.13;-0.28;-1.25;0.00;352.83;12.39;-25.00;1.04;-95.95;-77.63;6.20 
7.202;-1.02;-0.06;-0.12;-0.56;0.83;0.42;352.83;15.25;-31.00;1.03;-95.94;-77.70;6.18 
7.233;-1.04;-0.06;-0.15;-0.14;1.04;0.35;351.83;14.29;-28.00;1.05;-95.91;-77.73;6.16 
7.263;-1.04;-0.10;-0.12;-0.28;-0.42;0.77;352.83;13.34;-27.00;1.05;-95.87;-77.75;6.12 
7.293;-1.02;-0.06;-0.14;-0.14;-1.60;1.53;353.83;13.34;-28.00;1.03;-95.88;-77.79;6.13 
7.322;-1.03;-0.03;-0.16;-0.49;-1.25;1.04;353.83;14.29;-29.00;1.04;-95.89;-77.86;6.15 
7.352;-1.02;-0.06;-0.14;-0.97;0.35;0.77;355.82;14.29;-26.00;1.03;-95.91;-77.89;6.17 
7.382;-1.02;-0.06;-0.13;-0.63;0.35;0.83;354.83;15.25;-30.00;1.03;-95.91;-77.94;6.17 
7.412;-1.03;-0.06;-0.10;-0.21;1.60;0.35;350.84;15.25;-27.00;1.04;-95.90;-77.96;6.17 
7.443;-1.02;-0.06;-0.14;-0.21;3.20;0.56;355.82;15.25;-29.00;1.03;-95.90;-77.95;6.17 
7.472;-1.02;-0.02;-0.16;-0.42;2.09;0.28;356.82;12.39;-27.00;1.03;-95.89;-77.91;6.17 
7.502;-1.05;-0.06;-0.15;-0.63;2.30;0.07;354.83;11.44;-27.00;1.06;-95.87;-77.89;6.16 
7.533;-0.99;-0.08;-0.18;-0.21;2.57;-0.21;353.83;11.44;-30.00;1.01;-95.82;-77.88;6.11 
7.563;-1.03;-0.05;-0.15;-0.07;1.88;0.14;354.83;15.25;-27.00;1.04;-95.77;-77.85;6.06 
7.592;-1.02;-0.06;-0.14;0.00;0.14;0.56;358.81;11.44;-28.00;1.03;-95.74;-77.86;6.04 
7.622;-1.04;-0.06;-0.14;-0.28;-0.14;0.35;357.82;12.39;-26.00;1.05;-95.73;-77.90;6.02 
7.652;-1.04;-0.06;-0.13;-0.63;-0.35;1.04;355.82;15.25;-28.00;1.05;-95.70;-77.94;6.00 
7.682;-1.03;-0.05;-0.11;-0.21;-0.35;1.18;354.83;12.39;-27.00;1.04;-95.69;-77.97;5.99 
7.712;-1.03;-0.08;-0.12;-0.35;1.39;0.42;355.82;12.39;-27.00;1.04;-95.69;-77.99;5.99 
7.742;-1.03;-0.05;-0.13;-0.35;0.90;0.56;354.83;14.29;-27.00;1.04;-95.65;-78.02;5.96 
7.772;-1.02;-0.06;-0.13;-0.07;0.28;0.28;356.82;13.34;-29.00;1.03;-95.64;-78.04;5.95 
7.802;-1.03;-0.06;-0.18;-0.28;1.53;0.42;354.83;10.48;-28.00;1.05;-95.61;-78.07;5.92 
7.833;-1.02;-0.06;-0.15;-0.14;1.67;-0.21;356.82;12.39;-25.00;1.03;-95.59;-78.06;5.91 
7.863;-1.04;-0.02;-0.14;-0.21;0.83;0.00;356.82;8.58;-26.00;1.05;-95.55;-78.08;5.86 
7.893;-1.02;-0.04;-0.16;0.00;0.42;-0.63;355.82;14.29;-26.00;1.03;-95.53;-78.11;5.85 
7.923;-1.03;-0.04;-0.11;0.00;1.60;-0.42;353.83;8.58;-26.00;1.04;-95.51;-78.11;5.83 
7.954;-1.02;-0.04;-0.15;0.21;0.70;-0.56;353.83;11.44;-29.00;1.03;-95.47;-78.13;5.79 
7.983;-1.02;-0.06;-0.14;-0.07;1.25;-0.21;355.82;16.20;-24.00;1.03;-95.43;-78.17;5.75 
8.013;-1.02;-0.05;-0.18;-0.35;0.07;-0.28;355.82;13.34;-25.00;1.04;-95.39;-78.19;5.71 
8.044;-1.02;-0.07;-0.13;-0.42;-1.25;0.35;352.83;9.53;-24.00;1.03;-95.35;-78.26;5.68 
8.074;-1.04;-0.04;-0.14;-0.14;0.97;0.63;354.83;10.48;-28.00;1.05;-95.35;-78.32;5.67 
8.104;-1.02;-0.04;-0.15;-0.35;1.11;-0.21;354.83;11.44;-24.00;1.03;-95.31;-78.33;5.64 
8.133;-1.02;-0.06;-0.13;-0.14;0.77;-0.21;356.82;12.39;-27.00;1.03;-95.28;-78.36;5.61 
8.163;-1.02;-0.06;-0.14;-0.28;0.90;0.00;356.82;10.48;-28.00;1.03;-95.23;-78.40;5.56 
8.193;-1.02;-0.04;-0.12;0.00;1.18;0.00;357.82;13.34;-27.00;1.03;-95.18;-78.44;5.51 
8.223;-1.03;-0.07;-0.14;-0.42;0.90;0.35;358.81;10.48;-30.00;1.04;-95.14;-78.47;5.47 
8.253;-1.03;-0.03;-0.13;-0.35;0.14;0.21;357.82;14.29;-24.00;1.04;-95.12;-78.49;5.45 
8.283;-1.03;-0.04;-0.14;-0.14;0.83;0.07;354.83;11.44;-26.00;1.04;-95.08;-78.51;5.42 
8.313;-1.05;-0.05;-0.16;-0.07;1.25;0.00;357.82;13.34;-28.00;1.06;-95.05;-78.58;5.39 
8.344;-1.07;-0.06;-0.13;-0.14;1.25;0.07;357.82;14.29;-26.00;1.08;-95.02;-78.59;5.36 
8.374;-1.02;-0.07;-0.18;-0.07;1.18;0.56;355.82;12.39;-26.00;1.04;-94.99;-78.59;5.33 
8.403;-1.04;-0.05;-0.15;-0.14;0.28;0.14;354.83;11.44;-26.00;1.05;-94.97;-78.59;5.31 
8.433;-1.03;-0.04;-0.16;-0.14;-1.32;-0.07;355.82;13.34;-23.00;1.04;-94.94;-78.64;5.28 
8.463;-1.03;-0.03;-0.17;0.14;0.28;0.00;354.83;13.34;-26.00;1.04;-94.89;-78.69;5.23 
8.493;-1.03;-0.06;-0.16;0.21;0.28;-0.35;355.82;12.39;-26.00;1.04;-94.85;-78.75;5.20 
8.523;-1.03;-0.06;-0.13;0.00;-0.21;-0.07;355.82;10.48;-28.00;1.04;-94.82;-78.81;5.16 
8.554;-1.03;-0.04;-0.16;-0.07;-0.49;-0.35;356.82;13.34;-23.00;1.04;-94.74;-78.87;5.09 
8.584;-1.03;-0.04;-0.14;-0.21;-1.39;-0.14;354.83;13.34;-26.00;1.04;-94.71;-78.93;5.05 
8.614;-1.05;-0.06;-0.14;-0.28;-0.07;-0.42;356.82;14.29;-25.00;1.06;-94.67;-79.01;5.01 
8.644;-1.02;-0.05;-0.11;-0.77;0.83;0.28;357.82;11.44;-25.00;1.03;-94.63;-79.06;4.97 
8.673;-1.02;-0.06;-0.13;-0.28;-0.14;-0.28;354.83;12.39;-27.00;1.03;-94.57;-79.10;4.91 
8.703;-1.03;-0.06;-0.14;-0.49;1.11;0.07;357.82;11.44;-27.00;1.04;-94.53;-79.14;4.87 
8.733;-1.02;-0.05;-0.14;-0.28;0.00;-0.35;355.82;13.34;-25.00;1.03;-94.50;-79.17;4.85 
8.763;-1.02;-0.06;-0.14;0.07;-0.77;0.56;354.83;12.39;-27.00;1.03;-94.47;-79.23;4.81 
8.793;-1.02;-0.07;-0.18;0.21;0.56;0.42;357.82;11.44;-27.00;1.04;-94.44;-79.26;4.79 
8.822;-1.02;-0.03;-0.15;0.21;-0.63;-0.28;357.82;14.29;-26.00;1.03;-94.42;-79.29;4.77 
8.853;-1.03;-0.06;-0.11;-0.21;-1.04;-0.14;352.83;14.29;-29.00;1.04;-94.37;-79.37;4.72 
8.883;-1.02;-0.06;-0.11;-0.42;0.07;-0.07;356.82;13.34;-30.00;1.03;-94.32;-79.45;4.66 
8.913;-1.02;-0.04;-0.14;-0.63;1.25;0.35;357.82;12.39;-27.00;1.03;-94.30;-79.47;4.64 
8.943;-1.00;-0.06;-0.14;-0.14;0.97;-0.35;354.83;14.29;-28.00;1.01;-94.26;-79.49;4.61 
8.972;-1.02;-0.05;-0.15;-0.07;0.49;-0.07;358.81;13.34;-28.00;1.03;-94.23;-79.48;4.58 
9.002;-1.05;-0.06;-0.11;0.07;-0.14;-0.77;350.84;12.39;-30.00;1.06;-94.19;-79.53;4.55 
9.032;-1.03;-0.06;-0.16;0.07;-0.42;-0.49;354.83;10.48;-29.00;1.04;-94.14;-79.57;4.50 
9.061;-1.05;-0.06;-0.14;-0.28;0.21;-0.49;356.82;11.44;-28.00;1.06;-94.09;-79.63;4.44 
9.091;-1.03;-0.04;-0.09;0.00;0.83;-0.63;359.81;11.44;-29.00;1.03;-94.03;-79.68;4.38 
9.121;-1.02;-0.06;-0.11;-0.21;0.63;-0.14;355.82;11.44;-30.00;1.03;-93.96;-79.73;4.32 
9.152;-1.02;-0.06;-0.10;-0.28;0.63;0.28;353.83;10.48;-27.00;1.03;-93.92;-79.76;4.28 
9.182;-1.04;-0.04;-0.14;-0.42;1.11;0.14;355.82;11.44;-27.00;1.05;-93.87;-79.77;4.23 
9.212;-1.02;-0.05;-0.15;-0.21;-0.14;0.21;355.82;12.39;-28.00;1.03;-93.82;-79.79;4.19 
9.241;-1.02;-0.05;-0.14;0.07;0.00;0.21;355.82;12.39;-27.00;1.03;-93.80;-79.85;4.16 
9.271;-1.03;-0.02;-0.14;-0.28;-0.07;-0.14;356.82;12.39;-27.00;1.04;-93.76;-79.88;4.13 
9.301;-1.03;-0.06;-0.15;-0.21;-0.21;-0.21;354.83;13.34;-30.00;1.04;-93.73;-79.93;4.09 
9.331;-1.04;-0.06;-0.12;-0.14;1.39;-0.35;357.82;13.34;-28.00;1.05;-93.67;-80.01;4.04 
9.362;-1.02;-0.05;-0.18;-0.35;0.90;-0.28;354.83;11.44;-27.00;1.04;-93.63;-80.02;3.99 
9.391;-1.02;-0.06;-0.12;-0.21;0.35;-0.28;354.83;13.34;-27.00;1.03;-93.57;-80.06;3.94 
9.421;-1.03;-0.03;-0.10;-0.14;0.77;0.42;357.82;12.39;-26.00;1.04;-93.53;-80.10;3.90 
9.452;-1.02;-0.05;-0.13;-0.14;0.77;0.07;357.82;12.39;-29.00;1.03;-93.50;-80.13;3.87 
9.482;-1.02;-0.06;-0.14;-0.21;0.63;0.42;356.82;11.44;-30.00;1.03;-93.47;-80.14;3.85 
9.512;-1.03;-0.05;-0.14;-0.21;0.63;0.00;355.82;13.34;-26.00;1.04;-93.47;-80.17;3.84 
9.542;-1.03;-0.03;-0.15;-0.35;0.97;-0.07;356.82;11.44;-29.00;1.04;-93.41;-80.19;3.78 
9.572;-1.02;-0.03;-0.16;-0.07;0.07;0.56;355.82;12.39;-28.00;1.03;-93.41;-80.21;3.78 
9.602;-1.05;-0.05;-0.13;-0.42;0.28;-0.28;354.83;12.39;-29.00;1.06;-93.36;-80.24;3.73 
9.632;-1.03;-0.04;-0.13;-0.42;1.74;0.07;357.82;12.39;-28.00;1.04;-93.32;-80.28;3.70 
9.663;-1.03;-0.05;-0.14;-0.42;1.25;-0.42;353.83;13.34;-28.00;1.04;-93.27;-80.28;3.65 
9.692;-1.05;-0.06;-0.09;-0.35;-0.21;-0.14;358.81;11.44;-27.00;1.06;-93.22;-80.31;3.61 
9.722;-1.03;-0.06;-0.14;-0.07;1.53;-0.14;356.82;13.34;-28.00;1.04;-93.19;-80.33;3.58 
9.753;-1.02;-0.07;-0.14;-0.35;1.04;0.21;352.83;12.39;-28.00;1.03;-93.15;-80.35;3.54 
9.783;-1.03;-0.04;-0.13;-0.07;0.49;-0.21;354.83;10.48;-25.00;1.04;-93.13;-80.38;3.52 
9.813;-1.04;-0.06;-0.10;-0.28;-0.14;0.14;354.83;12.39;-27.00;1.05;-93.10;-80.43;3.49 
9.843;-1.02;-0.06;-0.14;-0.35;0.14;0.14;354.83;10.48;-30.00;1.03;-93.09;-80.44;3.48 
9.874;-1.02;-0.06;-0.11;0.07;-0.97;0.07;357.82;13.34;-29.00;1.03;-93.05;-80.50;3.44 
9.904;-1.04;-0.07;-0.13;-0.07;0.07;0.28;354.83;15.25;-29.00;1.05;-93.03;-80.56;3.42 
9.934;-1.02;-0.04;-0.18;-0.42;-1.25;-0.56;353.83;13.34;-31.00;1.04;-93.01;-80.60;3.39 
9.964;-1.02;-0.07;-0.12;-0.56;-2.50;-0.63;354.83;14.29;-29.00;1.03;-92.95;-80.71;3.33 
9.994;-1.01;-0.06;-0.13;-0.21;1.11;-0.83;355.82;13.34;-31.00;1.02;-92.89;-80.81;3.27 
10.024;-1.06;-0.06;-0.18;0.63;-0.21;-1.04;354.83;12.39;-28.00;1.08;-92.83;-80.84;3.21 
10.054;-1.02;-0.06;-0.13;0.42;-2.71;-0.63;356.82;13.34;-28.00;1.03;-92.78;-80.94;3.15 
10.084;-0.98;-0.05;-0.09;-0.14;1.95;0.07;355.82;17.15;-27.00;0.99;-92.71;-81.02;3.09 
10.114;-1.05;-0.04;-0.14;-0.56;0.97;-0.28;357.82;15.25;-32.00;1.06;-92.68;-81.00;3.05 
10.143;-1.03;-0.04;-0.08;-0.83;-0.70;-0.83;354.83;10.48;-28.00;1.03;-92.62;-81.06;3.00 
10.174;-1.03;-0.06;-0.07;-0.56;2.09;-0.07;355.82;13.34;-29.00;1.03;-92.55;-81.11;2.94 
10.204;-1.05;-0.06;-0.14;-0.83;1.95;-0.21;352.83;13.34;-29.00;1.06;-92.52;-81.08;2.90 
10.234;-1.02;-0.05;-0.14;-0.56;0.42;-0.07;352.83;12.39;-29.00;1.03;-92.47;-81.08;2.87 
10.265;-1.04;-0.06;-0.12;-0.56;1.39;0.35;356.82;13.34;-32.00;1.05;-92.44;-81.09;2.83 
10.294;-1.02;-0.07;-0.13;-0.42;0.56;0.07;356.82;11.44;-29.00;1.03;-92.40;-81.08;2.80 
10.324;-1.02;-0.06;-0.13;-0.14;0.35;0.07;359.81;14.29;-29.00;1.03;-92.37;-81.11;2.78 
10.354;-1.03;-0.02;-0.10;-0.35;1.11;0.42;353.83;9.53;-30.00;1.04;-92.34;-81.17;2.74 
10.384;-1.02;-0.06;-0.14;-0.21;0.00;-0.28;355.82;15.25;-28.00;1.03;-92.32;-81.19;2.72 
10.414;-1.02;-0.04;-0.14;0.00;-0.07;-0.14;354.83;11.44;-28.00;1.03;-92.29;-81.23;2.69 
10.444;-1.02;-0.05;-0.14;0.07;0.28;-0.07;353.83;11.44;-28.00;1.03;-92.26;-81.28;2.66 
10.475;-1.06;-0.06;-0.14;0.21;0.56;-0.14;356.82;14.29;-29.00;1.07;-92.21;-81.30;2.61 
10.505;-1.02;-0.07;-0.13;0.00;0.21;0.07;351.83;12.39;-30.00;1.03;-92.16;-81.32;2.56 
10.535;-1.05;-0.04;-0.13;-0.35;0.21;-0.28;350.84;10.48;-30.00;1.06;-92.12;-81.34;2.52 
10.564;-1.02;-0.06;-0.14;-0.56;-0.56;0.28;356.82;14.29;-27.00;1.03;-92.07;-81.40;2.47 
10.594;-1.04;-0.04;-0.11;-0.56;0.97;0.14;355.82;14.29;-29.00;1.05;-92.04;-81.45;2.44 
10.624;-1.03;-0.05;-0.13;-0.49;-0.14;0.00;353.83;14.29;-27.00;1.04;-92.00;-81.47;2.40 
10.654;-1.05;-0.04;-0.12;-0.35;0.97;0.21;355.82;11.44;-28.00;1.06;-92.03;-81.47;2.43 
10.685;-1.04;-0.06;-0.14;0.00;0.28;-0.07;356.82;13.34;-28.00;1.05;-91.99;-81.48;2.39 
10.715;-1.02;-0.05;-0.13;-0.28;-0.42;-0.42;358.81;13.34;-26.00;1.03;-91.95;-81.53;2.35 
10.744;-1.04;-0.06;-0.12;-0.42;1.11;-0.14;353.83;12.39;-31.00;1.05;-91.90;-81.56;2.30 
10.775;-1.03;-0.06;-0.11;-0.14;0.07;-0.21;354.83;13.34;-27.00;1.04;-91.86;-81.57;2.26 
10.805;-1.03;-0.05;-0.16;-0.63;0.28;0.21;353.83;12.39;-26.00;1.04;-91.81;-81.59;2.21 
10.835;-1.03;-0.08;-0.14;-0.42;0.35;0.14;352.83;10.48;-29.00;1.04;-91.76;-81.61;2.17 
10.865;-1.02;-0.03;-0.14;-0.21;0.63;0.14;355.82;14.29;-27.00;1.03;-91.75;-81.62;2.15 
10.895;-1.02;-0.03;-0.14;-0.21;0.83;0.35;355.82;12.39;-31.00;1.03;-91.72;-81.64;2.12 
10.924;-1.04;-0.05;-0.14;-0.21;0.70;0.28;356.82;12.39;-29.00;1.05;-91.69;-81.63;2.10 
10.954;-1.02;-0.03;-0.16;-0.14;0.97;0.00;355.82;10.48;-30.00;1.03;-91.66;-81.64;2.07 
10.985;-1.02;-0.06;-0.14;-0.77;0.49;-0.07;354.83;13.34;-28.00;1.03;-91.62;-81.65;2.03 
11.015;-1.04;-0.05;-0.14;-0.35;-0.77;0.07;357.82;10.48;-30.00;1.05;-91.59;-81.69;2.00 
11.045;-1.03;-0.07;-0.10;-0.21;0.83;-0.21;353.83;11.44;-30.00;1.04;-91.55;-81.72;1.96 
11.076;-1.03;-0.07;-0.17;-0.35;1.11;0.14;353.83;13.34;-29.00;1.05;-91.51;-81.72;1.92 
11.106;-1.05;-0.03;-0.14;-0.42;0.14;-0.35;361.80;15.25;-29.00;1.06;-91.47;-81.73;1.89 
11.136;-1.02;-0.06;-0.12;-0.35;0.83;-0.28;354.83;11.44;-31.00;1.03;-91.42;-81.76;1.84 
11.166;-1.02;-0.06;-0.15;-0.42;0.56;-0.07;353.83;13.34;-28.00;1.03;-91.39;-81.77;1.81 
11.197;-1.02;-0.05;-0.13;-0.49;0.21;0.21;355.82;13.34;-30.00;1.03;-91.36;-81.80;1.78 
11.227;-1.02;-0.06;-0.12;-0.28;0.21;0.14;357.82;15.25;-27.00;1.03;-91.33;-81.82;1.75 
11.256;-1.02;-0.05;-0.12;-0.49;0.07;0.14;354.83;13.34;-30.00;1.03;-91.31;-81.84;1.72 
11.286;-1.02;-0.07;-0.15;-0.07;0.07;-0.21;356.82;14.29;-28.00;1.03;-91.28;-81.89;1.70 
11.316;-1.02;-0.05;-0.10;-0.35;0.97;-0.35;356.82;12.39;-26.00;1.03;-91.24;-81.93;1.65 
11.346;-1.03;-0.04;-0.13;0.00;0.77;-0.07;353.83;10.48;-28.00;1.04;-91.21;-81.93;1.63 
11.376;-1.02;-0.06;-0.13;0.00;0.97;-0.07;353.83;11.44;-27.00;1.03;-91.17;-81.94;1.58 
11.405;-1.02;-0.09;-0.16;-0.35;1.18;-0.21;354.83;9.53;-30.00;1.04;-91.13;-81.94;1.54 
11.435;-1.02;-0.05;-0.16;-0.42;0.21;0.21;355.82;11.44;-29.00;1.03;-91.10;-81.97;1.52 
11.465;-1.02;-0.07;-0.12;-0.14;-1.18;-0.21;356.82;13.34;-30.00;1.03;-91.06;-82.01;1.48 
11.496;-1.02;-0.05;-0.15;-0.28;0.70;0.21;353.83;15.25;-29.00;1.03;-91.03;-82.08;1.44 
11.526;-1.03;-0.03;-0.12;-0.21;-0.07;0.00;351.83;13.34;-30.00;1.04;-91.00;-82.12;1.41 
11.556;-1.05;-0.06;-0.11;-0.35;0.28;-0.42;354.83;12.39;-29.00;1.06;-90.96;-82.15;1.37 
11.587;-1.03;-0.06;-0.11;-0.14;0.35;-0.28;354.83;13.34;-31.00;1.04;-90.91;-82.19;1.32 
11.616;-1.04;-0.05;-0.17;-0.21;0.70;-0.56;353.83;11.44;-32.00;1.05;-90.88;-82.21;1.29 
11.646;-1.03;-0.04;-0.13;-0.42;0.70;-0.07;354.83;15.25;-30.00;1.04;-90.84;-82.23;1.25 
11.676;-1.02;-0.06;-0.10;-0.21;0.63;0.07;355.82;10.48;-29.00;1.03;-90.81;-82.25;1.22 
11.706;-1.03;-0.06;-0.14;-0.14;0.07;-0.14;352.83;10.48;-33.00;1.04;-90.77;-82.24;1.18 
11.736;-1.02;-0.06;-0.10;-0.07;-0.14;-0.14;355.82;11.44;-27.00;1.03;-90.75;-82.28;1.16 
11.766;-1.03;-0.05;-0.14;-0.28;0.63;0.00;356.82;12.39;-29.00;1.04;-90.72;-82.29;1.12 
11.797;-1.02;-0.06;-0.14;-0.07;-0.28;0.14;355.82;13.34;-30.00;1.03;-90.68;-82.32;1.09 
11.827;-1.04;-0.05;-0.12;0.00;-0.42;-0.35;354.83;11.44;-31.00;1.05;-90.65;-82.34;1.06 
11.857;-1.00;-0.06;-0.13;-0.07;0.77;-0.14;352.83;14.29;-29.00;1.01;-90.61;-82.38;1.02 
11.887;-1.02;-0.06;-0.13;-0.63;4.94;-0.35;355.82;12.39;-31.00;1.03;-90.55;-82.34;0.96 
11.917;-1.02;-0.05;-0.15;-0.28;1.60;-0.49;353.83;14.29;-25.00;1.03;-90.50;-82.23;0.92 
11.947;-1.06;-0.07;-0.14;-0.14;0.63;0.28;352.83;12.39;-32.00;1.07;-90.47;-82.25;0.89 
11.976;-1.02;-0.06;-0.14;-0.49;3.69;0.56;355.82;14.29;-26.00;1.03;-90.46;-82.23;0.88 
12.006;-1.03;-0.05;-0.13;-0.63;3.76;0.14;350.84;13.34;-29.00;1.04;-90.46;-82.14;0.89 
12.036;-1.05;-0.05;-0.16;-0.49;1.81;-0.35;357.82;12.39;-27.00;1.06;-90.43;-82.07;0.87 
12.066;-1.02;-0.05;-0.18;-0.28;-0.83;-0.83;354.83;12.39;-28.00;1.04;-90.43;-82.07;0.87 
12.097;-1.03;-0.04;-0.14;-0.35;-1.32;-1.39;352.83;11.44;-25.00;1.04;-90.38;-82.12;0.82 
12.126;-1.02;-0.05;-0.12;-0.83;-1.39;-1.88;355.82;17.15;-31.00;1.03;-90.32;-82.18;0.76 
12.156;-1.04;-0.05;-0.13;-0.97;-0.07;-2.09;358.81;12.39;-26.00;1.05;-90.25;-82.24;0.69 
12.186;-1.01;-0.08;-0.14;-0.77;0.35;-1.88;350.84;12.39;-27.00;1.02;-90.15;-82.27;0.59 
12.216;-1.02;-0.05;-0.15;-0.70;-0.21;-2.57;353.83;12.39;-27.00;1.03;-90.04;-82.29;0.48 
12.246;-1.02;-0.07;-0.14;-0.83;-2.71;-2.16;354.83;15.25;-29.00;1.03;-89.94;-82.35;0.38 
12.276;-1.02;-0.05;-0.12;-0.70;-2.16;-1.39;352.83;14.29;-29.00;1.03;-89.85;-82.49;0.28 
12.307;-1.06;-0.07;-0.11;-0.56;0.56;-1.53;351.83;15.25;-31.00;1.07;-89.78;-82.58;0.20 
12.336;-1.04;-0.06;-0.16;-0.42;-0.21;-1.67;354.83;14.29;-31.00;1.05;-89.70;-82.59;0.12 
12.365;-1.02;-0.06;-0.16;-0.83;-0.77;-0.77;349.84;14.29;-32.00;1.03;-89.62;-82.60;0.04 
12.396;-1.02;-0.07;-0.14;-0.97;-0.63;0.00;350.84;14.29;-29.00;1.03;-89.55;-82.65;-0.02 
12.426;-1.05;-0.06;-0.12;-0.56;-1.60;0.35;352.83;17.15;-30.00;1.06;-89.53;-82.69;-0.04 
12.456;-1.02;-0.06;-0.10;-0.07;-0.63;0.63;353.83;16.20;-31.00;1.03;-89.52;-82.76;-0.06 
12.486;-1.02;-0.04;-0.10;-0.21;0.14;0.56;352.83;15.25;-33.00;1.03;-89.52;-82.78;-0.06 
12.516;-1.02;-0.06;-0.12;-0.49;0.21;-0.63;350.84;13.34;-31.00;1.03;-89.49;-82.79;-0.08 
12.546;-1.05;-0.06;-0.15;-0.28;-0.83;-0.56;353.83;15.25;-33.00;1.06;-89.47;-82.82;-0.11 
12.576;-1.02;-0.07;-0.10;-0.28;-0.90;-0.49;350.84;13.34;-30.00;1.03;-89.43;-82.87;-0.15 
12.606;-1.02;-0.05;-0.10;-0.42;1.32;-1.11;350.84;13.34;-31.00;1.03;-89.37;-82.89;-0.21 
12.635;-1.04;-0.06;-0.14;-0.35;2.09;-1.74;351.83;12.39;-33.00;1.05;-89.30;-82.86;-0.28 
12.665;-1.04;-0.07;-0.14;0.21;-2.30;-0.97;350.84;13.34;-33.00;1.05;-89.22;-82.85;-0.36 
12.696;-1.02;-0.07;-0.09;-0.28;-1.95;-0.77;351.83;15.25;-35.00;1.03;-89.17;-82.96;-0.41 
12.726;-1.01;-0.07;-0.09;-0.70;1.39;-0.42;351.83;12.39;-33.00;1.02;-89.15;-82.99;-0.44 
12.756;-1.03;-0.10;-0.12;-0.35;-0.97;-0.21;349.84;14.29;-31.00;1.04;-89.10;-83.01;-0.48 
12.786;-1.02;-0.06;-0.11;-0.14;-1.11;0.21;352.83;15.25;-36.00;1.03;-89.07;-83.07;-0.52 
12.816;-1.02;-0.06;-0.14;-0.63;1.60;0.77;346.85;15.25;-30.00;1.03;-89.05;-83.08;-0.54 
12.845;-1.02;-0.06;-0.14;-1.32;0.35;0.14;350.84;14.29;-34.00;1.03;-89.06;-83.07;-0.52 
12.875;-1.04;-0.05;-0.13;-0.97;0.56;0.28;350.84;14.29;-33.00;1.05;-89.05;-83.08;-0.53 
12.906;-1.05;-0.04;-0.10;-0.97;1.39;-0.42;348.84;17.15;-32.00;1.06;-89.02;-83.07;-0.55 
12.936;-1.03;-0.07;-0.14;-0.77;-0.28;-1.11;353.83;17.15;-34.00;1.04;-88.98;-83.05;-0.59 
12.966;-1.02;-0.01;-0.13;-0.49;-1.32;-0.77;349.84;16.20;-35.00;1.03;-88.92;-83.07;-0.65 
12.996;-1.02;-0.07;-0.10;-0.35;-0.77;-0.83;350.84;16.20;-32.00;1.03;-88.88;-83.11;-0.69 
13.026;-1.03;-0.06;-0.14;-0.77;-1.88;-1.32;349.84;13.34;-32.00;1.04;-88.84;-83.16;-0.73 
13.055;-1.02;-0.06;-0.13;-1.60;-2.30;-2.23;345.85;14.29;-35.00;1.03;-88.78;-83.23;-0.80 
13.085;-1.02;-0.06;-0.15;-1.60;-2.16;-2.37;348.84;15.25;-32.00;1.03;-88.68;-83.29;-0.90 
13.115;-1.02;-0.10;-0.12;-0.90;-2.71;-1.74;350.84;15.25;-34.00;1.03;-88.58;-83.36;-1.00 
13.145;-1.03;-0.06;-0.14;-0.35;-2.78;-1.25;348.84;20.01;-41.00;1.04;-88.49;-83.42;-1.10 
13.175;-1.02;-0.06;-0.08;-0.21;-1.88;-0.83;348.84;13.34;-37.00;1.02;-88.44;-83.51;-1.15 
13.206;-1.02;-0.09;-0.07;-0.07;0.07;-1.46;347.85;15.25;-37.00;1.03;-88.36;-83.57;-1.24 
13.236;-1.02;-0.08;-0.11;-0.35;1.46;-0.97;347.85;14.29;-42.00;1.03;-88.29;-83.56;-1.31 
13.266;-1.03;-0.07;-0.10;-0.49;-0.35;-0.83;345.85;16.20;-36.00;1.04;-88.23;-83.55;-1.36 
13.296;-1.02;-0.07;-0.10;-0.70;0.49;-0.35;348.84;16.20;-39.00;1.03;-88.18;-83.58;-1.41 
13.326;-1.02;-0.08;-0.10;-0.56;1.46;0.00;347.85;18.11;-36.00;1.03;-88.16;-83.58;-1.44 
13.356;-1.03;-0.08;-0.13;-0.63;0.63;-0.07;347.85;16.20;-38.00;1.04;-88.12;-83.56;-1.46 
13.385;-1.01;-0.08;-0.10;-0.35;0.90;0.07;349.84;16.20;-39.00;1.02;-88.09;-83.57;-1.50 
13.416;-1.02;-0.09;-0.10;-0.49;1.11;0.28;344.86;14.29;-38.00;1.03;-88.06;-83.57;-1.52 
13.446;-1.02;-0.06;-0.10;-0.35;1.18;0.07;349.84;17.15;-36.00;1.03;-88.05;-83.55;-1.53 
13.476;-1.02;-0.08;-0.10;-0.07;0.63;0.49;346.85;16.20;-37.00;1.03;-88.02;-83.53;-1.56 
13.506;-1.02;-0.07;-0.13;-0.28;0.42;0.63;347.85;14.29;-36.00;1.03;-88.02;-83.52;-1.56 
13.536;-1.02;-0.06;-0.09;0.00;0.70;0.21;345.85;15.25;-35.00;1.03;-88.03;-83.54;-1.55 
13.566;-1.03;-0.08;-0.11;-0.70;2.16;0.28;348.84;17.15;-36.00;1.04;-88.01;-83.51;-1.56 
13.596;-1.04;-0.07;-0.10;-0.42;1.39;-0.14;347.85;17.15;-38.00;1.05;-87.99;-83.50;-1.58 
13.626;-1.06;-0.08;-0.14;-0.35;1.53;-0.97;348.84;16.20;-37.00;1.07;-87.95;-83.44;-1.61 
13.656;-1.04;-0.09;-0.13;-0.14;0.35;-0.83;347.85;16.20;-35.00;1.05;-87.91;-83.44;-1.65 
13.686;-1.02;-0.06;-0.14;-0.28;0.21;-0.56;345.85;16.20;-34.00;1.03;-87.86;-83.44;-1.70 
13.717;-1.02;-0.07;-0.08;-0.35;0.00;-0.56;348.84;15.25;-39.00;1.03;-87.84;-83.48;-1.72 
13.747;-1.02;-0.05;-0.12;-0.35;0.42;-0.35;346.85;16.20;-36.00;1.03;-87.81;-83.49;-1.76 
13.777;-1.02;-0.07;-0.11;-0.14;1.04;0.00;345.85;16.20;-38.00;1.03;-87.78;-83.48;-1.78 
13.808;-1.02;-0.06;-0.11;-0.28;1.32;-0.42;347.85;15.25;-36.00;1.03;-87.77;-83.47;-1.79 
13.838;-1.02;-0.07;-0.09;-0.42;0.77;-0.07;346.85;15.25;-40.00;1.03;-87.73;-83.46;-1.83 
13.868;-1.02;-0.08;-0.12;-0.35;1.04;0.07;344.86;17.15;-36.00;1.03;-87.70;-83.44;-1.85 
13.898;-1.02;-0.09;-0.13;0.00;0.70;-0.21;348.84;19.06;-35.00;1.03;-87.69;-83.45;-1.87 
13.929;-1.05;-0.07;-0.14;-0.35;0.49;0.28;343.86;15.25;-35.00;1.06;-87.66;-83.44;-1.90 
13.959;-1.06;-0.10;-0.12;0.00;0.97;0.14;350.84;17.15;-34.00;1.07;-87.61;-83.42;-1.94 
13.989;-1.02;-0.09;-0.13;-0.35;1.88;0.49;349.84;16.20;-37.00;1.03;-87.58;-83.40;-1.97 
14.020;-1.02;-0.06;-0.13;-0.07;0.49;0.35;348.84;13.34;-35.00;1.03;-87.58;-83.39;-1.97 
14.049;-1.03;-0.08;-0.10;-0.07;0.90;0.21;349.84;16.20;-32.00;1.04;-87.55;-83.38;-2.00 
14.079;-0.98;-0.03;-0.08;-0.14;1.11;0.14;345.85;18.11;-36.00;0.98;-87.53;-83.36;-2.01 
14.109;-1.03;-0.07;-0.13;-0.14;1.32;0.00;345.85;14.29;-37.00;1.04;-87.52;-83.35;-2.03 
14.139;-1.02;-0.09;-0.13;0.14;-0.07;0.21;349.84;16.20;-37.00;1.03;-87.51;-83.32;-2.03 
14.168;-1.03;-0.07;-0.10;0.07;0.42;0.42;345.85;16.20;-36.00;1.04;-87.50;-83.35;-2.04 
14.198;-1.04;-0.08;-0.08;0.00;2.43;0.00;347.85;17.15;-35.00;1.05;-87.48;-83.34;-2.07 
14.229;-1.06;-0.08;-0.14;0.42;2.37;-0.14;347.85;17.15;-34.00;1.07;-87.42;-83.27;-2.12 
14.259;-1.05;-0.07;-0.14;0.77;0.56;0.49;348.84;16.20;-34.00;1.06;-87.41;-83.25;-2.13 
14.289;-1.01;-0.11;-0.13;1.11;1.39;1.18;347.85;18.11;-37.00;1.02;-87.42;-83.27;-2.12 
14.320;-1.06;-0.10;-0.15;1.32;0.28;3.76;347.85;14.29;-37.00;1.08;-87.43;-83.25;-2.11 
14.350;-1.02;-0.11;-0.14;0.90;-4.38;7.93;349.84;15.25;-35.00;1.04;-87.53;-83.28;-2.02 
14.380;-0.99;-0.08;-0.14;-0.14;-5.63;6.12;351.83;10.48;-37.00;1.00;-87.75;-83.52;-1.83 
14.410;-0.96;-0.06;-0.13;2.16;2.71;2.23;353.83;12.39;-36.00;0.97;-87.94;-83.64;-1.64 
14.441;-1.07;-0.17;-0.20;3.27;-12.45;3.48;351.83;13.34;-36.00;1.10;-87.89;-83.62;-1.70 
