Time(s) acc_x(g) acc_y(g) acc_z(g) gyr_x(°/s) gyr_y(°/s) gyr_z(°/s) mag_x(G) mag_y(G) mag_z(G) SVM(g) yaw(°) pitch(°) roll(°)
0.000;0.11;0.01;0.90;-0.70;-3.13;-4.94;344.25;-284.96;-389.00;0.91;-125.64;8.64;1.10 
0.029;0.10;0.07;0.90;0.42;-4.38;-3.41;343.26;-289.74;-386.00;0.91;-125.59;8.74;1.11 
0.059;0.09;0.06;0.86;2.16;-6.54;-4.80;344.25;-286.87;-385.00;0.87;-125.52;8.88;1.17 
0.089;0.14;0.03;0.90;2.02;-3.76;0.21;344.25;-288.78;-384.00;0.91;-125.49;9.05;1.24 
0.120;0.12;0.04;0.90;1.60;-0.42;5.08;342.26;-289.74;-382.00;0.91;-125.64;9.12;1.27 
0.150;0.15;0.03;0.93;1.81;1.60;7.86;345.25;-290.69;-384.00;0.94;-125.90;9.14;1.27 
0.180;0.14;0.01;0.90;1.39;6.05;14.19;344.25;-287.82;-381.00;0.91;-126.29;9.05;1.25 
0.209;0.11;0.02;0.88;1.46;9.11;16.77;346.24;-290.69;-381.00;0.89;-126.82;8.83;1.22 
0.238;0.11;0.09;0.87;1.95;8.14;16.07;346.24;-293.56;-385.00;0.88;-127.40;8.56;1.22 
0.268;0.13;0.06;0.87;1.39;7.86;13.36;350.22;-291.65;-386.00;0.88;-127.91;8.33;1.25 
0.298;0.13;0.05;0.85;0.77;6.96;10.50;349.23;-291.65;-380.00;0.86;-128.33;8.12;1.29 
0.328;0.11;0.07;0.84;0.14;4.66;7.93;348.23;-291.65;-383.00;0.85;-128.68;7.96;1.33 
0.358;0.12;0.05;0.87;-0.83;2.92;6.96;348.23;-291.65;-385.00;0.88;-128.95;7.86;1.35 
0.388;0.14;0.06;0.86;-0.42;2.02;7.17;350.22;-291.65;-384.00;0.87;-129.20;7.81;1.33 
0.419;0.10;0.06;0.89;0.83;0.49;7.58;349.23;-291.65;-385.00;0.90;-129.47;7.78;1.35 
0.449;0.11;0.07;0.86;2.02;0.90;7.37;348.23;-291.65;-384.00;0.87;-129.75;7.75;1.41 
0.479;0.10;0.06;0.84;0.70;0.07;7.17;347.24;-290.69;-383.00;0.85;-130.00;7.77;1.48 
0.508;0.16;0.07;0.87;1.18;0.14;6.05;349.23;-293.56;-386.00;0.89;-130.23;7.81;1.53 
0.537;0.17;0.05;0.90;1.81;2.09;7.51;353.21;-295.47;-383.00;0.92;-130.46;7.84;1.58 
0.567;0.18;0.05;0.91;1.25;6.26;9.25;348.23;-294.52;-380.00;0.93;-130.75;7.78;1.62 
0.597;0.16;0.06;0.96;1.74;10.16;9.25;352.21;-295.47;-381.00;0.98;-131.07;7.61;1.69 
0.627;0.15;0.05;0.86;1.81;11.20;8.42;354.20;-295.47;-379.00;0.87;-131.40;7.32;1.77 
0.657;0.11;0.10;0.90;1.04;13.57;8.49;355.20;-293.56;-381.00;0.91;-131.72;7.00;1.83 
0.687;0.14;0.07;0.88;0.70;16.90;6.12;355.20;-290.69;-381.00;0.89;-132.00;6.57;1.89 
0.718;0.11;0.08;0.86;0.77;15.51;5.98;354.20;-288.78;-379.00;0.87;-132.25;6.09;1.95 
0.748;0.11;0.10;0.86;0.14;14.68;3.97;353.21;-284.96;-380.00;0.87;-132.46;5.65;2.00 
0.778;0.11;0.04;0.85;-0.90;13.50;4.38;354.20;-283.04;-380.00;0.86;-132.64;5.26;2.05 
0.808;0.08;0.06;0.88;-1.88;14.26;3.76;353.21;-282.09;-380.00;0.89;-132.81;4.85;2.05 
0.837;0.07;0.02;0.86;-1.95;14.12;5.22;353.21;-278.26;-380.00;0.86;-132.99;4.41;2.01 
0.866;0.07;0.03;0.90;-1.18;12.17;8.35;355.20;-281.13;-379.00;0.90;-133.20;4.01;1.97 
0.896;0.07;0.04;0.87;-0.77;10.64;10.99;354.20;-276.35;-381.00;0.87;-133.53;3.70;1.96 
0.926;0.09;0.06;0.88;-0.70;12.80;11.06;355.20;-275.39;-377.00;0.89;-133.89;3.36;1.98 
0.956;0.12;0.08;0.89;-0.70;13.01;10.16;357.19;-274.44;-378.00;0.90;-134.24;3.00;1.99 
0.986;0.14;0.14;0.90;-1.32;12.17;5.08;355.20;-271.57;-376.00;0.92;-134.51;2.70;2.07 
1.017;0.12;0.13;0.93;-1.32;17.74;-0.21;358.18;-272.53;-376.00;0.95;-134.61;2.37;2.16 
1.047;0.14;0.06;0.84;-1.81;19.41;-2.57;357.19;-266.79;-375.00;0.85;-134.60;1.89;2.20 
1.077;0.09;0.06;0.84;-2.16;16.83;-2.64;352.21;-262.01;-373.00;0.85;-134.56;1.44;2.21 
1.106;0.08;0.03;0.84;-2.02;8.14;5.77;354.20;-259.14;-374.00;0.84;-134.66;1.07;2.18 
1.136;0.08;0.12;1.07;-4.73;21.84;-2.50;351.22;-257.23;-371.00;1.08;-134.73;0.77;2.23 
1.166;0.05;0.08;0.84;-7.86;43.69;-3.62;355.20;-252.44;-374.00;0.85;-134.67;-0.19;2.12 
1.196;0.01;0.02;0.70;-8.83;40.00;1.81;350.22;-244.79;-373.00;0.70;-134.64;-1.43;1.95 
1.227;0.06;0.02;0.61;-15.23;31.86;5.77;347.24;-237.14;-371.00;0.61;-134.77;-2.45;1.64 
1.256;0.06;0.08;0.62;-9.81;28.38;2.71;350.22;-234.28;-368.00;0.63;-134.92;-3.26;1.31 
1.286;0.01;0.03;0.55;0.70;26.57;0.49;347.24;-231.41;-369.00;0.55;-134.93;-3.98;1.32 
1.317;-0.02;-0.03;0.54;-0.42;26.23;8.42;346.24;-223.76;-366.00;0.54;-135.03;-4.78;1.40 
1.347;-0.04;0.03;0.50;2.64;25.88;13.77;348.23;-221.85;-366.00;0.50;-135.34;-5.56;1.46 
1.377;-0.09;0.13;0.56;8.00;20.80;10.09;352.21;-216.11;-361.00;0.58;-135.71;-6.31;1.83 
1.407;-0.21;0.14;0.66;4.31;30.96;2.16;352.21;-216.11;-359.00;0.71;-135.87;-7.11;2.28 
1.437;-0.04;0.15;0.40;-5.77;58.43;-11.27;359.18;-207.50;-357.00;0.43;-135.68;-8.54;2.45 
1.467;0.09;0.12;0.13;1.74;70.33;-20.31;351.22;-192.20;-351.00;0.20;-135.08;-10.50;2.37 
1.497;0.24;0.11;0.00;8.35;40.00;-26.50;354.20;-181.68;-344.00;0.26;-134.36;-11.81;2.97 
1.528;0.31;0.02;0.07;-1.67;-44.38;-17.74;354.20;-176.90;-344.00;0.32;-133.73;-11.39;3.23 
1.558;0.14;-0.08;0.46;-14.89;-110.96;-13.84;351.22;-190.29;-348.00;0.49;-133.32;-9.04;2.84 
1.588;-0.33;-0.30;1.43;2.78;-117.63;24.70;351.22;-215.15;-361.00;1.50;-133.57;-5.37;2.44 
1.618;0.13;0.19;2.35;-0.97;56.35;12.03;355.20;-223.76;-358.00;2.36;-134.24;-3.73;2.59 
1.648;0.08;0.16;1.41;-7.51;165.50;-0.07;355.20;-206.55;-354.00;1.42;-134.32;-7.13;2.56 
1.678;-0.06;0.18;1.03;6.26;157.29;-16.49;353.21;-184.55;-342.00;1.05;-133.80;-12.08;2.58 
1.708;-6.07;-0.16;5.05;64.35;-21.22;62.47;357.19;-161.60;-330.00;7.90;-133.25;-15.28;3.06 
1.739;-0.16;0.91;2.60;136.56;332.17;-21.15;386.04;-125.27;-286.00;2.76;-129.03;-24.75;7.80 
1.769;0.25;1.06;1.46;-43.06;238.26;-53.84;389.03;-94.67;-257.00;1.82;-127.65;-32.28;7.65 
1.799;0.52;0.13;1.09;-12.24;190.12;-89.53;374.10;-66.94;-231.00;1.21;-124.13;-38.32;6.04 
1.830;0.24;0.03;0.69;-48.63;246.82;-36.38;355.20;-26.77;-185.00;0.73;-120.81;-44.26;4.16 
1.860;0.23;0.33;0.16;-33.88;262.05;-65.53;342.26;-8.61;-146.00;0.43;-116.82;-51.57;2.64 
1.890;0.43;0.28;-0.11;-23.65;247.65;-74.64;331.32;13.39;-107.00;0.52;-111.24;-59.13;0.67 
1.920;0.35;0.03;-0.34;-33.95;239.03;-80.00;315.40;22.95;-63.00;0.49;-104.99;-66.40;-1.33 
1.950;0.28;-0.10;-0.55;-17.88;208.97;-71.30;292.52;38.25;-2.00;0.63;-97.59;-73.47;-3.87 
1.980;0.15;-0.28;-0.76;-17.32;129.74;-47.30;278.59;35.38;31.00;0.82;-91.34;-78.23;-5.97 
2.010;-0.25;-0.81;-0.86;-12.52;47.79;-11.48;276.60;36.34;44.00;1.21;-87.35;-80.01;-7.48 
2.041;-1.80;-1.43;-1.50;-53.70;-101.98;81.53;278.59;33.47;48.00;2.74;-87.21;-80.50;-7.26 
2.071;-1.32;-0.34;-0.46;-47.72;-119.86;100.24;310.42;30.60;8.00;1.44;-92.42;-79.27;-4.68 
2.101;-1.12;0.30;-0.18;-36.24;-90.02;81.88;325.35;25.82;-14.00;1.17;-97.07;-77.63;-2.12 
2.131;-1.58;0.38;0.01;-28.66;-76.52;28.80;336.29;20.08;-29.00;1.63;-100.78;-75.50;-0.26 
2.160;-1.82;0.22;0.06;-11.83;25.46;-13.77;340.27;19.12;-40.00;1.83;-101.65;-74.62;-0.12 
2.190;-1.54;-0.09;-0.38;0.70;72.77;-42.85;339.28;23.91;-36.00;1.59;-99.50;-76.40;-0.83 
2.220;-1.53;-0.41;-0.65;-2.23;58.09;-26.57;323.36;30.60;-17.00;1.71;-96.36;-78.71;-2.00 
2.251;-1.54;-0.29;-0.55;-13.22;21.91;-5.36;324.35;32.51;-14.00;1.66;-94.34;-80.29;-2.67 
2.280;-1.62;-0.07;-0.26;-8.21;24.14;-3.41;322.36;34.42;-9.00;1.64;-93.49;-81.14;-2.80 
2.309;-1.57;-0.21;-0.34;-1.88;32.83;-2.43;320.37;35.38;-4.00;1.62;-92.51;-82.20;-2.88 
2.340;-1.44;-0.14;-0.38;2.50;16.35;0.42;320.37;34.42;3.00;1.50;-91.64;-83.19;-2.89 
2.370;-1.24;-0.08;-0.26;5.36;2.50;-4.10;319.38;33.47;6.00;1.27;-91.14;-83.77;-2.85 
2.400;-1.02;-0.08;-0.22;7.03;-5.98;-9.60;320.37;35.38;6.00;1.05;-90.77;-83.91;-2.98 
2.430;-0.89;-0.08;-0.18;7.10;-14.82;-8.77;316.39;36.34;7.00;0.91;-90.45;-83.77;-3.21 
2.459;-0.78;-0.06;-0.13;4.87;-34.92;-11.27;317.39;37.29;3.00;0.79;-90.37;-83.24;-3.48 
2.488;-0.97;-0.19;0.06;3.34;-51.97;-8.14;311.42;40.16;-7.00;0.99;-90.78;-82.09;-3.71 
2.518;-1.04;-0.27;0.26;1.81;-41.60;-1.25;314.40;38.25;-17.00;1.11;-91.35;-80.71;-3.90 
2.549;-1.11;-0.18;0.30;-2.57;-19.83;-0.21;313.41;39.21;-22.00;1.16;-91.83;-79.72;-3.95 
2.579;-1.04;-0.06;0.18;-1.53;-3.97;-2.37;314.40;40.16;-26.00;1.06;-91.95;-79.38;-3.96 
2.609;-0.98;-0.12;0.10;1.18;-5.15;-5.29;312.41;39.21;-26.00;0.99;-91.82;-79.29;-4.03 
2.640;-0.93;-0.17;0.10;0.07;-7.10;-0.42;310.42;39.21;-28.00;0.95;-91.67;-79.15;-4.13 
2.669;-0.94;-0.10;0.13;0.42;-7.72;2.16;309.43;37.29;-28.00;0.95;-91.72;-79.03;-4.06 
2.699;-0.96;-0.13;0.20;0.00;-7.86;2.78;312.41;36.34;-27.00;0.99;-91.82;-78.89;-3.96 
2.729;-0.98;-0.10;0.18;-0.63;-5.08;0.70;316.39;40.16;-34.00;1.00;-91.92;-78.75;-3.87 
2.759;-0.99;-0.10;0.15;-0.42;-0.83;-0.90;310.42;42.07;-33.00;1.01;-91.89;-78.69;-3.84 
2.788;-1.00;-0.16;0.14;0.14;-0.21;-0.63;312.41;36.34;-32.00;1.02;-91.78;-78.73;-3.84 
2.818;-0.99;-0.18;0.10;0.14;-0.14;0.35;312.41;40.16;-32.00;1.01;-91.67;-78.80;-3.82 
2.849;-0.97;-0.14;0.13;-1.04;1.46;0.42;312.41;40.16;-32.00;0.99;-91.55;-78.92;-3.80 
2.879;-0.98;-0.14;0.10;-1.32;2.37;0.35;315.40;37.29;-34.00;0.99;-91.41;-79.06;-3.78 
2.909;-0.99;-0.11;0.08;-1.25;1.74;0.14;314.40;39.21;-33.00;1.00;-91.27;-79.21;-3.77 
2.939;-0.99;-0.11;0.09;-0.56;1.11;0.49;312.41;37.29;-31.00;1.00;-91.14;-79.35;-3.75 
2.969;-1.00;-0.10;0.07;-0.49;0.63;0.28;311.42;36.34;-30.00;1.01;-91.03;-79.50;-3.72 
2.999;-1.02;-0.12;0.09;-0.56;0.42;0.14;310.42;38.25;-36.00;1.03;-90.92;-79.62;-3.70 
3.029;-0.99;-0.15;0.10;-0.83;0.21;0.28;311.42;39.21;-33.00;1.01;-90.83;-79.70;-3.67 
3.059;-0.99;-0.12;0.10;-0.97;0.35;0.21;314.40;38.25;-32.00;1.00;-90.73;-79.79;-3.67 
3.088;-0.98;-0.14;0.09;0.00;-0.49;-0.28;312.41;37.29;-33.00;0.99;-90.64;-79.88;-3.65 
3.118;-1.02;-0.09;0.10;-0.14;0.07;0.21;315.40;41.12;-30.00;1.03;-90.54;-79.96;-3.64 
3.149;-1.02;-0.15;0.13;0.56;-0.28;0.63;315.40;38.25;-32.00;1.04;-90.44;-80.05;-3.63 
3.179;-0.99;-0.13;0.14;0.42;0.97;0.49;314.40;35.38;-31.00;1.01;-90.36;-80.13;-3.61 
3.209;-1.00;-0.13;0.10;-0.42;1.11;0.49;313.41;39.21;-32.00;1.01;-90.29;-80.23;-3.58 
3.238;-1.02;-0.14;0.04;-0.56;1.18;0.07;313.41;39.21;-27.00;1.03;-90.20;-80.33;-3.56 
3.268;-0.99;-0.11;0.08;-0.83;0.97;-0.49;312.41;38.25;-31.00;1.00;-90.08;-80.44;-3.57 
3.298;-1.02;-0.11;0.11;-0.56;0.83;-0.21;314.40;38.25;-30.00;1.03;-89.99;-80.54;-3.57 
3.328;-0.99;-0.11;0.10;0.14;1.18;-0.70;313.41;35.38;-31.00;1.00;-89.89;-80.61;-3.58 
3.358;-0.97;-0.13;0.14;0.28;1.32;-1.04;310.42;39.21;-33.00;0.99;-89.77;-80.70;-3.59 
3.387;-1.00;-0.14;0.08;0.07;1.04;-0.56;312.41;36.34;-31.00;1.01;-89.66;-80.79;-3.61 
3.417;-1.01;-0.15;0.09;0.21;0.97;-0.35;313.41;39.21;-32.00;1.03;-89.52;-80.87;-3.65 
3.448;-0.99;-0.10;0.07;-0.35;0.07;0.21;315.40;40.16;-33.00;1.00;-89.44;-80.96;-3.64 
3.478;-1.00;-0.12;0.09;-0.21;0.07;-0.70;311.42;38.25;-32.00;1.01;-89.35;-81.01;-3.66 
3.508;-1.01;-0.13;0.10;-0.63;0.42;0.35;314.40;39.21;-29.00;1.02;-89.27;-81.08;-3.66 
3.537;-0.96;-0.12;0.10;-0.21;-0.49;-0.07;315.40;39.21;-31.00;0.97;-89.21;-81.17;-3.65 
3.567;-0.98;-0.12;0.06;-0.21;-0.21;-0.07;315.40;39.21;-31.00;0.99;-89.13;-81.21;-3.66 
3.597;-0.99;-0.12;0.08;-0.07;-0.49;0.77;312.41;38.25;-33.00;1.00;-89.08;-81.27;-3.64 
3.627;-0.98;-0.11;0.10;-0.21;-0.77;-0.42;314.40;39.21;-31.00;0.99;-89.02;-81.31;-3.64 
3.658;-1.01;-0.12;0.06;0.14;-0.90;-0.63;313.41;38.25;-28.00;1.02;-88.94;-81.35;-3.66 
3.687;-1.01;-0.11;0.12;-0.56;-1.11;-0.56;311.42;41.12;-30.00;1.02;-88.87;-81.40;-3.66 
3.717;-0.99;-0.14;0.14;-0.21;-1.04;-0.14;311.42;40.16;-30.00;1.01;-88.81;-81.41;-3.67 
3.748;-0.96;-0.15;0.10;-0.21;-0.49;0.00;311.42;37.29;-31.00;0.98;-88.76;-81.44;-3.67 
3.778;-0.99;-0.10;0.08;-0.07;-0.49;-0.42;311.42;39.21;-31.00;1.00;-88.71;-81.47;-3.66 
3.808;-0.98;-0.13;0.10;-0.28;-0.28;-0.56;311.42;36.34;-33.00;0.99;-88.65;-81.51;-3.67 
3.837;-1.00;-0.14;0.10;0.00;0.00;-0.28;312.41;40.16;-35.00;1.01;-88.57;-81.54;-3.69 
3.867;-1.02;-0.14;0.10;-0.21;0.28;0.21;314.40;41.12;-33.00;1.03;-88.49;-81.60;-3.71 
3.897;-0.98;-0.15;0.10;-0.42;0.00;0.07;315.40;41.12;-32.00;1.00;-88.44;-81.65;-3.72 
3.927;-0.98;-0.13;0.10;-0.42;0.07;0.63;314.40;40.16;-33.00;0.99;-88.39;-81.69;-3.71 
3.957;-0.98;-0.13;0.13;-0.21;0.35;0.35;311.42;38.25;-34.00;1.00;-88.34;-81.72;-3.71 
3.987;-1.00;-0.13;0.10;-0.35;-0.42;0.56;312.41;39.21;-32.00;1.01;-88.30;-81.78;-3.70 
4.017;-0.97;-0.14;0.06;-0.42;0.07;0.28;312.41;40.16;-34.00;0.98;-88.26;-81.83;-3.70 
4.048;-0.99;-0.12;0.10;0.07;0.21;0.28;315.40;39.21;-32.00;1.00;-88.22;-81.89;-3.69 
4.077;-1.00;-0.13;0.10;-0.21;0.63;0.42;312.41;38.25;-32.00;1.01;-88.18;-81.93;-3.68 
4.107;-1.00;-0.13;0.10;-0.63;0.63;0.56;315.40;38.25;-33.00;1.01;-88.14;-81.99;-3.67 
4.137;-1.01;-0.13;0.09;-0.21;0.70;0.42;314.40;39.21;-36.00;1.02;-88.10;-82.04;-3.67 
4.167;-1.00;-0.13;0.08;-0.35;0.42;-0.21;313.41;39.21;-29.00;1.01;-88.06;-82.08;-3.67 
4.197;-0.99;-0.12;0.10;-0.35;0.07;0.14;310.42;40.16;-32.00;1.00;-88.01;-82.11;-3.68 
4.226;-1.00;-0.12;0.10;-0.28;-0.07;-0.49;315.40;40.16;-31.00;1.01;-87.95;-82.13;-3.70 
4.257;-1.02;-0.14;0.09;-0.28;0.00;0.28;313.41;37.29;-32.00;1.03;-87.90;-82.19;-3.70 
4.287;-0.99;-0.14;0.09;-0.49;0.14;0.07;312.41;41.12;-33.00;1.00;-87.86;-82.23;-3.70 
4.317;-1.00;-0.11;0.10;-0.77;0.28;-0.49;314.40;38.25;-31.00;1.01;-87.82;-82.28;-3.70 
4.348;-1.00;-0.14;0.10;-1.04;0.49;-0.56;313.41;42.07;-29.00;1.01;-87.76;-82.31;-3.73 
4.378;-1.01;-0.11;0.08;-0.77;0.63;-1.46;314.40;41.12;-32.00;1.02;-87.69;-82.35;-3.76 
4.408;-1.01;-0.12;0.10;-0.28;0.49;-1.25;313.41;41.12;-32.00;1.02;-87.59;-82.38;-3.82 
4.438;-0.99;-0.13;0.09;-0.07;0.56;-2.09;311.42;40.16;-32.00;1.00;-87.48;-82.39;-3.89 
4.469;-1.01;-0.14;0.10;0.14;0.07;-0.90;310.42;39.21;-29.00;1.02;-87.39;-82.40;-3.95 
4.498;-0.96;-0.16;0.10;-0.49;-0.63;-0.70;309.43;41.12;-32.00;0.98;-87.32;-82.41;-3.99 
4.528;-1.00;-0.14;0.07;-0.77;-0.77;0.21;311.42;39.21;-33.00;1.01;-87.26;-82.41;-4.02 
4.559;-1.00;-0.14;0.08;-0.70;-1.60;-0.28;312.41;42.07;-34.00;1.01;-87.21;-82.40;-4.04 
4.589;-1.02;-0.11;0.06;-0.63;-2.57;0.77;310.42;36.34;-29.00;1.03;-87.18;-82.40;-4.05 
4.619;-1.02;-0.12;0.14;0.35;-3.34;0.56;312.41;38.25;-34.00;1.04;-87.16;-82.35;-4.05 
4.648;-1.02;-0.14;0.06;0.35;-3.20;0.35;308.43;43.03;-34.00;1.03;-87.16;-82.29;-4.05 
4.678;-1.01;-0.14;0.07;-0.21;-3.90;0.21;311.42;39.21;-35.00;1.02;-87.16;-82.22;-4.04 
4.708;-1.02;-0.14;0.10;0.42;-4.59;-0.49;312.41;39.21;-33.00;1.03;-87.14;-82.14;-4.05 
4.738;-1.02;-0.14;0.11;0.63;-5.77;0.56;309.43;41.12;-37.00;1.04;-87.11;-82.05;-4.06 
4.769;-1.00;-0.14;0.10;0.83;-6.19;0.97;308.43;39.21;-37.00;1.01;-87.12;-81.93;-4.05 
4.799;-1.02;-0.11;0.09;0.42;-7.79;0.35;308.43;37.29;-39.00;1.03;-87.15;-81.80;-4.02 
4.828;-0.99;-0.14;0.09;1.46;-9.18;-0.83;311.42;38.25;-40.00;1.00;-87.16;-81.62;-4.01 
4.859;-0.96;-0.10;0.14;1.74;-6.61;-0.35;311.42;39.21;-45.00;0.98;-87.13;-81.37;-4.04 
4.889;-0.98;-0.14;0.11;2.09;-5.22;-0.63;308.43;42.07;-44.00;1.00;-87.09;-81.21;-4.07 
4.919;-0.95;-0.15;0.16;0.97;-5.57;0.77;312.41;38.25;-45.00;0.97;-87.05;-81.07;-4.10 
4.949;-0.94;-0.11;0.17;-0.49;0.00;0.63;311.42;41.12;-47.00;0.96;-87.05;-80.97;-4.10 
4.979;-0.99;-0.10;0.14;-0.97;-0.97;0.00;313.41;41.12;-46.00;1.00;-87.04;-80.99;-4.08 
5.008;-0.98;-0.15;0.17;-0.56;-0.70;0.00;307.44;37.29;-46.00;1.01;-87.02;-80.95;-4.09 
5.038;-0.98;-0.08;0.14;-0.63;2.30;0.21;313.41;38.25;-44.00;0.99;-86.99;-80.96;-4.10 
5.069;-0.98;-0.10;0.10;-0.56;2.57;-1.67;315.40;39.21;-48.00;0.99;-86.94;-81.03;-4.12 
5.099;-1.01;-0.10;0.11;-0.42;0.77;-1.46;311.42;40.16;-46.00;1.02;-86.88;-81.04;-4.16 
5.129;-0.98;-0.14;0.10;0.00;1.88;-1.67;310.42;40.16;-44.00;0.99;-86.80;-81.07;-4.22 
5.158;-0.99;-0.14;0.11;0.35;1.25;-1.39;312.41;39.21;-43.00;1.01;-86.71;-81.10;-4.28 
5.188;-0.99;-0.15;0.10;0.14;-0.49;-0.42;308.43;39.21;-43.00;1.01;-86.63;-81.12;-4.34 
5.218;-0.98;-0.15;0.17;0.14;-0.56;-0.21;311.42;38.25;-41.00;1.01;-86.59;-81.13;-4.36 
5.248;-1.02;-0.16;0.09;-0.21;-1.11;0.70;311.42;42.07;-44.00;1.04;-86.54;-81.13;-4.39 
5.278;-0.99;-0.13;0.14;-0.56;-1.04;0.07;309.43;38.25;-43.00;1.01;-86.53;-81.10;-4.39 
5.307;-0.98;-0.14;0.13;-0.56;-0.07;0.56;308.43;41.12;-44.00;1.00;-86.51;-81.10;-4.39 
5.337;-0.98;-0.12;0.14;0.07;-0.49;-0.49;310.42;38.25;-45.00;1.00;-86.51;-81.09;-4.38 
5.368;-1.00;-0.11;0.12;0.00;0.42;-1.32;308.43;40.16;-46.00;1.01;-86.45;-81.08;-4.42 
5.398;-0.98;-0.13;0.14;0.21;0.35;-0.56;310.42;37.29;-43.00;1.00;-86.39;-81.08;-4.46 
5.428;-0.98;-0.14;0.13;0.00;2.09;-0.56;306.44;41.12;-44.00;1.00;-86.36;-81.11;-4.48 
5.458;-0.98;-0.14;0.10;0.14;1.25;-0.28;309.43;41.12;-40.00;0.99;-86.29;-81.14;-4.52 
5.488;-0.99;-0.15;0.12;-0.28;1.04;-1.18;308.43;40.16;-43.00;1.01;-86.22;-81.15;-4.58 
5.518;-0.99;-0.16;0.14;0.21;-0.42;-0.77;307.44;42.07;-43.00;1.01;-86.15;-81.16;-4.62 
5.548;-0.98;-0.13;0.17;0.14;-0.07;-0.28;311.42;42.07;-43.00;1.00;-86.12;-81.15;-4.64 
5.579;-0.97;-0.14;0.15;0.63;0.14;-0.63;310.42;38.25;-43.00;0.99;-86.06;-81.12;-4.68 
5.608;-0.98;-0.13;0.18;0.42;-0.14;-0.14;308.43;42.07;-45.00;1.00;-86.03;-81.12;-4.70 
5.638;-0.98;-0.16;0.12;0.14;0.21;-0.49;312.41;41.12;-44.00;1.00;-85.99;-81.12;-4.73 
5.669;-0.98;-0.14;0.14;-0.42;0.28;0.49;308.43;41.12;-43.00;1.00;-85.94;-81.11;-4.76 
5.699;-0.99;-0.14;0.13;-0.90;-0.07;-0.07;308.43;43.03;-45.00;1.01;-85.91;-81.09;-4.77 
5.729;-0.97;-0.10;0.14;-1.18;-0.14;-0.35;308.43;41.12;-43.00;0.99;-85.91;-81.10;-4.77 
5.758;-0.98;-0.13;0.13;-0.70;1.18;-0.90;308.43;40.16;-42.00;1.00;-85.88;-81.12;-4.79 
5.788;-1.02;-0.14;0.14;-0.21;0.42;-1.53;312.41;41.12;-43.00;1.04;-85.83;-81.11;-4.83 
5.818;-0.99;-0.15;0.12;0.14;0.35;-1.25;308.43;39.21;-41.00;1.01;-85.76;-81.07;-4.89 
5.848;-0.99;-0.16;0.10;-0.07;1.11;-1.18;310.42;41.12;-41.00;1.01;-85.68;-81.07;-4.95 
5.879;-1.01;-0.16;0.14;-0.42;0.63;-0.77;307.44;38.25;-44.00;1.03;-85.60;-81.06;-5.02 
5.908;-0.99;-0.15;0.09;-0.35;-0.21;0.70;310.42;43.03;-44.00;1.01;-85.55;-81.05;-5.06 
5.938;-0.99;-0.12;0.10;-0.63;0.00;0.35;309.43;41.12;-42.00;1.00;-85.54;-81.04;-5.05 
5.969;-1.01;-0.14;0.14;-0.56;0.07;-0.21;309.43;41.12;-43.00;1.03;-85.51;-81.05;-5.07 
5.999;-0.98;-0.14;0.13;0.14;-0.70;0.90;308.43;40.16;-41.00;1.00;-85.51;-81.04;-5.07 
6.028;-0.98;-0.15;0.14;0.35;0.00;-0.14;307.44;38.25;-40.00;1.00;-85.49;-81.03;-5.07 
6.058;-0.98;-0.14;0.15;0.07;-0.49;-0.35;310.42;40.16;-43.00;1.00;-85.47;-81.03;-5.08 
6.088;-0.99;-0.13;0.14;-0.07;0.07;-0.70;312.41;41.12;-44.00;1.01;-85.43;-81.02;-5.11 
6.118;-0.99;-0.16;0.11;-0.21;-0.42;0.14;311.42;39.21;-44.00;1.01;-85.40;-80.97;-5.14 
6.148;-0.98;-0.14;0.09;-0.42;-1.53;-0.83;306.44;40.16;-45.00;0.99;-85.39;-80.95;-5.14 
6.178;-0.98;-0.14;0.14;0.56;-1.60;-0.42;310.42;39.21;-47.00;1.00;-85.34;-80.88;-5.18 
6.208;-1.02;-0.15;0.11;1.46;-1.32;0.14;307.44;42.07;-46.00;1.04;-85.30;-80.86;-5.21 
6.238;-0.97;-0.15;0.13;0.56;-1.53;0.70;307.44;41.12;-43.00;0.99;-85.28;-80.82;-5.22 
6.268;-0.94;-0.16;0.14;0.97;-0.56;0.83;307.44;40.16;-45.00;0.96;-85.26;-80.78;-5.22 
6.298;-0.98;-0.14;0.16;0.56;0.07;0.35;303.46;39.21;-46.00;1.00;-85.25;-80.79;-5.22 
6.328;-1.00;-0.13;0.12;0.77;-0.35;1.04;307.44;40.16;-44.00;1.02;-85.26;-80.80;-5.20 
6.358;-0.98;-0.14;0.16;0.42;-0.21;1.04;310.42;42.07;-45.00;1.00;-85.28;-80.80;-5.17 
6.389;-0.96;-0.16;0.13;0.56;0.21;0.56;308.43;38.25;-44.00;0.98;-85.30;-80.81;-5.14 
6.419;-0.98;-0.12;0.14;0.49;0.07;0.77;306.44;42.07;-47.00;1.00;-85.31;-80.82;-5.13 
6.449;-0.97;-0.14;0.14;0.00;0.00;-0.14;309.43;37.29;-44.00;0.99;-85.30;-80.82;-5.13 
6.480;-0.98;-0.14;0.13;-0.42;0.35;-0.21;307.44;39.21;-46.00;1.00;-85.28;-80.81;-5.14 
6.510;-0.97;-0.13;0.12;0.00;0.70;0.14;308.43;39.21;-44.00;0.99;-85.25;-80.80;-5.16 
6.540;-0.98;-0.14;0.14;-0.63;0.63;0.14;311.42;43.03;-44.00;1.00;-85.24;-80.82;-5.17 
6.570;-0.99;-0.14;0.15;-0.49;0.70;-0.97;309.43;41.12;-48.00;1.01;-85.20;-80.81;-5.20 
6.599;-0.98;-0.14;0.14;-0.42;0.63;-0.70;306.44;41.12;-45.00;1.00;-85.15;-80.77;-5.25 
6.629;-0.96;-0.14;0.16;-0.42;1.25;-0.90;308.43;40.16;-44.00;0.98;-85.12;-80.76;-5.27 
6.659;-0.98;-0.14;0.13;-0.83;0.56;-0.77;308.43;41.12;-44.00;1.00;-85.07;-80.76;-5.31 
6.690;-0.98;-0.14;0.14;-0.42;0.70;0.14;308.43;40.16;-45.00;1.00;-85.03;-80.77;-5.35 
6.720;-1.00;-0.12;0.14;-0.28;-0.21;-0.70;308.43;43.03;-46.00;1.02;-84.99;-80.78;-5.39 
6.749;-0.98;-0.14;0.14;-0.21;0.49;-0.28;302.46;41.12;-46.00;1.00;-84.95;-80.76;-5.42 
6.780;-0.97;-0.14;0.10;-0.49;-0.07;-0.28;308.43;40.16;-44.00;0.99;-84.91;-80.74;-5.46 
6.810;-0.98;-0.13;0.14;-0.35;-0.14;-0.42;307.44;43.03;-46.00;1.00;-84.87;-80.70;-5.49 
6.840;-1.01;-0.12;0.13;-0.07;-0.14;-0.42;308.43;41.12;-44.00;1.03;-84.84;-80.68;-5.51 
6.870;-0.99;-0.14;0.13;0.07;0.70;-0.21;308.43;43.03;-45.00;1.01;-84.81;-80.65;-5.54 
6.899;-0.98;-0.15;0.11;-0.07;0.35;-0.14;308.43;42.07;-43.00;1.00;-84.77;-80.63;-5.58 
6.929;-0.98;-0.15;0.11;-0.49;0.00;-0.35;305.45;39.21;-45.00;1.00;-84.74;-80.63;-5.60 
6.959;-0.97;-0.17;0.14;-0.63;0.83;0.56;308.43;40.16;-44.00;0.99;-84.72;-80.65;-5.62 
6.990;-0.97;-0.15;0.15;-0.77;1.53;-0.28;307.44;39.21;-43.00;0.99;-84.69;-80.66;-5.64 
7.020;-0.99;-0.14;0.10;-0.97;2.57;-0.21;308.43;42.07;-43.00;1.00;-84.65;-80.67;-5.68 
7.049;-1.00;-0.14;0.14;-0.77;1.95;-0.14;305.45;40.16;-47.00;1.02;-84.62;-80.70;-5.71 
7.079;-0.99;-0.14;0.12;-0.49;1.25;-1.32;306.44;43.03;-43.00;1.01;-84.60;-80.72;-5.73 
7.109;-1.00;-0.17;0.13;-0.07;1.25;-0.77;306.44;43.03;-44.00;1.02;-84.54;-80.72;-5.78 
7.139;-0.99;-0.17;0.13;0.21;1.04;-1.18;307.44;41.12;-42.00;1.01;-84.48;-80.71;-5.83 
7.169;-0.98;-0.14;0.13;-0.28;0.63;-0.70;303.46;41.12;-44.00;1.00;-84.43;-80.69;-5.88 
7.200;-1.00;-0.15;0.13;-0.56;0.49;-0.28;307.44;40.16;-42.00;1.02;-84.38;-80.67;-5.93 
7.229;-0.99;-0.18;0.19;-0.49;0.35;-0.07;307.44;41.12;-40.00;1.02;-84.33;-80.63;-5.98 
7.259;-1.00;-0.14;0.11;-0.21;0.14;0.42;306.44;40.16;-40.00;1.02;-84.31;-80.64;-5.99 
7.290;-1.01;-0.13;0.11;-0.21;-0.42;0.00;305.45;42.07;-41.00;1.02;-84.31;-80.64;-5.99 
7.320;-0.98;-0.14;0.12;-0.28;0.28;-0.07;304.45;42.07;-45.00;1.00;-84.30;-80.64;-5.99 
7.350;-0.97;-0.13;0.13;-0.35;0.07;0.07;305.45;41.12;-43.00;0.99;-84.29;-80.63;-6.00 
7.380;-0.97;-0.14;0.12;-0.07;0.35;-0.21;305.45;41.12;-44.00;0.99;-84.28;-80.63;-6.00 
7.410;-0.97;-0.13;0.13;-0.07;0.56;-0.90;307.44;41.12;-43.00;0.99;-84.24;-80.60;-6.04 
7.440;-1.00;-0.14;0.13;0.14;0.77;-0.28;307.44;40.16;-42.00;1.02;-84.21;-80.58;-6.07 
7.470;-0.98;-0.17;0.10;-0.14;0.49;-0.35;305.45;45.90;-44.00;1.00;-84.19;-80.57;-6.08 
7.500;-0.99;-0.14;0.12;0.00;0.49;0.00;307.44;38.25;-44.00;1.01;-84.16;-80.57;-6.11 
7.530;-1.00;-0.13;0.11;-0.35;0.28;0.00;310.42;42.07;-40.00;1.01;-84.14;-80.57;-6.13 
7.560;-1.02;-0.14;0.12;-0.21;0.14;0.49;306.44;42.07;-41.00;1.04;-84.12;-80.55;-6.15 
7.591;-0.99;-0.15;0.11;-0.21;-0.35;0.90;309.43;40.16;-41.00;1.01;-84.12;-80.54;-6.15 
7.621;-1.01;-0.14;0.10;-0.28;-0.42;0.83;310.42;42.07;-39.00;1.02;-84.12;-80.55;-6.15 
7.650;-1.00;-0.10;0.12;0.21;-0.70;1.04;307.44;41.12;-42.00;1.01;-84.12;-80.54;-6.14 
7.680;-0.98;-0.14;0.11;-0.07;-0.90;1.25;310.42;41.12;-43.00;1.00;-84.15;-80.53;-6.11 
7.710;-0.98;-0.14;0.13;-0.63;-1.74;0.70;305.45;40.16;-41.00;1.00;-84.17;-80.50;-6.09 
7.740;-0.98;-0.14;0.14;-0.14;-1.39;0.97;306.44;40.16;-42.00;1.00;-84.17;-80.48;-6.09 
7.770;-0.98;-0.14;0.15;-0.07;-1.25;0.77;308.43;41.12;-41.00;1.00;-84.18;-80.46;-6.07 
7.801;-0.99;-0.14;0.13;-0.56;-1.95;0.21;307.44;42.07;-44.00;1.01;-84.19;-80.42;-6.07 
7.830;-0.98;-0.15;0.13;-0.35;-2.16;0.14;308.43;40.16;-47.00;1.00;-84.18;-80.36;-6.08 
7.860;-1.00;-0.11;0.15;0.21;-1.04;-0.35;307.44;42.07;-47.00;1.02;-84.15;-80.31;-6.10 
7.890;-1.01;-0.15;0.13;0.83;-1.18;-0.28;309.43;41.12;-48.00;1.03;-84.13;-80.26;-6.13 
7.920;-0.99;-0.16;0.14;0.77;-0.90;0.28;307.44;44.94;-46.00;1.01;-84.11;-80.22;-6.14 
7.950;-1.01;-0.14;0.14;0.70;0.14;0.56;307.44;42.07;-45.00;1.03;-84.10;-80.21;-6.15 
7.980;-0.96;-0.15;0.14;0.56;-0.14;0.70;308.43;41.12;-44.00;0.98;-84.09;-80.21;-6.15 
8.010;-0.98;-0.12;0.16;-0.63;0.07;1.32;307.44;41.12;-45.00;1.00;-84.12;-80.21;-6.13 
8.040;-0.98;-0.09;0.11;-1.81;0.00;0.14;306.44;42.07;-44.00;0.99;-84.16;-80.24;-6.08 
8.070;-1.01;-0.10;0.14;-2.43;-1.88;-0.97;308.43;39.21;-46.00;1.02;-84.15;-80.24;-6.10 
8.101;-1.00;-0.10;0.13;-2.16;-2.43;-2.09;306.44;43.99;-45.00;1.01;-84.13;-80.16;-6.14 
8.131;-0.97;-0.14;0.18;-1.46;-1.11;-5.22;306.44;41.12;-49.00;1.00;-84.03;-80.07;-6.24 
8.161;-0.96;-0.15;0.14;-1.11;-0.21;-4.73;306.44;40.16;-46.00;0.98;-83.88;-79.96;-6.40 
8.190;-0.98;-0.16;0.15;-1.04;-1.39;-3.90;305.45;41.12;-48.00;1.00;-83.72;-79.84;-6.56 
8.220;-1.00;-0.19;0.13;-0.14;-0.70;-3.06;305.45;43.03;-47.00;1.03;-83.60;-79.72;-6.69 
8.250;-1.01;-0.18;0.14;0.00;-0.77;-2.37;302.46;42.07;-48.00;1.04;-83.48;-79.61;-6.81 
8.280;-0.98;-0.18;0.13;-0.07;-0.83;-1.95;303.46;40.16;-46.00;1.00;-83.35;-79.49;-6.93 
8.311;-0.97;-0.18;0.10;-0.28;-0.70;-0.56;302.46;42.07;-48.00;0.99;-83.28;-79.42;-7.01 
8.341;-0.99;-0.17;0.14;-0.56;-0.14;0.49;305.45;43.99;-49.00;1.01;-83.25;-79.39;-7.04 
8.370;-0.97;-0.17;0.14;-0.49;0.14;0.56;303.46;39.21;-48.00;0.99;-83.25;-79.39;-7.04 
8.401;-0.99;-0.14;0.15;-0.21;1.39;0.63;303.46;43.03;-46.00;1.01;-83.25;-79.39;-7.05 
8.431;-0.97;-0.15;0.16;0.14;2.50;0.49;304.45;43.99;-46.00;0.99;-83.25;-79.45;-7.04 
8.461;-0.98;-0.13;0.12;0.49;3.90;-0.70;302.46;41.12;-47.00;1.00;-83.26;-79.51;-7.03 
8.491;-1.00;-0.15;0.13;1.04;3.62;-1.74;300.47;41.12;-44.00;1.02;-83.23;-79.58;-7.06 
8.522;-0.98;-0.14;0.12;1.11;2.23;-2.43;301.47;42.07;-45.00;1.00;-83.16;-79.61;-7.12 
8.551;-0.98;-0.14;0.13;2.09;2.43;-3.20;304.45;43.03;-46.00;1.00;-83.07;-79.62;-7.20 
8.581;-0.99;-0.18;0.14;1.95;1.60;-2.16;300.47;42.07;-46.00;1.02;-82.96;-79.58;-7.31 
8.612;-1.01;-0.18;0.08;1.11;1.04;-0.77;302.46;42.07;-45.00;1.03;-82.88;-79.56;-7.38 
8.642;-0.98;-0.16;0.10;0.28;0.70;0.14;306.44;43.99;-42.00;1.00;-82.85;-79.56;-7.40 
8.672;-0.98;-0.18;0.10;0.49;1.04;0.56;303.46;43.03;-43.00;1.00;-82.82;-79.54;-7.44 
8.701;-1.00;-0.15;0.10;0.07;0.49;0.63;301.47;43.03;-44.00;1.02;-82.84;-79.57;-7.41 
8.731;-1.00;-0.15;0.12;0.00;-0.07;0.28;302.46;39.21;-43.00;1.02;-82.86;-79.58;-7.40 
8.761;-0.98;-0.14;0.15;0.07;0.56;-0.14;302.46;43.99;-44.00;1.00;-82.88;-79.58;-7.38 
8.791;-0.98;-0.13;0.17;0.07;0.97;-0.70;300.47;43.99;-45.00;1.00;-82.86;-79.60;-7.40 
8.822;-0.98;-0.16;0.13;0.14;0.70;-0.97;300.47;41.12;-44.00;1.00;-82.85;-79.59;-7.41 
8.852;-0.97;-0.14;0.12;-0.70;-0.07;-1.11;300.47;42.07;-42.00;0.99;-82.80;-79.57;-7.45 
8.882;-1.00;-0.16;0.15;-0.14;0.49;-1.67;297.49;43.03;-44.00;1.02;-82.76;-79.54;-7.50 
8.913;-0.99;-0.16;0.14;0.07;0.49;-1.60;302.46;43.99;-45.00;1.01;-82.71;-79.51;-7.55 
8.943;-0.99;-0.17;0.13;-0.14;-0.49;-1.04;300.47;43.03;-44.00;1.01;-82.64;-79.46;-7.62 
8.973;-0.98;-0.18;0.14;-0.14;-0.49;-0.83;299.48;43.99;-45.00;1.01;-82.60;-79.40;-7.66 
9.002;-0.98;-0.20;0.12;-0.14;-0.49;-0.70;302.46;44.94;-41.00;1.01;-82.55;-79.36;-7.72 
9.032;-0.97;-0.17;0.13;-0.42;0.00;-0.14;299.48;45.90;-43.00;0.99;-82.52;-79.32;-7.74 
9.062;-0.97;-0.18;0.15;-0.07;-0.21;0.21;299.48;42.07;-42.00;1.00;-82.52;-79.32;-7.75 
9.092;-1.01;-0.17;0.13;0.21;-0.07;0.28;300.47;43.99;-44.00;1.03;-82.52;-79.31;-7.76 
9.123;-1.02;-0.18;0.10;0.35;-1.53;-0.21;300.47;46.86;-42.00;1.04;-82.52;-79.30;-7.76 
9.152;-1.00;-0.18;0.10;0.49;-2.57;-0.83;300.47;43.99;-45.00;1.02;-82.49;-79.24;-7.79 
9.182;-1.00;-0.15;0.14;0.28;-3.48;0.21;299.48;46.86;-42.00;1.02;-82.49;-79.18;-7.79 
9.212;-1.00;-0.14;0.09;0.35;-5.77;-1.67;298.48;42.07;-42.00;1.01;-82.46;-79.08;-7.82 
9.242;-0.99;-0.20;0.10;1.25;-6.26;-0.42;299.48;43.99;-45.00;1.01;-82.41;-78.91;-7.88 
9.272;-1.02;-0.17;0.10;1.46;-8.21;0.90;301.47;43.03;-46.00;1.04;-82.39;-78.77;-7.90 
9.302;-1.02;-0.14;0.13;1.04;-12.38;-0.70;299.48;43.03;-50.00;1.04;-82.41;-78.57;-7.88 
