Time(s) acc_x(g) acc_y(g) acc_z(g) gyr_x(°/s) gyr_y(°/s) gyr_z(°/s) mag_x(G) mag_y(G) mag_z(G) SVM(g) yaw(°) pitch(°) roll(°)
0.000;-0.06;0.05;1.02;12.59;5.43;-17.11;306.19;-270.39;-395.00;1.02;-152.51;-10.22;5.67 
0.030;-0.20;0.02;0.78;19.13;-2.57;-20.52;311.16;-263.70;-398.00;0.81;-151.62;-10.41;6.20 
0.060;-0.22;-0.08;0.79;24.56;-9.95;-21.91;312.15;-267.52;-392.00;0.82;-150.74;-10.27;6.91 
0.090;-0.24;-0.08;0.94;29.77;-10.92;-23.65;315.13;-265.61;-394.00;0.97;-149.81;-10.07;7.55 
0.121;-0.18;0.00;1.02;22.75;1.81;-27.90;323.09;-266.56;-388.00;1.04;-148.79;-9.96;8.40 
0.151;-0.11;-0.13;0.92;8.42;12.94;-32.42;325.07;-257.96;-386.00;0.94;-147.63;-10.30;8.75 
0.181;-0.14;-0.24;0.78;-1.25;15.23;-25.60;322.09;-257.01;-384.00;0.83;-146.54;-10.79;8.56 
0.211;-0.22;-0.42;0.76;-5.29;6.68;-10.30;324.08;-251.28;-387.00;0.90;-145.67;-11.23;8.06 
0.241;-0.22;-0.45;0.72;-8.90;-4.17;10.92;322.09;-250.32;-380.00;0.88;-145.40;-11.34;7.47 
0.271;-0.18;-0.30;0.82;-14.12;-14.89;22.19;320.10;-253.19;-386.00;0.89;-145.71;-11.05;6.93 
0.301;-0.02;-0.06;0.92;-15.44;-20.10;22.68;314.14;-256.05;-386.00;0.92;-146.27;-10.32;6.51 
0.332;0.01;0.04;0.99;-15.03;-10.16;15.03;318.12;-266.56;-389.00;0.99;-146.72;-9.72;6.24 
0.362;0.02;-0.06;0.97;-9.04;0.35;9.04;311.16;-268.47;-388.00;0.97;-146.94;-9.47;6.08 
0.392;-0.06;-0.07;0.90;-2.43;8.00;7.51;310.16;-267.52;-391.00;0.90;-147.02;-9.46;5.98 
0.422;-0.05;-0.08;0.90;1.04;11.27;9.25;311.16;-265.61;-390.00;0.90;-147.03;-9.56;5.97 
0.452;-0.12;-0.10;0.83;2.37;17.18;5.43;315.13;-263.70;-389.00;0.84;-147.03;-9.93;6.08 
0.482;-0.14;-0.07;0.77;2.50;15.23;2.71;315.13;-259.88;-390.00;0.79;-146.91;-10.34;6.15 
0.512;-0.11;-0.09;0.78;7.72;7.58;1.74;314.14;-256.05;-387.00;0.79;-146.75;-10.64;6.24 
0.542;-0.11;-0.05;0.83;10.85;2.02;-2.23;317.12;-255.10;-386.00;0.84;-146.53;-10.70;6.55 
0.572;-0.08;-0.03;0.87;10.57;1.32;-9.67;317.12;-257.01;-385.00;0.87;-146.16;-10.70;6.85 
0.602;-0.11;-0.01;0.96;6.82;-1.95;-15.58;323.09;-255.10;-387.00;0.97;-145.59;-10.66;7.09 
0.633;-0.12;-0.06;1.00;1.18;3.27;-19.90;322.09;-254.14;-382.00;1.01;-144.87;-10.61;7.17 
0.663;-0.11;-0.14;0.94;-0.97;16.56;-20.52;317.12;-252.23;-384.00;0.96;-144.04;-10.86;7.02 
0.693;-0.14;-0.18;0.82;0.56;11.90;-16.00;319.11;-247.46;-387.00;0.85;-143.28;-11.31;6.80 
0.723;-0.12;-0.13;0.90;2.16;10.16;-11.13;317.12;-241.72;-381.00;0.92;-142.67;-11.55;6.65 
0.753;-0.17;-0.11;0.88;2.37;12.59;-8.28;318.12;-236.95;-380.00;0.90;-142.17;-11.86;6.58 
0.783;-0.16;-0.06;0.87;3.06;12.17;-5.84;318.12;-236.95;-381.00;0.89;-141.74;-12.19;6.56 
0.813;-0.21;-0.11;0.79;2.85;12.73;-3.27;320.10;-231.21;-380.00;0.82;-141.40;-12.53;6.60 
0.844;-0.26;-0.14;0.81;2.43;4.87;3.20;322.09;-229.30;-382.00;0.86;-141.14;-12.83;6.57 
0.874;-0.23;-0.09;0.81;-0.35;1.32;6.75;321.10;-230.26;-381.00;0.85;-141.07;-12.93;6.52 
0.904;-0.22;-0.03;0.87;-2.37;-0.70;10.30;321.10;-228.35;-382.00;0.90;-141.13;-12.86;6.52 
0.935;-0.21;-0.04;0.86;-1.88;4.31;12.52;320.10;-232.17;-379.00;0.89;-141.29;-12.85;6.52 
0.965;-0.25;0.00;0.79;-3.41;0.90;12.87;326.07;-232.17;-379.00;0.83;-141.50;-12.91;6.54 
0.994;-0.24;0.00;0.84;-3.27;-6.96;11.41;320.10;-235.03;-379.00;0.87;-141.70;-12.80;6.57 
1.023;-0.20;0.00;0.92;-1.04;-4.80;11.62;324.08;-237.90;-382.00;0.94;-141.87;-12.55;6.62 
1.052;-0.20;0.02;0.93;-1.25;-0.07;10.23;324.08;-236.95;-382.00;0.95;-142.03;-12.40;6.70 
1.081;-0.22;0.02;0.86;-2.99;2.85;9.67;322.09;-239.81;-384.00;0.89;-142.14;-12.37;6.73 
1.110;-0.22;0.00;0.82;-3.41;1.04;11.48;324.08;-238.86;-381.00;0.85;-142.27;-12.36;6.71 
1.139;-0.19;-0.04;0.90;-3.62;0.42;12.87;322.09;-241.72;-382.00;0.92;-142.45;-12.30;6.66 
1.168;-0.14;0.00;0.94;-3.34;0.35;12.38;324.08;-240.77;-383.00;0.95;-142.65;-12.20;6.65 
1.198;-0.12;0.02;0.88;-1.88;7.30;12.94;325.07;-242.68;-381.00;0.89;-142.85;-12.18;6.76 
1.229;-0.16;0.00;0.91;-1.53;5.57;12.80;321.10;-242.68;-381.00;0.92;-143.05;-12.22;6.89 
1.259;-0.14;0.01;0.83;-1.18;10.02;13.91;325.07;-241.72;-387.00;0.84;-143.27;-12.36;6.95 
1.289;-0.12;0.00;0.95;-0.77;7.03;13.15;322.09;-242.68;-384.00;0.96;-143.49;-12.48;7.15 
1.318;-0.12;-0.02;0.94;-0.97;14.47;12.31;325.07;-241.72;-382.00;0.95;-143.67;-12.71;7.31 
1.348;-0.10;0.00;0.96;-0.90;25.25;9.95;326.07;-240.77;-383.00;0.97;-143.80;-13.15;7.48 
1.378;-0.17;0.02;0.83;-1.18;18.30;10.37;324.08;-235.03;-381.00;0.85;-143.92;-13.68;7.62 
1.408;-0.15;0.02;0.95;-1.46;17.88;9.32;330.05;-233.12;-377.00;0.96;-144.00;-14.06;7.66 
1.438;-0.15;0.00;0.88;-1.88;16.14;8.07;329.05;-229.30;-383.00;0.89;-144.04;-14.48;7.80 
1.467;-0.12;-0.03;0.87;-2.09;18.57;8.56;326.07;-228.35;-379.00;0.88;-144.07;-14.89;7.92 
1.497;-0.16;-0.05;0.82;-2.50;20.38;8.97;328.06;-227.39;-378.00;0.84;-144.10;-15.32;7.92 
1.528;-0.26;-0.04;0.78;-2.71;16.83;9.53;328.06;-224.52;-383.00;0.82;-144.14;-15.78;7.87 
1.558;-0.22;0.01;0.86;-2.92;16.90;9.18;326.07;-222.61;-376.00;0.89;-144.18;-16.16;7.83 
1.588;-0.22;-0.03;0.90;-1.67;20.38;9.25;327.06;-221.66;-373.00;0.93;-144.21;-16.63;7.94 
1.618;-0.27;-0.06;0.86;-1.46;22.61;9.46;328.06;-214.02;-372.00;0.90;-144.23;-17.18;7.97 
1.648;-0.26;0.00;0.85;-2.02;25.81;8.63;327.06;-213.06;-372.00;0.89;-144.20;-17.86;7.96 
1.678;-0.22;-0.06;0.97;0.70;31.30;10.85;331.04;-208.28;-370.00;1.00;-144.24;-18.59;8.11 
1.707;-0.20;-0.06;0.91;4.45;45.22;11.20;332.03;-205.42;-370.00;0.93;-144.19;-19.52;8.25 
1.736;-0.22;-0.06;0.85;6.47;53.57;12.94;333.03;-197.77;-363.00;0.88;-144.14;-20.78;8.48 
1.765;-0.26;-0.05;0.82;2.99;48.63;17.11;337.00;-186.31;-360.00;0.86;-144.12;-22.08;8.72 
1.795;-0.23;-0.05;0.90;1.81;46.68;15.79;335.02;-187.26;-357.00;0.93;-144.16;-23.25;8.91 
1.826;-0.21;0.02;0.85;0.90;53.29;14.33;339.99;-172.93;-351.00;0.88;-144.18;-24.51;9.12 
1.855;-0.27;0.01;0.84;-0.07;49.53;10.78;341.97;-166.24;-346.00;0.88;-144.08;-25.87;9.31 
1.884;-0.26;0.00;0.83;2.43;47.79;9.04;343.96;-160.51;-343.00;0.87;-143.87;-27.07;9.41 
1.914;-0.30;0.00;0.84;3.41;55.86;9.88;345.95;-151.91;-336.00;0.89;-143.62;-28.36;9.59 
1.943;-0.32;0.02;0.78;4.73;68.38;10.64;345.95;-149.05;-333.00;0.84;-143.26;-30.05;9.89 
1.973;-0.38;-0.05;0.58;8.21;65.32;12.45;348.93;-132.80;-320.00;0.70;-142.82;-31.92;10.18 
2.003;-0.33;-0.05;0.66;12.59;50.23;16.70;350.92;-132.80;-318.00;0.74;-142.42;-33.52;10.56 
2.033;-0.24;0.08;0.82;6.68;61.70;15.44;354.90;-120.38;-306.00;0.86;-142.19;-34.80;11.05 
2.063;-0.18;0.08;0.68;5.91;79.44;10.85;362.85;-116.56;-300.00;0.71;-141.78;-36.49;11.45 
2.093;-0.19;0.02;0.60;9.95;76.31;4.45;361.86;-103.19;-288.00;0.63;-141.11;-38.36;11.79 
2.124;-0.23;0.14;0.56;11.62;77.15;-4.73;365.83;-95.54;-276.00;0.62;-140.07;-40.36;12.08 
2.153;-0.30;0.14;0.59;12.10;66.37;-13.29;366.83;-85.99;-266.00;0.68;-138.78;-42.29;12.27 
2.183;-0.30;0.00;0.77;11.76;63.44;-21.36;367.82;-75.48;-256.00;0.83;-137.30;-43.97;12.20 
2.214;-0.18;-0.21;0.94;11.69;73.39;-16.63;363.85;-64.01;-240.00;0.98;-135.56;-45.75;11.81 
2.244;0.00;-0.34;0.70;14.12;91.97;0.14;365.83;-61.15;-234.00;0.78;-133.88;-47.80;11.47 
2.274;0.04;-0.18;0.51;16.63;96.83;15.86;368.82;-48.73;-212.00;0.54;-132.51;-49.91;11.52 
2.304;0.12;0.00;0.40;16.42;113.32;9.32;374.78;-44.90;-194.00;0.42;-131.27;-52.08;11.90 
2.334;0.15;0.42;0.34;27.41;110.40;-8.90;374.78;-37.26;-168.00;0.56;-129.59;-54.57;12.64 
2.364;0.51;0.34;0.50;37.36;127.79;-21.29;381.74;-31.53;-143.00;0.79;-127.36;-57.13;13.29 
2.394;0.49;-0.07;0.42;32.14;177.81;-30.19;376.77;-23.89;-118.00;0.65;-124.15;-60.61;13.34 
2.425;0.05;-0.19;-0.10;25.18;219.34;-9.25;379.75;-17.20;-89.00;0.22;-119.39;-65.81;12.82 
2.455;-0.54;-0.61;-0.90;-6.12;274.37;12.03;379.75;-9.55;-29.00;1.21;-113.09;-72.31;12.48 
2.485;-1.87;-1.22;-3.29;3.20;442.85;48.00;384.72;-19.11;24.00;3.98;-104.01;-77.66;12.22 
2.515;-2.06;1.06;-4.62;-24.07;-103.65;84.45;398.64;-37.26;59.00;5.17;-101.05;-74.13;15.12 
2.545;-1.09;0.02;-1.10;-17.39;-401.67;80.42;414.54;-38.22;21.00;1.55;-110.14;-72.33;17.41 
2.575;-0.65;0.23;1.34;5.98;-289.81;84.31;430.45;-48.73;-54.00;1.51;-120.00;-65.98;19.84 
2.605;-0.90;1.44;3.15;-22.61;-150.68;42.37;445.36;-61.15;-87.00;3.58;-126.56;-59.39;22.16 
2.636;-1.81;1.62;2.41;22.47;571.62;-114.92;444.37;-57.33;-83.00;3.42;-123.40;-62.68;21.26 
2.666;-3.83;-0.30;-5.23;40.00;614.33;26.50;429.46;-39.17;12.00;6.49;-106.64;-70.62;19.10 
2.696;-1.79;1.06;-4.30;32.21;-61.91;54.54;437.41;-65.92;96.00;4.78;-99.99;-65.90;20.16 
2.727;-0.58;0.53;-0.86;36.73;-323.06;37.77;434.43;-64.01;89.00;1.16;-105.04;-67.19;21.02 
2.757;1.13;-0.38;2.26;-18.43;-183.30;22.19;439.40;-51.59;31.00;2.56;-112.72;-68.46;21.47 
2.787;-0.38;0.06;0.70;27.62;363.97;38.26;444.37;-50.64;23.00;0.80;-112.69;-67.72;22.28 
2.817;-1.24;0.52;-2.27;9.11;202.37;31.17;450.33;-78.34;85.00;2.64;-107.57;-65.11;23.10 
2.848;-0.97;0.35;-1.93;-4.17;-135.72;21.01;456.30;-79.30;94.00;2.19;-106.92;-63.78;23.57 
2.878;-0.78;0.34;0.03;-6.19;-194.78;25.25;455.30;-75.48;68.00;0.85;-110.72;-65.02;24.11 
2.908;-0.63;0.45;0.64;-1.81;-30.33;12.80;461.27;-76.43;48.00;1.00;-113.56;-65.20;24.67 
2.939;-1.02;0.58;-0.21;-13.70;21.63;-12.80;462.26;-73.57;43.00;1.19;-113.62;-65.18;24.69 
2.968;-1.06;0.39;-0.34;-17.88;-10.85;-22.33;461.27;-69.75;42.00;1.18;-112.86;-65.80;24.04 
2.998;-0.97;0.38;-0.29;-12.87;-4.66;-19.34;455.30;-70.70;42.00;1.08;-112.17;-66.60;23.26 
3.028;-0.99;0.46;-0.44;-12.66;-7.86;-22.54;454.31;-70.70;39.00;1.18;-111.39;-67.33;22.51 
3.058;-1.03;0.36;-0.29;-7.23;-43.69;-18.02;451.33;-61.15;32.00;1.13;-110.92;-68.15;21.74 
3.088;-1.06;0.38;0.13;0.56;-41.67;-14.89;450.33;-56.37;28.00;1.13;-110.93;-68.85;21.13 
3.117;-0.94;0.28;0.31;4.10;10.50;-17.32;445.36;-52.55;21.00;1.03;-110.70;-69.47;20.53 
3.148;-0.96;0.26;-0.26;5.63;50.37;-13.50;443.37;-52.55;24.00;1.03;-109.70;-69.97;20.00 
3.178;-1.07;0.21;-0.59;3.20;-0.35;-14.12;439.40;-50.64;33.00;1.24;-108.44;-70.51;19.33 
3.208;-1.02;0.22;-0.18;2.02;-27.34;-16.28;440.39;-45.86;33.00;1.06;-107.86;-71.20;18.65 
3.239;-0.95;0.14;0.07;-0.35;1.18;-16.70;433.43;-45.86;30.00;0.96;-107.31;-72.01;17.89 
3.269;-1.02;0.08;-0.18;1.39;24.70;-10.02;438.40;-42.99;31.00;1.04;-106.56;-72.54;17.30 
3.299;-0.98;0.14;-0.32;2.85;16.63;-5.15;432.44;-42.99;34.00;1.04;-105.68;-72.95;16.74 
3.329;-1.03;0.19;-0.34;1.88;2.43;-5.08;434.43;-41.08;36.00;1.10;-105.08;-73.25;16.31 
3.360;-1.02;0.19;-0.29;0.35;2.09;-6.26;433.43;-43.95;35.00;1.08;-104.63;-73.57;15.91 
3.390;-0.99;0.14;-0.24;0.56;0.49;-4.45;432.44;-41.08;37.00;1.03;-104.16;-73.93;15.47 
3.420;-1.02;0.21;-0.26;0.63;2.78;-1.60;428.46;-39.17;39.00;1.07;-103.81;-74.19;15.14 
3.451;-1.02;0.24;-0.29;0.97;5.22;-1.46;431.44;-42.04;38.00;1.09;-103.50;-74.35;14.88 
3.481;-0.99;0.22;-0.32;0.63;-0.35;-1.18;430.45;-40.13;41.00;1.06;-103.24;-74.49;14.65 
3.511;-1.02;0.20;-0.26;1.04;-5.57;-0.83;430.45;-41.08;39.00;1.07;-103.04;-74.67;14.42 
3.541;-1.01;0.25;-0.22;1.74;-3.76;0.07;429.46;-38.22;39.00;1.06;-102.87;-74.88;14.19 
3.571;-1.01;0.23;-0.22;0.21;-0.63;0.63;429.46;-41.08;37.00;1.06;-102.74;-75.04;14.01 
3.600;-1.02;0.22;-0.24;0.14;0.28;0.07;426.47;-39.17;36.00;1.07;-102.59;-75.16;13.84 
3.629;-1.02;0.22;-0.26;0.97;-1.04;0.70;429.46;-40.13;40.00;1.08;-102.43;-75.29;13.66 
3.659;-1.01;0.26;-0.24;0.97;0.14;0.35;429.46;-41.08;41.00;1.07;-102.29;-75.41;13.49 
3.689;-1.00;0.24;-0.20;0.83;1.53;-0.21;429.46;-42.04;37.00;1.05;-102.14;-75.53;13.31 
3.719;-1.02;0.22;-0.25;-0.35;2.64;-1.04;428.46;-41.08;41.00;1.07;-101.95;-75.65;13.10 
3.750;-1.00;0.19;-0.25;0.70;1.53;-0.21;430.45;-40.13;42.00;1.05;-101.73;-75.79;12.87 
3.780;-1.01;0.22;-0.26;-0.21;1.67;0.56;429.46;-39.17;42.00;1.07;-101.56;-75.89;12.68 
3.810;-1.01;0.21;-0.22;-0.90;-0.35;0.14;426.47;-36.31;39.00;1.05;-101.42;-75.99;12.50 
3.840;-1.00;0.22;-0.24;-0.49;1.81;-0.21;426.47;-39.17;41.00;1.05;-101.28;-76.09;12.33 
3.870;-1.00;0.22;-0.25;-0.28;1.88;-0.83;428.46;-41.08;39.00;1.05;-101.13;-76.18;12.15 
3.900;-1.01;0.25;-0.26;-0.14;1.32;-1.60;429.46;-42.04;42.00;1.07;-100.97;-76.28;11.96 
3.930;-1.02;0.26;-0.27;0.42;-0.56;-2.43;428.46;-38.22;43.00;1.09;-100.78;-76.41;11.74 
3.961;-0.99;0.18;-0.25;0.56;-1.95;-1.74;432.44;-40.13;41.00;1.04;-100.58;-76.61;11.48 
3.991;-1.00;0.18;-0.23;0.21;2.37;-1.25;425.48;-37.26;39.00;1.04;-100.42;-76.74;11.27 
4.021;-1.02;0.20;-0.26;0.28;0.83;-1.32;430.45;-40.13;39.00;1.07;-100.24;-76.85;11.05 
4.050;-1.01;0.20;-0.26;0.21;-0.42;-0.07;426.47;-38.22;40.00;1.06;-100.07;-76.99;10.84 
4.079;-1.02;0.22;-0.23;-0.28;1.46;0.42;428.46;-40.13;40.00;1.07;-99.96;-77.07;10.68 
4.109;-1.02;0.21;-0.24;-0.07;1.11;0.35;425.48;-40.13;38.00;1.07;-99.86;-77.15;10.53 
4.139;-0.98;0.22;-0.23;0.49;3.06;0.21;428.46;-38.22;41.00;1.03;-99.74;-77.22;10.37 
4.170;-1.02;0.21;-0.27;0.35;2.16;0.70;427.47;-40.13;42.00;1.08;-99.62;-77.25;10.21 
4.200;-0.99;0.20;-0.27;-0.28;0.83;-0.21;428.46;-39.17;41.00;1.05;-99.52;-77.30;10.06 
4.230;-1.01;0.20;-0.25;-0.14;0.21;0.21;426.47;-40.13;41.00;1.06;-99.41;-77.37;9.90 
4.261;-1.00;0.21;-0.18;-0.07;1.25;0.35;426.47;-39.17;39.00;1.04;-99.32;-77.43;9.76 
4.290;-1.01;0.22;-0.26;-0.21;1.32;-0.07;428.46;-40.13;41.00;1.07;-99.23;-77.48;9.61 
4.320;-1.02;0.22;-0.26;0.07;0.00;0.00;429.46;-39.17;43.00;1.08;-99.12;-77.55;9.46 
4.350;-1.02;0.21;-0.26;-0.28;0.42;-0.28;427.47;-41.08;43.00;1.07;-99.02;-77.64;9.31 
4.380;-1.00;0.22;-0.22;0.21;1.46;-0.35;427.47;-41.08;42.00;1.05;-98.91;-77.71;9.14 
4.410;-1.03;0.21;-0.26;0.56;0.97;-0.42;426.47;-38.22;42.00;1.08;-98.80;-77.77;8.98 
4.439;-1.02;0.20;-0.26;0.49;1.53;-0.21;425.48;-38.22;41.00;1.07;-98.70;-77.83;8.82 
4.470;-1.02;0.22;-0.29;0.21;1.60;-0.63;426.47;-40.13;44.00;1.08;-98.60;-77.88;8.67 
4.500;-1.01;0.20;-0.26;0.28;1.25;-0.56;424.49;-37.26;45.00;1.06;-98.49;-77.94;8.50 
4.530;-1.00;0.21;-0.24;-0.07;1.32;-0.28;427.47;-37.26;43.00;1.05;-98.39;-78.00;8.34 
4.561;-1.02;0.23;-0.26;0.28;1.11;-0.56;428.46;-39.17;45.00;1.08;-98.27;-78.04;8.17 
4.591;-0.99;0.18;-0.29;0.07;1.18;-0.07;426.47;-41.08;46.00;1.05;-98.17;-78.09;8.02 
4.621;-1.02;0.19;-0.26;0.07;1.46;0.35;427.47;-40.13;46.00;1.07;-98.10;-78.12;7.89 
4.651;-1.02;0.20;-0.26;-0.07;-0.07;0.14;425.48;-42.04;42.00;1.07;-98.04;-78.17;7.77 
4.682;-1.02;0.22;-0.25;-0.28;1.32;-0.07;425.48;-39.17;44.00;1.07;-97.96;-78.24;7.64 
4.712;-1.00;0.22;-0.28;0.00;2.30;0.21;427.47;-38.22;46.00;1.06;-97.90;-78.25;7.52 
4.741;-1.01;0.21;-0.27;0.07;0.70;0.28;428.46;-38.22;44.00;1.07;-97.84;-78.24;7.41 
4.772;-1.02;0.21;-0.28;-0.28;-0.21;-0.21;425.48;-38.22;44.00;1.08;-97.77;-78.28;7.28 
4.802;-0.96;0.23;-0.24;0.07;0.21;-0.14;428.46;-39.17;42.00;1.02;-97.70;-78.34;7.16 
4.832;-1.02;0.21;-0.25;0.07;0.90;-0.35;425.48;-36.31;47.00;1.07;-97.63;-78.38;7.03 
4.862;-1.02;0.22;-0.26;0.21;0.63;-0.14;428.46;-40.13;47.00;1.08;-97.57;-78.41;6.91 
4.891;-1.02;0.19;-0.27;0.00;0.70;0.14;426.47;-38.22;46.00;1.07;-97.51;-78.44;6.80 
4.921;-1.02;0.21;-0.25;-0.14;0.83;-0.21;427.47;-40.13;43.00;1.07;-97.45;-78.50;6.69 
4.951;-1.01;0.22;-0.26;0.14;1.25;0.00;427.47;-42.04;47.00;1.07;-97.40;-78.52;6.59 
4.981;-1.01;0.18;-0.26;0.21;0.70;0.07;427.47;-38.22;43.00;1.06;-97.34;-78.53;6.47 
5.011;-1.01;0.22;-0.27;0.00;0.28;0.28;425.48;-41.08;46.00;1.07;-97.29;-78.55;6.37 
5.041;-1.02;0.20;-0.26;-0.14;1.11;0.28;427.47;-39.17;44.00;1.07;-97.25;-78.57;6.28 
5.072;-1.02;0.19;-0.27;-0.21;0.77;0.42;426.47;-37.26;43.00;1.07;-97.20;-78.57;6.18 
5.101;-0.99;0.18;-0.26;-0.28;0.00;0.14;426.47;-42.04;47.00;1.04;-97.17;-78.57;6.09 
5.131;-1.00;0.22;-0.26;0.00;0.77;0.28;426.47;-41.08;45.00;1.06;-97.13;-78.60;6.00 
5.161;-1.02;0.22;-0.24;0.00;0.70;-0.07;423.49;-41.08;45.00;1.07;-97.09;-78.61;5.91 
5.191;-0.98;0.20;-0.26;0.14;0.63;-0.07;428.46;-39.17;43.00;1.03;-97.03;-78.64;5.80 
5.221;-1.02;0.22;-0.27;0.07;0.35;0.21;426.47;-41.08;44.00;1.08;-97.00;-78.64;5.72 
5.251;-1.02;0.20;-0.26;0.07;0.83;-0.21;427.47;-38.22;49.00;1.07;-96.96;-78.68;5.63 
5.282;-1.00;0.21;-0.29;0.07;2.85;0.14;426.47;-38.22;47.00;1.06;-96.92;-78.65;5.53 
5.312;-1.02;0.20;-0.27;-0.28;0.90;-0.07;426.47;-40.13;47.00;1.07;-96.89;-78.60;5.44 
5.342;-1.02;0.22;-0.28;0.14;0.56;-0.14;427.47;-39.17;46.00;1.08;-96.85;-78.59;5.35 
5.373;-1.00;0.24;-0.30;-0.21;-0.21;-0.07;428.46;-42.04;46.00;1.07;-96.80;-78.63;5.25 
5.403;-0.99;0.18;-0.26;-0.28;1.39;0.14;427.47;-41.08;46.00;1.04;-96.76;-78.64;5.16 
5.433;-1.01;0.19;-0.30;0.00;1.04;-0.21;431.44;-39.17;47.00;1.07;-96.72;-78.64;5.07 
5.462;-1.02;0.22;-0.28;0.00;0.07;0.14;428.46;-40.13;47.00;1.08;-96.70;-78.65;5.00 
5.493;-1.01;0.20;-0.28;-0.35;0.70;0.14;426.47;-40.13;46.00;1.07;-96.67;-78.67;4.93 
5.523;-1.02;0.20;-0.26;-0.21;0.90;0.35;425.48;-41.08;46.00;1.07;-96.64;-78.69;4.86 
5.553;-1.02;0.22;-0.26;0.00;0.83;0.00;429.46;-42.04;49.00;1.08;-96.61;-78.69;4.78 
5.583;-0.98;0.19;-0.26;0.07;0.90;0.14;428.46;-40.13;46.00;1.03;-96.59;-78.69;4.71 
5.613;-1.02;0.22;-0.25;-0.07;1.04;-0.14;425.48;-39.17;48.00;1.07;-96.57;-78.68;4.65 
5.643;-1.02;0.22;-0.28;-0.21;0.97;0.28;429.46;-41.08;46.00;1.08;-96.55;-78.67;4.58 
5.673;-1.02;0.21;-0.26;-0.07;0.00;-0.14;425.48;-41.08;47.00;1.07;-96.54;-78.66;4.52 
5.702;-0.99;0.20;-0.26;-0.21;0.83;-0.07;430.45;-38.22;45.00;1.04;-96.53;-78.67;4.47 
5.732;-1.01;0.21;-0.30;0.07;1.11;-0.42;427.47;-41.08;44.00;1.07;-96.49;-78.65;4.38 
5.762;-1.01;0.20;-0.26;0.14;0.42;-0.07;426.47;-40.13;47.00;1.06;-96.44;-78.65;4.29 
5.793;-0.99;0.19;-0.27;0.21;0.63;-0.28;425.48;-40.13;46.00;1.04;-96.42;-78.64;4.23 
5.822;-1.00;0.25;-0.26;0.07;1.11;-0.42;425.48;-39.17;50.00;1.06;-96.39;-78.63;4.15 
5.852;-1.01;0.20;-0.29;-0.28;-0.07;-0.70;426.47;-38.22;47.00;1.07;-96.36;-78.62;4.08 
5.883;-1.02;0.21;-0.26;0.07;1.60;-0.35;426.47;-40.13;46.00;1.07;-96.32;-78.63;3.99 
5.913;-1.02;0.21;-0.27;0.21;1.81;-0.42;428.46;-38.22;46.00;1.08;-96.31;-78.58;3.92 
5.943;-1.02;0.22;-0.27;0.21;1.39;-0.42;427.47;-40.13;48.00;1.08;-96.29;-78.53;3.86 
5.972;-1.02;0.21;-0.27;-0.14;-0.07;-0.63;425.48;-39.17;47.00;1.08;-96.27;-78.52;3.79 
6.002;-1.02;0.21;-0.25;-0.07;0.42;-0.63;428.46;-41.08;49.00;1.07;-96.23;-78.55;3.71 
6.032;-1.02;0.21;-0.29;0.14;1.25;-0.42;426.47;-38.22;48.00;1.08;-96.21;-78.54;3.65 
6.062;-0.98;0.22;-0.24;0.21;0.42;-0.70;426.47;-40.13;50.00;1.03;-96.18;-78.53;3.58 
6.093;-1.02;0.21;-0.26;0.21;0.56;-0.35;424.49;-41.08;46.00;1.07;-96.14;-78.55;3.50 
6.122;-1.02;0.22;-0.29;0.07;0.77;-0.56;421.50;-38.22;50.00;1.08;-96.10;-78.56;3.43 
6.152;-1.02;0.21;-0.26;0.42;1.11;-0.21;424.49;-40.13;46.00;1.07;-96.08;-78.56;3.37 
6.183;-1.01;0.21;-0.29;0.42;1.46;-0.35;427.47;-39.17;48.00;1.07;-96.08;-78.51;3.32 
6.213;-1.02;0.22;-0.27;0.21;1.25;-0.56;426.47;-42.04;49.00;1.08;-96.08;-78.48;3.28 
6.243;-1.00;0.21;-0.26;0.21;0.28;-0.83;425.48;-37.26;45.00;1.05;-96.05;-78.47;3.21 
6.273;-0.98;0.19;-0.26;0.42;1.04;-0.14;426.47;-40.13;51.00;1.03;-96.04;-78.47;3.16 
6.304;-1.00;0.22;-0.28;0.14;1.53;-0.49;425.48;-41.08;51.00;1.06;-96.02;-78.43;3.09 
6.334;-0.98;0.18;-0.29;0.21;0.56;-0.42;427.47;-40.13;50.00;1.04;-96.00;-78.41;3.03 
6.364;-1.02;0.21;-0.27;0.21;1.04;-0.14;426.47;-40.13;50.00;1.08;-95.98;-78.40;2.98 
6.394;-1.00;0.19;-0.27;0.14;0.97;0.00;423.49;-38.22;49.00;1.05;-95.98;-78.37;2.94 
6.424;-1.02;0.18;-0.27;0.00;0.97;-0.42;426.47;-38.22;48.00;1.07;-95.98;-78.36;2.90 
6.454;-0.98;0.19;-0.29;0.14;0.56;0.21;423.49;-39.17;52.00;1.04;-95.98;-78.33;2.87 
6.483;-1.01;0.22;-0.26;-0.07;0.77;-0.21;425.48;-42.04;49.00;1.07;-95.96;-78.33;2.82 
6.513;-1.01;0.20;-0.26;0.07;0.63;0.07;424.49;-38.22;53.00;1.06;-95.98;-78.30;2.79 
6.543;-1.01;0.22;-0.26;-0.14;1.39;-0.28;424.49;-40.13;50.00;1.07;-95.98;-78.30;2.76 
6.573;-0.99;0.21;-0.27;0.28;2.09;0.00;423.49;-39.17;51.00;1.05;-95.97;-78.26;2.71 
6.604;-1.02;0.22;-0.32;0.21;1.81;-0.28;424.49;-39.17;53.00;1.09;-95.97;-78.20;2.66 
6.634;-1.02;0.22;-0.29;-0.14;0.00;-0.28;423.49;-42.99;49.00;1.08;-95.99;-78.15;2.64 
6.664;-1.02;0.21;-0.26;0.07;0.42;-0.28;423.49;-40.13;54.00;1.07;-95.98;-78.15;2.60 
6.695;-1.00;0.19;-0.26;0.00;1.04;-0.21;424.49;-39.17;50.00;1.05;-95.98;-78.13;2.58 
6.725;-1.01;0.22;-0.26;0.07;1.67;-0.49;430.45;-37.26;52.00;1.07;-96.00;-78.08;2.54 
6.755;-1.01;0.22;-0.27;0.07;0.49;-0.42;427.47;-40.13;51.00;1.07;-95.99;-78.05;2.51 
6.785;-1.01;0.22;-0.28;0.28;0.07;-0.83;425.48;-40.13;54.00;1.07;-95.98;-78.05;2.47 
6.816;-1.01;0.21;-0.26;0.07;0.35;-0.56;427.47;-38.22;53.00;1.06;-95.96;-78.04;2.42 
6.846;-1.02;0.19;-0.28;0.14;1.74;0.07;427.47;-40.13;51.00;1.07;-95.96;-78.02;2.38 
6.875;-1.02;0.21;-0.26;0.07;0.70;-0.21;425.48;-39.17;54.00;1.07;-95.96;-77.99;2.35 
6.906;-1.02;0.20;-0.34;-0.14;0.70;-0.21;422.50;-40.13;52.00;1.09;-95.96;-77.96;2.31 
6.936;-1.01;0.22;-0.26;0.00;0.07;0.00;423.49;-41.08;51.00;1.07;-95.95;-77.94;2.28 
6.966;-0.99;0.21;-0.27;0.07;0.83;-0.14;428.46;-36.31;51.00;1.05;-95.96;-77.94;2.26 
6.995;-1.02;0.21;-0.30;-0.14;0.83;-0.56;426.47;-39.17;48.00;1.08;-95.97;-77.91;2.25 
7.025;-0.99;0.19;-0.26;-0.21;0.42;-0.35;427.47;-38.22;51.00;1.04;-95.98;-77.89;2.22 
7.055;-1.02;0.22;-0.27;0.00;0.83;-0.28;424.49;-37.26;52.00;1.08;-95.98;-77.86;2.20 
7.085;-1.01;0.19;-0.26;0.00;0.83;-0.42;424.49;-40.13;52.00;1.06;-95.98;-77.84;2.17 
7.115;-1.02;0.21;-0.26;0.00;0.70;-0.42;425.48;-38.22;53.00;1.07;-95.97;-77.82;2.13 
7.145;-1.01;0.18;-0.28;0.14;0.49;-0.35;424.49;-39.17;56.00;1.06;-95.97;-77.79;2.11 
7.175;-1.02;0.21;-0.30;0.28;0.35;-0.14;425.48;-41.08;52.00;1.08;-95.98;-77.76;2.09 
7.206;-1.02;0.22;-0.27;-0.07;0.56;-0.28;424.49;-40.13;54.00;1.08;-95.99;-77.75;2.07 
7.236;-1.01;0.21;-0.28;0.14;1.81;-0.49;428.46;-37.26;54.00;1.07;-96.01;-77.70;2.06 
7.266;-1.01;0.18;-0.33;0.00;1.32;0.07;422.50;-41.08;54.00;1.08;-96.04;-77.65;2.04 
7.296;-1.01;0.19;-0.29;0.00;-0.14;-0.07;426.47;-38.22;53.00;1.07;-96.04;-77.60;2.01 
7.326;-1.02;0.21;-0.27;-0.14;0.14;0.07;424.49;-40.13;52.00;1.08;-96.05;-77.58;2.00 
7.355;-1.02;0.21;-0.28;-0.28;-0.63;0.00;423.49;-40.13;51.00;1.08;-96.07;-77.56;2.00 
7.385;-1.02;0.21;-0.26;-0.07;-0.63;0.28;423.49;-42.99;54.00;1.07;-96.08;-77.57;2.00 
7.416;-1.00;0.26;-0.26;0.00;0.70;0.28;423.49;-38.22;53.00;1.07;-96.08;-77.57;1.98 
7.446;-1.01;0.19;-0.28;-0.14;-0.28;-0.07;425.48;-39.17;52.00;1.07;-96.09;-77.56;1.98 
7.476;-1.01;0.21;-0.26;0.00;-0.70;-0.28;423.49;-38.22;54.00;1.06;-96.09;-77.57;1.97 
7.506;-1.01;0.20;-0.27;0.00;0.28;0.07;428.46;-37.26;54.00;1.06;-96.11;-77.57;1.97 
7.536;-1.02;0.22;-0.29;-0.21;0.28;-0.49;424.49;-40.13;53.00;1.08;-96.12;-77.56;1.96 
7.566;-0.99;0.20;-0.32;-0.21;-1.11;-0.14;423.49;-38.22;53.00;1.06;-96.13;-77.56;1.96 
7.595;-1.02;0.21;-0.28;-0.21;-0.56;-0.14;424.49;-37.26;52.00;1.08;-96.14;-77.58;1.97 
7.626;-1.01;0.19;-0.28;-0.35;0.21;0.21;426.47;-41.08;51.00;1.07;-96.17;-77.58;1.98 
7.656;-0.99;0.22;-0.28;-0.21;-0.56;-0.35;423.49;-39.17;51.00;1.05;-96.19;-77.58;1.99 
7.686;-1.01;0.18;-0.29;0.21;-0.97;-0.07;424.49;-38.22;51.00;1.07;-96.21;-77.56;2.00 
7.717;-1.00;0.19;-0.26;-0.21;-0.28;0.28;423.49;-38.22;53.00;1.05;-96.22;-77.57;2.00 
7.746;-1.01;0.20;-0.28;0.00;0.77;0.49;425.48;-38.22;54.00;1.07;-96.25;-77.55;2.02 
7.776;-1.01;0.19;-0.30;-0.14;-0.63;0.14;428.46;-38.22;51.00;1.07;-96.28;-77.52;2.03 
7.806;-0.98;0.23;-0.26;0.00;-0.35;0.42;424.49;-37.26;50.00;1.04;-96.28;-77.53;2.02 
7.836;-1.00;0.21;-0.28;-0.35;0.14;0.21;421.50;-39.17;51.00;1.06;-96.31;-77.52;2.04 
7.866;-1.02;0.21;-0.26;-0.14;-0.35;0.14;423.49;-38.22;52.00;1.07;-96.33;-77.51;2.06 
7.896;-1.01;0.21;-0.27;-0.14;-0.14;0.14;421.50;-39.17;52.00;1.07;-96.36;-77.52;2.08 
7.927;-1.02;0.20;-0.29;0.00;1.32;-0.28;423.49;-41.08;52.00;1.08;-96.38;-77.50;2.09 
7.957;-1.01;0.21;-0.30;0.07;0.28;0.35;424.49;-38.22;51.00;1.07;-96.42;-77.46;2.11 
7.987;-0.99;0.19;-0.27;-0.21;-1.18;-0.21;424.49;-37.26;50.00;1.04;-96.46;-77.45;2.14 
8.016;-1.01;0.21;-0.27;-0.49;-0.97;-0.07;427.47;-38.22;49.00;1.07;-96.45;-77.48;2.14 
8.046;-1.00;0.22;-0.26;-0.21;0.28;-0.07;424.49;-40.13;50.00;1.06;-96.47;-77.49;2.15 
8.076;-1.02;0.21;-0.27;-0.21;-0.35;0.00;421.50;-38.22;52.00;1.08;-96.48;-77.47;2.16 
8.106;-1.00;0.19;-0.29;-0.35;-0.56;-0.14;424.49;-40.13;49.00;1.06;-96.50;-77.48;2.18 
8.136;-1.00;0.18;-0.26;-0.07;-0.63;-0.28;424.49;-39.17;51.00;1.05;-96.51;-77.49;2.19 
8.165;-1.01;0.22;-0.26;-0.28;0.28;0.14;422.50;-39.17;52.00;1.07;-96.52;-77.50;2.19 
8.195;-1.00;0.20;-0.26;0.00;0.07;-0.07;429.46;-38.22;48.00;1.05;-96.54;-77.48;2.21 
8.226;-1.01;0.18;-0.29;-0.14;-0.49;0.07;426.47;-37.26;50.00;1.07;-96.56;-77.47;2.22 
8.256;-1.02;0.19;-0.27;-0.21;-0.35;-0.28;424.49;-38.22;47.00;1.07;-96.58;-77.49;2.24 
8.286;-1.02;0.21;-0.29;-0.14;-0.14;0.14;422.50;-38.22;48.00;1.08;-96.58;-77.50;2.25 
8.317;-1.00;0.18;-0.29;-0.07;0.00;0.14;427.47;-38.22;52.00;1.06;-96.62;-77.47;2.27 
8.347;-1.02;0.20;-0.29;-0.21;-0.56;0.35;425.48;-37.26;49.00;1.08;-96.65;-77.46;2.30 
8.377;-1.00;0.19;-0.27;-0.14;0.28;-0.07;424.49;-38.22;50.00;1.05;-96.67;-77.47;2.32 
8.407;-1.02;0.22;-0.29;-0.14;0.28;0.21;424.49;-38.22;49.00;1.08;-96.70;-77.44;2.34 
8.437;-1.02;0.19;-0.26;-0.07;0.21;-0.14;426.47;-38.22;52.00;1.07;-96.74;-77.42;2.37 
8.467;-1.02;0.22;-0.26;-0.07;1.39;0.14;423.49;-38.22;50.00;1.08;-96.76;-77.38;2.39 
8.497;-1.00;0.19;-0.29;-0.14;0.90;-0.35;425.48;-41.08;48.00;1.06;-96.77;-77.37;2.38 
8.528;-1.00;0.21;-0.30;-0.14;0.21;0.07;423.49;-39.17;51.00;1.06;-96.80;-77.31;2.40 
8.558;-1.01;0.22;-0.24;-0.07;-0.07;-0.42;423.49;-37.26;50.00;1.06;-96.82;-77.32;2.42 
8.588;-1.02;0.21;-0.26;0.14;2.43;-0.07;425.48;-40.13;47.00;1.07;-96.86;-77.27;2.44 
8.618;-1.01;0.20;-0.30;0.14;0.56;-0.28;425.48;-39.17;49.00;1.07;-96.89;-77.21;2.46 
8.647;-1.02;0.22;-0.26;0.00;0.21;-0.07;422.50;-39.17;51.00;1.08;-96.89;-77.19;2.44 
8.677;-1.02;0.22;-0.26;-0.35;0.07;-0.14;427.47;-38.22;50.00;1.08;-96.89;-77.18;2.44 
8.707;-1.02;0.22;-0.28;-0.07;0.49;0.35;423.49;-38.22;50.00;1.08;-96.91;-77.18;2.46 
8.738;-1.00;0.18;-0.26;-0.28;0.63;-0.14;427.47;-39.17;50.00;1.05;-96.93;-77.16;2.48 
8.767;-1.02;0.20;-0.28;-0.35;0.42;-0.07;426.47;-38.22;49.00;1.08;-96.96;-77.12;2.50 
8.797;-1.00;0.22;-0.28;0.00;0.56;-0.56;427.47;-37.26;49.00;1.06;-96.99;-77.09;2.52 
8.828;-1.02;0.21;-0.29;0.21;0.21;-0.07;422.50;-42.99;52.00;1.08;-97.02;-77.04;2.54 
8.858;-1.00;0.21;-0.27;-0.14;1.11;-0.28;423.49;-39.17;49.00;1.06;-97.04;-77.02;2.56 
8.887;-0.99;0.18;-0.29;0.07;0.90;0.00;422.50;-39.17;51.00;1.05;-97.09;-76.96;2.59 
8.917;-0.99;0.20;-0.28;0.14;-0.28;-0.07;423.49;-39.17;53.00;1.05;-97.11;-76.93;2.60 
8.947;-1.00;0.20;-0.26;-0.07;0.56;0.14;425.48;-37.26;51.00;1.05;-97.14;-76.92;2.63 
8.977;-1.01;0.20;-0.28;-0.07;0.49;0.14;424.49;-39.17;50.00;1.07;-97.16;-76.90;2.65 
9.006;-1.01;0.22;-0.28;-0.28;0.63;0.21;424.49;-37.26;51.00;1.07;-97.20;-76.87;2.69 
9.037;-1.00;0.20;-0.25;-0.28;0.70;-0.35;426.47;-41.08;49.00;1.05;-97.24;-76.87;2.73 
9.067;-1.02;0.20;-0.26;0.00;0.42;0.21;427.47;-40.13;51.00;1.07;-97.28;-76.85;2.77 
9.097;-1.02;0.22;-0.29;0.00;1.04;-0.14;426.47;-40.13;50.00;1.08;-97.30;-76.83;2.80 
9.128;-1.01;0.19;-0.26;-0.07;0.21;0.14;426.47;-39.17;50.00;1.06;-97.35;-76.78;2.83 
9.158;-1.01;0.20;-0.26;-0.28;0.77;-0.14;426.47;-37.26;51.00;1.06;-97.38;-76.73;2.86 
9.188;-1.01;0.20;-0.29;-0.14;0.14;0.42;427.47;-40.13;52.00;1.07;-97.41;-76.71;2.89 
9.217;-1.01;0.20;-0.27;0.00;1.18;-0.21;423.49;-39.17;52.00;1.06;-97.45;-76.71;2.93 
9.248;-1.02;0.20;-0.30;-0.07;1.60;0.21;423.49;-39.17;51.00;1.08;-97.49;-76.66;2.96 
9.278;-1.02;0.18;-0.29;0.07;0.77;-0.21;424.49;-40.13;48.00;1.08;-97.52;-76.60;2.97 
9.308;-1.00;0.18;-0.29;-0.14;-0.21;0.07;424.49;-37.26;53.00;1.06;-97.56;-76.57;3.01 
9.338;-1.01;0.18;-0.27;-0.14;0.28;-0.28;423.49;-38.22;53.00;1.06;-97.57;-76.56;3.03 
9.368;-1.01;0.20;-0.29;0.07;0.56;0.00;428.46;-39.17;47.00;1.07;-97.60;-76.54;3.06 
9.398;-1.02;0.21;-0.30;0.07;0.90;-0.21;424.49;-42.99;48.00;1.08;-97.64;-76.51;3.10 
9.427;-1.03;0.20;-0.28;0.00;0.42;-0.07;423.49;-39.17;49.00;1.09;-97.67;-76.47;3.13 
9.457;-1.02;0.21;-0.28;0.14;0.42;-0.07;423.49;-38.22;51.00;1.08;-97.68;-76.45;3.14 
9.487;-1.00;0.19;-0.28;0.14;1.39;-0.07;425.48;-41.08;51.00;1.06;-97.71;-76.43;3.17 
9.517;-1.02;0.22;-0.30;0.00;0.90;-0.42;426.47;-37.26;53.00;1.09;-97.73;-76.38;3.18 
9.548;-1.02;0.24;-0.30;0.07;0.49;-0.56;424.49;-40.13;49.00;1.09;-97.77;-76.35;3.21 
9.578;-1.01;0.22;-0.27;-0.21;0.77;-0.28;425.48;-38.22;52.00;1.07;-97.80;-76.33;3.25 
9.608;-0.99;0.19;-0.29;0.00;0.35;-0.21;423.49;-37.26;50.00;1.05;-97.83;-76.30;3.28 
9.638;-1.02;0.22;-0.29;0.14;1.18;0.07;423.49;-38.22;53.00;1.08;-97.85;-76.29;3.31 
9.668;-1.01;0.21;-0.25;0.21;1.18;-0.28;425.48;-39.17;52.00;1.06;-97.88;-76.25;3.33 
9.698;-1.01;0.20;-0.27;-0.07;0.49;-0.28;423.49;-40.13;51.00;1.06;-97.92;-76.20;3.36 
9.728;-1.02;0.22;-0.27;0.00;0.28;-0.21;425.48;-41.08;52.00;1.08;-97.94;-76.19;3.39 
9.757;-1.02;0.22;-0.29;-0.21;1.32;0.42;424.49;-35.35;52.00;1.08;-97.99;-76.12;3.42 
9.787;-1.02;0.19;-0.25;0.07;0.63;-0.07;423.49;-40.13;54.00;1.07;-98.02;-76.07;3.45 
9.817;-1.01;0.19;-0.29;-0.28;-0.21;0.00;423.49;-38.22;51.00;1.07;-98.06;-76.04;3.49 
9.848;-1.01;0.22;-0.31;0.14;0.77;-0.14;426.47;-38.22;53.00;1.08;-98.09;-76.01;3.53 
9.878;-1.00;0.21;-0.26;-0.07;0.49;-0.28;425.48;-40.13;52.00;1.05;-98.13;-75.99;3.56 
9.908;-1.02;0.18;-0.26;0.42;1.53;-0.35;424.49;-37.26;53.00;1.07;-98.14;-75.96;3.58 
9.938;-1.02;0.16;-0.33;0.14;1.18;1.32;426.47;-38.22;54.00;1.08;-98.18;-75.91;3.61 
9.968;-1.02;0.18;-0.30;-0.49;0.21;1.32;422.50;-39.17;54.00;1.08;-98.23;-75.86;3.66 
9.998;-1.02;0.16;-0.28;-1.04;-1.39;2.30;422.50;-39.17;55.00;1.07;-98.28;-75.85;3.72 
10.028;-1.02;0.18;-0.30;-1.95;-0.97;3.90;428.46;-40.13;50.00;1.08;-98.36;-75.85;3.82 
10.059;-1.04;0.25;-0.37;-2.99;-3.97;3.76;425.48;-41.08;50.00;1.13;-98.48;-75.80;3.96 
10.089;-1.04;0.29;-0.35;-4.52;-14.12;-0.21;428.46;-40.13;49.00;1.13;-98.55;-75.94;4.12 
10.119;-1.01;0.29;-0.38;-5.84;-16.28;-5.01;424.49;-40.13;50.00;1.12;-98.42;-76.28;4.15 
