Time(s) acc_x(g) acc_y(g) acc_z(g) gyr_x(°/s) gyr_y(°/s) gyr_z(°/s) mag_x(G) mag_y(G) mag_z(G) SVM(g) yaw(°) pitch(°) roll(°)
0.000;0.71;0.33;0.56;-1.32;4.45;-5.50;472.24;-536.74;-222.00;0.96;163.87;43.38;34.08 
0.031;0.75;0.33;0.62;-0.77;7.37;-6.61;478.20;-534.83;-221.00;1.03;164.18;43.19;34.19 
0.061;0.70;0.32;0.58;-2.09;13.01;-6.40;477.21;-534.83;-223.00;0.96;164.55;42.88;34.30 
0.091;0.70;0.38;0.54;-2.23;8.35;-6.33;475.22;-533.87;-223.00;0.96;164.95;42.56;34.41 
0.121;0.70;0.33;0.59;-3.27;10.71;-7.58;476.22;-529.08;-227.00;0.97;165.36;42.26;34.52 
0.151;0.70;0.35;0.60;-1.81;12.66;-7.58;475.22;-530.99;-227.00;0.99;165.83;41.90;34.64 
0.181;0.74;0.33;0.63;-0.77;17.04;-8.14;477.21;-526.20;-227.00;1.03;166.24;41.51;34.77 
0.211;0.70;0.32;0.59;-0.07;20.24;-8.00;480.19;-521.41;-232.00;0.97;166.73;40.99;34.92 
0.242;0.69;0.33;0.58;0.35;19.83;-6.61;478.20;-514.70;-233.00;0.96;167.08;40.51;35.06 
0.272;0.69;0.34;0.56;-0.14;20.66;-3.55;480.19;-513.74;-238.00;0.95;167.40;40.06;35.15 
0.302;0.70;0.38;0.55;1.11;22.12;-3.69;482.18;-509.91;-235.00;0.97;167.66;39.63;35.22 
0.332;0.65;0.40;0.59;2.16;24.28;-5.98;484.17;-507.03;-238.00;0.96;167.94;39.10;35.37 
0.362;0.66;0.41;0.58;-0.42;20.38;-6.47;483.17;-504.16;-240.00;0.97;168.27;38.53;35.59 
0.392;0.69;0.42;0.62;-3.27;25.46;-9.04;481.19;-499.36;-239.00;1.02;168.71;37.98;35.73 
0.422;0.62;0.38;0.50;-2.64;23.58;-10.85;484.17;-497.45;-242.00;0.88;169.22;37.33;35.92 
0.453;0.64;0.35;0.53;-4.45;17.60;-11.90;483.17;-490.74;-247.00;0.90;169.77;36.72;36.14 
0.483;0.63;0.34;0.56;-4.94;17.67;-12.03;485.16;-485.95;-251.00;0.91;170.38;36.18;36.29 
0.513;0.65;0.34;0.54;-1.04;19.69;-12.59;483.17;-481.15;-249.00;0.91;170.90;35.65;36.48 
0.544;0.60;0.33;0.54;1.74;20.87;-15.65;487.15;-476.36;-250.00;0.87;171.39;35.03;36.77 
0.574;0.54;0.34;0.50;2.30;24.00;-19.55;487.15;-472.53;-255.00;0.81;172.00;34.25;37.16 
0.603;0.49;0.30;0.38;3.97;24.42;-22.61;491.13;-464.86;-251.00;0.69;172.58;33.48;37.63 
0.633;0.54;0.19;0.14;3.41;18.71;-17.04;491.13;-462.94;-252.00;0.59;173.02;32.81;38.14 
0.663;0.44;0.26;0.09;-6.75;-21.84;-1.32;495.10;-454.32;-255.00;0.52;172.96;33.04;38.35 
0.693;0.49;0.30;0.40;-8.28;-50.30;-5.77;494.11;-457.19;-252.00;0.70;172.97;33.96;38.29 
0.723;0.75;0.25;0.48;-1.53;-18.92;-0.07;490.13;-460.07;-248.00;0.92;173.03;34.86;38.20 
0.754;0.60;0.10;0.13;-10.85;5.08;-3.34;490.13;-461.02;-245.00;0.62;172.99;35.34;37.95 
0.784;0.17;0.28;-0.14;-12.87;-16.00;2.02;488.15;-459.11;-247.00;0.36;172.70;35.84;37.77 
0.814;0.14;0.32;0.11;-4.80;-55.79;-9.88;488.15;-463.90;-247.00;0.37;172.97;36.51;37.93 
0.843;0.40;0.22;0.24;3.55;-38.05;-18.09;487.15;-464.86;-239.00;0.52;173.24;37.10;38.50 
0.873;0.35;0.12;0.29;-8.70;-18.71;-4.03;489.14;-466.78;-235.00;0.47;173.40;37.57;38.63 
0.903;0.38;0.16;0.20;-32.35;5.22;-3.41;486.16;-464.86;-239.00;0.46;174.17;37.81;38.15 
0.933;0.17;0.10;0.12;-27.41;5.98;-5.43;488.15;-461.98;-243.00;0.23;175.17;37.91;37.50 
0.964;0.18;0.12;0.37;-10.30;11.41;-5.22;484.17;-457.19;-245.00;0.43;176.32;37.52;37.28 
0.994;0.09;0.06;0.90;-24.49;21.08;-13.22;485.16;-458.15;-247.00;0.91;177.60;36.74;37.04 
1.024;-2.36;2.42;1.01;64.63;-285.29;106.71;489.14;-450.48;-253.00;3.53;178.26;35.83;36.87 
1.055;16.38;5.42;-0.26;-163.83;-1710.54;-297.53;489.14;-575.08;-53.00;17.26;45.09;50.91;36.34 
1.085;4.78;3.93;-1.19;-393.32;1145.60;-94.19;531.89;-507.99;-11.00;6.30;133.74;45.67;44.33 
1.115;2.02;1.47;-5.56;-690.43;430.33;323.69;499.08;-484.03;-205.00;6.10;-169.44;36.29;34.46 
1.145;2.18;1.65;-4.59;-93.63;537.74;154.23;408.61;-494.57;-296.00;5.34;-167.55;33.50;19.22 
1.175;0.38;0.25;-3.20;139.55;559.79;-14.12;404.63;-424.60;-327.00;3.23;-171.87;17.68;21.50 
1.205;-0.50;-0.10;-2.11;-185.32;590.68;3.83;412.59;-296.17;-334.00;2.17;-172.59;2.23;21.71 
1.235;-1.15;-0.80;-2.58;-150.96;446.47;19.55;375.80;-217.57;-332.00;2.94;-172.47;-13.49;15.99 
1.266;-1.69;-0.76;-1.54;0.42;261.63;62.96;367.85;-170.61;-311.00;2.41;-173.68;-24.24;14.56 
1.295;-1.97;-0.40;-0.06;30.96;87.17;27.27;371.83;-160.06;-301.00;2.01;-173.16;-30.26;15.74 
1.325;0.76;0.87;-0.79;9.04;197.57;64.97;385.74;-129.39;-278.00;1.40;-173.25;-33.47;15.57 
1.355;-8.31;-1.43;-0.56;-89.25;191.17;314.85;404.63;-115.02;-255.00;8.45;-177.73;-41.45;18.01 
1.375;-0.78;0.09;0.25;32.21;195.55;-5.22;401.65;-54.63;-181.00;0.82;-136.78;-46.01;14.10 
1.405;-0.74;0.01;0.18;1.46;248.97;15.72;402.65;-41.21;-152.00;0.76;-133.50;-51.84;14.38 
1.435;-1.01;0.19;-0.28;-42.85;310.33;63.44;403.64;-27.80;-114.00;1.07;-129.41;-59.69;14.70 
1.466;-0.77;-0.10;-0.30;25.81;108.31;40.42;420.54;-29.71;-66.00;0.83;-126.38;-64.04;15.83 
1.496;-1.08;0.19;-0.76;124.38;-29.77;56.63;432.47;-37.38;-47.00;1.33;-125.10;-64.66;18.19 
1.526;-1.76;0.54;0.40;-29.84;120.49;-17.88;437.44;-42.17;-39.00;1.88;-123.65;-64.67;19.81 
1.557;-0.83;0.09;0.24;-83.34;126.89;-19.90;432.47;-34.50;-25.00;0.87;-121.36;-66.74;18.77 
1.587;-1.17;0.00;0.11;-41.04;153.67;10.92;433.47;-36.42;-14.00;1.18;-118.43;-69.16;17.77 
1.617;-1.17;0.19;-0.03;-3.62;129.95;0.97;432.47;-37.38;3.00;1.19;-114.24;-71.35;17.48 
1.646;-1.20;0.12;0.00;-13.57;68.38;4.31;431.48;-38.34;17.00;1.21;-110.48;-72.53;17.23 
1.675;-1.07;-0.04;0.00;-1.18;-9.81;19.90;432.47;-41.21;29.00;1.07;-109.36;-72.59;17.32 
1.705;-1.09;0.24;-0.38;6.75;-85.70;12.52;437.44;-44.09;19.00;1.18;-110.61;-72.09;17.72 
1.735;-1.20;0.13;-0.40;24.00;-159.17;-4.73;441.42;-43.13;4.00;1.27;-113.35;-71.31;17.81 
1.766;-1.46;0.44;0.57;60.31;-170.78;-26.37;439.43;-42.17;-17.00;1.63;-116.12;-69.70;17.67 
1.796;-0.80;-0.07;0.14;-26.50;70.75;-54.47;432.47;-33.55;-21.00;0.82;-114.48;-70.85;15.91 
1.825;-0.35;-0.43;-0.58;-9.60;-43.41;40.70;428.49;-30.67;-18.00;0.80;-112.76;-72.15;15.22 
1.854;-1.14;0.25;0.11;7.58;-91.62;18.23;429.49;-35.46;-32.00;1.17;-114.67;-70.46;15.94 
1.884;-0.95;0.25;0.26;3.48;-44.17;0.56;436.45;-34.50;-38.00;1.02;-115.97;-68.91;16.28 
1.914;-0.94;0.27;0.21;3.90;-41.81;2.37;433.47;-37.38;-47.00;1.00;-116.39;-68.16;16.28 
1.944;-0.85;0.23;0.54;0.28;10.43;-0.42;434.46;-35.46;-52.00;1.03;-116.64;-67.50;16.33 
1.974;-1.00;0.14;-0.04;-0.07;17.32;4.31;429.49;-34.50;-46.00;1.01;-115.96;-68.05;16.24 
2.003;-0.93;0.22;0.22;0.35;-1.67;-0.07;432.47;-35.46;-48.00;0.98;-115.69;-68.15;16.23 
2.032;-0.86;0.22;0.06;2.64;13.50;3.34;432.47;-36.42;-52.00;0.89;-115.33;-68.36;16.17 
2.062;-0.97;0.17;0.04;1.32;-5.98;1.67;433.47;-34.50;-43.00;0.99;-115.13;-68.39;16.21 
2.092;-1.01;0.19;0.34;-5.50;60.94;13.84;435.45;-37.38;-46.00;1.08;-114.90;-68.59;16.27 
2.122;-1.02;0.20;0.22;-15.51;101.01;10.99;438.44;-40.26;-30.00;1.06;-113.89;-69.79;16.35 
2.153;-1.03;0.25;0.03;-10.78;64.00;-8.28;436.45;-39.30;-18.00;1.06;-112.27;-71.28;16.25 
2.183;-1.00;0.14;-0.83;17.39;6.05;-7.03;437.44;-38.34;-14.00;1.31;-110.78;-72.44;15.79 
2.213;-0.16;0.77;-0.21;0.63;21.15;-21.70;438.44;-35.46;-10.00;0.81;-110.12;-72.94;15.39 
2.243;-1.02;0.18;0.02;-1.81;42.64;-20.45;427.50;-35.46;-3.00;1.04;-108.60;-74.11;14.67 
2.273;-1.10;0.11;0.00;3.20;54.82;-10.92;425.51;-35.46;4.00;1.11;-106.96;-75.32;13.90 
2.303;-0.93;0.13;-0.08;24.00;76.10;-5.22;425.51;-33.55;12.00;0.94;-105.25;-76.30;13.42 
2.333;-0.95;0.19;-0.10;-2.02;12.10;10.16;425.51;-33.55;28.00;0.97;-104.01;-76.71;13.25 
2.364;-0.89;0.08;-0.25;-0.56;-41.95;21.77;428.49;-35.46;24.00;0.93;-104.36;-76.42;13.53 
2.394;-1.11;0.22;-0.31;3.69;-89.46;29.70;430.48;-38.34;18.00;1.17;-105.89;-75.50;14.25 
2.424;-1.14;0.26;0.13;0.97;-59.41;-7.17;435.45;-37.38;6.00;1.18;-107.08;-74.81;14.37 
2.453;-0.98;0.22;0.14;-0.97;-20.10;-13.98;433.47;-34.50;0.00;1.01;-107.17;-74.81;13.86 
2.483;-0.78;0.22;0.15;-1.74;-2.92;-1.18;430.48;-35.46;-7.00;0.82;-106.92;-74.99;13.44 
2.513;-1.10;0.19;-0.10;-0.35;-3.76;-0.77;429.49;-33.55;-4.00;1.12;-106.84;-75.00;13.42 
2.543;-1.02;0.22;-0.10;4.17;-22.05;1.60;429.49;-34.50;-8.00;1.05;-106.73;-75.03;13.30 
2.574;-0.98;0.16;0.06;0.70;-23.17;-0.14;434.46;-35.46;-8.00;0.99;-106.75;-74.86;13.12 
2.604;-0.99;0.18;0.10;0.00;-6.12;1.18;434.46;-34.50;-13.00;1.01;-106.79;-74.69;13.02 
2.633;-1.02;0.19;0.06;-0.49;-1.18;-0.42;428.49;-33.55;-16.00;1.04;-106.63;-74.75;12.90 
2.663;-0.98;0.20;0.06;0.21;-2.43;-0.42;431.48;-35.46;-14.00;1.00;-106.44;-74.83;12.77 
2.693;-1.02;0.18;0.05;0.21;4.80;-0.56;431.48;-33.55;-17.00;1.04;-106.23;-74.95;12.63 
2.723;-1.02;0.18;-0.03;-0.14;3.41;-0.97;432.47;-35.46;-14.00;1.04;-105.93;-75.19;12.48 
2.753;-1.00;0.15;0.00;0.14;-4.45;0.14;432.47;-36.42;-13.00;1.01;-105.76;-75.26;12.37 
2.783;-1.01;0.18;0.05;-0.07;-4.73;0.21;429.49;-32.59;-15.00;1.03;-105.66;-75.24;12.26 
2.813;-0.98;0.18;0.05;-0.70;-1.53;-0.07;432.47;-33.55;-17.00;1.00;-105.50;-75.28;12.14 
2.843;-1.00;0.18;0.06;0.00;0.28;-0.70;431.48;-36.42;-20.00;1.02;-105.31;-75.39;12.00 
2.873;-1.00;0.16;0.03;0.63;-0.77;-0.07;432.47;-34.50;-16.00;1.01;-105.08;-75.53;11.85 
2.903;-1.01;0.18;0.02;-0.07;-0.97;0.07;432.47;-30.67;-15.00;1.03;-104.88;-75.63;11.72 
2.933;-0.99;0.17;0.05;-0.35;-1.04;0.00;433.47;-33.55;-16.00;1.01;-104.68;-75.74;11.59 
2.964;-1.01;0.17;0.06;-0.07;-0.49;-0.07;432.47;-29.71;-18.00;1.03;-104.52;-75.81;11.48 
2.994;-1.02;0.14;0.03;0.00;0.49;-0.90;432.47;-35.46;-15.00;1.03;-104.30;-75.95;11.34 
3.024;-1.02;0.18;0.06;0.28;-0.77;0.14;431.48;-35.46;-13.00;1.04;-104.09;-76.08;11.20 
3.054;-0.98;0.20;0.05;0.00;-1.18;0.35;432.47;-34.50;-17.00;1.00;-103.90;-76.18;11.08 
3.084;-1.00;0.18;0.04;-0.63;-2.16;-0.21;429.49;-36.42;-17.00;1.02;-103.73;-76.26;10.95 
3.114;-0.98;0.19;0.07;-0.21;-3.27;0.07;430.48;-32.59;-19.00;1.00;-103.58;-76.30;10.84 
3.144;-1.00;0.19;0.06;-0.21;-0.21;-0.56;429.49;-32.59;-18.00;1.02;-103.43;-76.34;10.72 
3.175;-1.02;0.18;0.04;-0.07;0.21;-0.56;428.49;-34.50;-16.00;1.04;-103.21;-76.48;10.57 
3.205;-1.00;0.19;0.04;0.00;0.07;-0.07;434.46;-33.55;-18.00;1.02;-103.01;-76.59;10.44 
3.234;-0.97;0.16;0.02;0.00;0.28;-0.21;430.48;-33.55;-16.00;0.98;-102.84;-76.69;10.34 
3.264;-1.02;0.19;0.03;-0.21;-1.67;-0.42;428.49;-34.50;-17.00;1.04;-102.67;-76.80;10.22 
3.294;-0.99;0.17;0.07;-0.28;-1.67;0.07;430.48;-32.59;-19.00;1.01;-102.50;-76.85;10.09 
3.324;-1.00;0.18;0.06;-0.21;-0.14;0.28;430.48;-34.50;-17.00;1.02;-102.36;-76.91;10.00 
3.354;-0.99;0.18;0.06;-0.14;-0.21;-0.49;429.49;-32.59;-18.00;1.01;-102.20;-77.00;9.89 
3.383;-0.98;0.18;0.05;0.07;-0.35;0.07;433.47;-35.46;-16.00;1.00;-102.04;-77.08;9.79 
3.413;-0.97;0.18;0.06;0.00;0.83;0.56;433.47;-31.63;-16.00;0.99;-101.88;-77.17;9.68 
3.443;-1.01;0.21;0.06;-0.90;1.39;0.07;432.47;-32.59;-17.00;1.03;-101.75;-77.24;9.61 
3.474;-1.00;0.17;0.06;-0.35;1.18;-0.42;428.49;-31.63;-17.00;1.02;-101.60;-77.33;9.51 
3.504;-1.00;0.18;0.03;0.21;2.37;0.28;431.48;-34.50;-18.00;1.02;-101.44;-77.43;9.41 
3.534;-1.02;0.19;0.02;-0.14;1.25;-0.35;430.48;-34.50;-20.00;1.04;-101.28;-77.56;9.32 
3.564;-1.02;0.18;0.04;-0.28;-1.25;-0.14;433.47;-34.50;-16.00;1.04;-101.14;-77.64;9.23 
3.593;-0.99;0.19;0.06;-0.42;-0.42;0.70;431.48;-31.63;-17.00;1.01;-101.03;-77.68;9.16 
3.623;-1.01;0.20;0.04;-0.07;-0.07;-0.56;433.47;-34.50;-17.00;1.03;-100.91;-77.74;9.09 
3.653;-1.02;0.22;0.08;0.07;-0.83;-0.49;429.49;-33.55;-20.00;1.05;-100.77;-77.81;9.00 
3.684;-0.97;0.21;0.10;-0.35;1.74;-0.42;432.47;-33.55;-19.00;1.00;-100.65;-77.85;8.93 
3.714;-1.02;0.18;0.00;-0.14;1.67;-1.53;431.48;-32.59;-19.00;1.04;-100.48;-77.99;8.81 
3.743;-1.00;0.18;0.05;-0.14;-1.53;-0.28;431.48;-32.59;-17.00;1.02;-100.31;-78.10;8.69 
3.774;-1.00;0.17;0.07;0.42;0.21;-1.11;430.48;-34.50;-18.00;1.02;-100.14;-78.17;8.56 
3.804;-1.02;0.17;0.03;-0.28;0.00;-0.83;429.49;-32.59;-16.00;1.03;-99.96;-78.27;8.43 
3.834;-0.96;0.18;0.08;-0.56;-0.83;0.56;429.49;-33.55;-14.00;0.98;-99.82;-78.34;8.32 
3.864;-1.02;0.17;0.02;0.07;0.49;-0.70;430.48;-36.42;-18.00;1.03;-99.68;-78.40;8.22 
3.893;-1.02;0.20;0.04;-0.63;-1.74;0.83;428.49;-33.55;-14.00;1.04;-99.54;-78.48;8.12 
3.923;-0.98;0.21;0.10;-0.35;0.35;0.35;432.47;-35.46;-17.00;1.01;-99.49;-78.45;8.10 
3.953;-0.98;0.18;0.05;0.00;4.80;-0.77;428.49;-31.63;-20.00;1.00;-99.37;-78.53;8.02 
3.984;-1.00;0.19;0.00;-0.28;0.42;-0.14;430.48;-30.67;-16.00;1.02;-99.23;-78.67;7.94 
4.014;-1.02;0.19;0.06;-0.28;-1.88;-1.04;427.50;-30.67;-18.00;1.04;-99.10;-78.71;7.84 
4.044;-1.00;0.19;0.05;-0.14;1.25;-0.35;431.48;-31.63;-17.00;1.02;-98.98;-78.75;7.75 
4.074;-1.02;0.14;0.09;0.14;1.46;-0.49;431.48;-33.55;-17.00;1.03;-98.86;-78.83;7.67 
4.104;-1.03;0.15;0.06;0.14;-0.35;0.42;428.49;-30.67;-17.00;1.04;-98.74;-78.89;7.59 
4.134;-0.96;0.14;0.10;0.14;1.53;1.04;426.51;-32.59;-18.00;0.98;-98.66;-78.92;7.54 
4.164;-1.00;0.18;0.02;-0.28;2.78;-1.04;432.47;-33.55;-17.00;1.02;-98.55;-78.99;7.47 
4.193;-1.01;0.16;0.04;-0.70;0.28;-0.07;431.48;-32.59;-19.00;1.02;-98.44;-79.08;7.40 
4.223;-1.01;0.18;0.06;-0.21;0.90;0.63;431.48;-35.46;-14.00;1.03;-98.35;-79.11;7.34 
4.253;-1.02;0.18;0.02;-0.28;1.67;0.21;432.47;-31.63;-16.00;1.04;-98.27;-79.17;7.30 
4.284;-1.02;0.18;0.03;-0.14;0.70;-0.14;429.49;-34.50;-17.00;1.04;-98.17;-79.24;7.24 
4.313;-0.99;0.17;0.06;-0.07;0.83;0.56;428.49;-33.55;-16.00;1.01;-98.08;-79.28;7.17 
4.343;-1.04;0.17;0.06;-0.14;0.90;-0.07;429.49;-31.63;-18.00;1.06;-98.00;-79.32;7.13 
4.373;-1.00;0.17;0.06;-0.42;0.63;-0.14;429.49;-31.63;-19.00;1.02;-97.90;-79.39;7.06 
4.403;-0.98;0.19;0.06;-0.35;1.95;-0.28;430.48;-33.55;-17.00;1.00;-97.85;-79.42;7.05 
4.433;-1.02;0.16;0.02;0.14;2.16;-0.77;430.48;-34.50;-16.00;1.03;-97.73;-79.53;6.96 
4.463;-0.99;0.18;0.02;-0.28;-0.35;0.28;429.49;-32.59;-18.00;1.01;-97.63;-79.60;6.90 
4.494;-1.02;0.20;0.02;-0.14;-0.63;-0.56;432.47;-30.67;-13.00;1.04;-97.55;-79.62;6.85 
4.524;-1.02;0.18;0.08;-0.35;0.42;0.28;428.49;-30.67;-19.00;1.04;-97.46;-79.67;6.78 
4.554;-1.02;0.18;0.05;-0.21;1.53;0.49;428.49;-34.50;-15.00;1.04;-97.38;-79.73;6.73 
4.584;-1.02;0.16;0.03;0.28;1.88;-0.28;430.48;-31.63;-15.00;1.03;-97.28;-79.81;6.66 
4.614;-1.00;0.17;0.02;0.00;0.56;0.97;431.48;-34.50;-18.00;1.01;-97.19;-79.89;6.61 
4.644;-0.99;0.18;0.05;-0.77;-0.70;-0.14;430.48;-31.63;-15.00;1.01;-97.14;-79.92;6.58 
4.674;-1.02;0.18;0.06;-0.28;0.07;0.35;428.49;-33.55;-17.00;1.04;-97.08;-79.93;6.54 
4.704;-0.99;0.18;0.02;0.21;0.00;0.63;433.47;-34.50;-17.00;1.01;-97.01;-79.96;6.50 
4.733;-1.00;0.20;0.06;-0.14;-0.77;0.90;427.50;-34.50;-16.00;1.02;-96.96;-79.96;6.47 
4.763;-0.99;0.20;0.06;-0.35;-0.56;-0.21;429.49;-32.59;-16.00;1.01;-96.93;-79.94;6.46 
4.794;-1.02;0.20;0.07;-0.42;-0.49;-1.04;428.49;-32.59;-16.00;1.04;-96.83;-79.98;6.39 
4.824;-1.02;0.18;0.05;0.21;-1.18;0.14;428.49;-32.59;-16.00;1.04;-96.76;-80.00;6.34 
4.854;-1.03;0.19;0.06;0.28;-2.43;0.00;431.48;-35.46;-17.00;1.05;-96.70;-80.00;6.31 
4.885;-0.99;0.20;0.07;-0.83;-1.95;0.35;428.49;-32.59;-19.00;1.01;-96.62;-79.96;6.25 
4.915;-1.01;0.18;0.06;-0.63;0.49;0.00;431.48;-36.42;-21.00;1.03;-96.59;-79.91;6.24 
4.945;-1.00;0.18;0.02;0.00;0.14;-0.70;430.48;-34.50;-22.00;1.02;-96.51;-79.95;6.18 
4.974;-1.00;0.19;0.07;-0.07;-1.25;0.56;432.47;-30.67;-15.00;1.02;-96.45;-79.96;6.15 
5.004;-1.03;0.20;0.08;-0.63;0.14;0.42;431.48;-33.55;-19.00;1.05;-96.41;-79.97;6.13 
5.034;-1.02;0.18;0.03;-0.70;0.63;0.90;427.50;-31.63;-18.00;1.04;-96.35;-79.98;6.09 
5.064;-1.02;0.14;0.02;0.21;-0.35;0.63;428.49;-34.50;-21.00;1.03;-96.30;-80.01;6.06 
5.095;-1.08;0.12;0.05;-0.28;-2.57;2.57;430.48;-31.63;-19.00;1.09;-96.25;-80.01;6.03 
5.124;-1.08;0.06;0.06;-0.97;-1.74;5.91;432.47;-32.59;-18.00;1.08;-96.26;-79.94;6.06 
5.154;-1.09;0.05;0.08;-3.06;-2.09;9.04;434.46;-35.46;-20.00;1.09;-96.32;-79.84;6.13 
5.184;-1.07;0.02;0.09;-3.06;-1.53;14.05;431.48;-35.46;-22.00;1.07;-96.47;-79.69;6.28 
5.214;-1.10;-0.03;0.06;-2.23;-0.35;20.17;434.46;-38.34;-21.00;1.10;-96.76;-79.45;6.57 
5.244;-1.13;-0.03;0.10;-2.71;2.09;24.42;438.44;-44.09;-25.00;1.13;-97.18;-79.16;7.00 
