Time(s) acc_x(g) acc_y(g) acc_z(g) gyr_x(°/s) gyr_y(°/s) gyr_z(°/s) mag_x(G) mag_y(G) mag_z(G) SVM(g) yaw(°) pitch(°) roll(°)
0.000;0.14;0.06;0.86;0.56;1.39;3.90;370.44;-193.19;-403.00;0.87;-113.05;8.65;5.36 
0.031;0.14;0.08;0.90;0.63;-2.09;4.24;367.45;-196.06;-400.00;0.91;-113.18;8.70;5.36 
0.060;0.15;0.07;0.92;0.63;-0.28;3.83;370.44;-196.06;-405.00;0.93;-113.30;8.78;5.36 
0.089;0.15;0.07;0.92;0.21;3.48;3.41;367.45;-193.19;-401.00;0.93;-113.40;8.77;5.37 
0.120;0.14;0.09;0.85;0.28;3.55;3.27;368.45;-192.23;-399.00;0.87;-113.51;8.67;5.37 
0.150;0.13;0.06;0.86;0.42;0.90;3.20;370.44;-195.10;-399.00;0.87;-113.62;8.62;5.38 
0.180;0.14;0.10;0.87;0.56;1.04;3.20;373.43;-194.14;-403.00;0.89;-113.71;8.62;5.38 
0.210;0.18;0.07;0.90;0.21;2.30;1.74;368.45;-195.10;-401.00;0.92;-113.79;8.58;5.39 
0.240;0.10;0.10;0.91;0.14;3.13;0.97;372.43;-195.10;-402.00;0.92;-113.83;8.50;5.40 
0.270;0.11;0.08;0.88;0.21;2.16;-0.14;369.44;-195.10;-403.00;0.89;-113.85;8.41;5.43 
0.300;0.11;0.09;0.89;-0.14;1.11;-0.42;373.43;-196.06;-400.00;0.90;-113.86;8.35;5.44 
0.331;0.14;0.09;0.88;-0.42;1.39;-1.11;371.44;-196.06;-401.00;0.90;-113.84;8.30;5.44 
0.360;0.16;0.09;0.90;-0.42;2.23;-2.71;369.44;-191.28;-400.00;0.92;-113.78;8.26;5.45 
0.389;0.14;0.06;0.86;-0.28;1.95;-2.99;370.44;-194.14;-403.00;0.87;-113.70;8.19;5.44 
0.419;0.14;0.07;0.86;-0.56;1.67;-2.57;369.44;-193.19;-402.00;0.87;-113.62;8.12;5.44 
0.449;0.14;0.06;0.88;-1.04;0.35;-2.57;368.45;-193.19;-399.00;0.89;-113.54;8.07;5.44 
0.479;0.18;0.09;0.92;-1.04;1.39;-2.78;369.44;-193.19;-404.00;0.94;-113.45;8.06;5.41 
0.509;0.18;0.06;0.93;-0.49;7.23;-4.17;368.45;-190.32;-399.00;0.95;-113.36;8.01;5.39 
0.539;0.10;0.04;0.90;0.07;9.11;-3.13;370.44;-189.36;-402.00;0.91;-113.27;7.77;5.38 
0.569;0.11;0.05;0.82;0.14;3.62;-1.53;370.44;-187.45;-404.00;0.83;-113.22;7.54;5.39 
0.599;0.13;0.06;0.86;-0.97;-3.27;1.04;370.44;-189.36;-400.00;0.87;-113.22;7.52;5.36 
0.630;0.15;0.08;0.92;-0.42;-0.56;1.32;369.44;-186.49;-399.00;0.94;-113.25;7.62;5.35 
0.660;0.12;0.08;0.91;-0.21;5.50;0.77;369.44;-186.49;-403.00;0.92;-113.28;7.59;5.34 
0.690;0.14;0.06;0.83;-0.56;4.94;2.30;368.45;-188.41;-401.00;0.84;-113.34;7.45;5.32 
0.721;0.14;0.06;0.86;-0.97;1.32;4.17;369.44;-187.45;-398.00;0.87;-113.44;7.38;5.28 
0.751;0.16;0.07;0.88;-0.49;0.14;4.45;370.44;-187.45;-402.00;0.90;-113.57;7.40;5.24 
0.780;0.17;0.09;0.90;0.21;-0.14;4.45;367.45;-190.32;-403.00;0.92;-113.70;7.46;5.22 
0.809;0.16;0.08;0.95;-0.63;1.95;5.29;369.44;-188.41;-401.00;0.97;-113.83;7.51;5.21 
0.838;0.14;0.06;0.92;0.63;5.08;6.26;368.45;-187.45;-404.00;0.93;-114.02;7.44;5.17 
0.868;0.08;0.08;0.89;2.78;5.63;6.54;372.43;-189.36;-400.00;0.90;-114.21;7.31;5.19 
0.898;0.06;0.12;0.90;2.99;3.34;5.91;369.44;-189.36;-401.00;0.91;-114.42;7.18;5.27 
0.929;0.12;0.10;0.83;1.46;-0.42;3.76;371.44;-188.41;-398.00;0.84;-114.57;7.13;5.36 
0.959;0.14;0.05;0.85;0.70;-2.16;2.99;370.44;-187.45;-402.00;0.86;-114.66;7.20;5.44 
0.989;0.16;0.07;0.89;0.77;-0.70;3.69;373.43;-190.32;-400.00;0.91;-114.74;7.30;5.45 
1.020;0.18;0.08;0.86;0.63;2.92;3.13;370.44;-190.32;-399.00;0.88;-114.83;7.36;5.44 
1.050;0.15;0.04;0.87;0.42;3.76;3.62;373.43;-187.45;-399.00;0.88;-114.94;7.28;5.43 
1.080;0.14;0.07;0.86;-1.18;-4.73;4.66;372.43;-191.28;-401.00;0.87;-115.07;7.31;5.40 
1.110;0.15;0.07;0.91;-1.32;-5.63;5.01;370.44;-190.32;-401.00;0.92;-115.17;7.52;5.32 
1.139;0.17;0.09;0.86;0.77;-0.63;3.69;371.44;-194.14;-402.00;0.88;-115.28;7.68;5.28 
1.168;0.18;0.08;0.92;0.77;4.31;3.34;370.44;-194.14;-401.00;0.94;-115.37;7.70;5.29 
1.198;0.14;0.09;0.82;-0.14;5.08;2.16;370.44;-193.19;-399.00;0.84;-115.46;7.59;5.33 
1.229;0.10;0.06;0.80;-2.92;0.90;1.25;371.44;-192.23;-398.00;0.81;-115.50;7.49;5.31 
1.259;0.14;0.06;0.81;-4.17;-3.41;0.97;369.44;-192.23;-400.00;0.82;-115.52;7.52;5.19 
1.289;0.14;0.06;0.78;-1.95;-10.43;2.16;372.43;-192.23;-399.00;0.79;-115.53;7.74;5.07 
1.319;0.18;0.02;0.80;1.60;-17.95;4.31;372.43;-197.97;-400.00;0.82;-115.55;8.20;5.02 
1.349;0.20;0.09;0.86;4.24;-21.29;5.91;374.42;-201.80;-396.00;0.89;-115.63;8.91;5.06 
1.379;0.26;0.09;0.90;5.84;-12.38;3.83;368.45;-203.71;-397.00;0.94;-115.69;9.53;5.20 
1.409;0.25;0.09;0.94;6.61;-1.67;0.35;371.44;-208.49;-397.00;0.98;-115.71;9.81;5.40 
1.440;0.18;0.09;0.91;3.97;5.50;1.04;373.43;-207.53;-398.00;0.93;-115.72;9.79;5.58 
1.470;0.17;0.10;0.80;-1.95;9.25;3.55;373.43;-205.62;-397.00;0.82;-115.82;9.59;5.64 
1.500;0.14;0.07;0.76;-4.87;8.77;4.17;376.41;-203.71;-396.00;0.78;-115.95;9.32;5.55 
1.530;0.11;0.09;0.71;-7.93;1.60;2.16;373.43;-205.62;-398.00;0.72;-116.05;9.15;5.38 
1.560;0.18;0.10;0.71;-2.57;-11.20;0.14;373.43;-204.66;-395.00;0.74;-116.04;9.32;5.24 
1.590;0.25;0.08;0.83;1.39;-17.74;-3.83;371.44;-211.36;-397.00;0.87;-115.90;9.85;5.26 
1.620;0.27;0.06;0.87;0.70;-5.70;-0.56;375.42;-208.49;-397.00;0.91;-115.74;10.33;5.31 
1.650;0.24;0.08;0.77;-0.97;11.76;-0.56;372.43;-211.36;-394.00;0.81;-115.72;10.34;5.29 
1.680;0.19;0.06;0.58;-4.45;21.43;-1.53;374.42;-208.49;-398.00;0.61;-115.74;9.96;5.27 
1.710;0.16;0.03;0.38;-4.38;20.66;-3.41;376.41;-204.66;-394.00;0.41;-115.72;9.42;5.18 
1.741;0.12;0.00;0.26;-2.99;7.51;0.77;372.43;-199.88;-395.00;0.29;-115.70;8.96;5.07 
1.770;0.14;0.00;0.26;-1.88;-6.19;2.78;373.43;-201.80;-396.00;0.30;-115.74;9.11;4.87 
1.800;0.21;0.02;0.21;1.88;-15.86;3.13;371.44;-206.58;-393.00;0.30;-115.76;9.82;4.79 
1.830;0.28;0.03;0.14;3.13;-27.27;1.46;373.43;-210.40;-390.00;0.31;-115.69;11.00;4.91 
1.860;0.34;-0.04;0.16;1.04;-57.46;8.49;374.42;-211.36;-391.00;0.38;-115.56;12.86;4.90 
1.890;0.42;0.02;0.36;5.08;-94.05;17.74;379.40;-226.66;-392.00;0.55;-115.53;15.67;4.78 
1.920;0.51;0.19;0.74;8.14;-99.97;8.42;376.41;-252.48;-380.00;0.92;-115.34;18.88;4.96 
1.951;0.66;0.14;1.00;3.55;-34.99;-6.82;378.41;-268.74;-376.00;1.21;-114.81;21.36;5.28 
1.981;0.57;-0.06;0.84;-1.95;47.10;-7.17;380.40;-269.70;-374.00;1.02;-114.45;21.40;5.41 
2.011;0.30;-0.08;0.64;-1.74;53.84;4.73;381.39;-257.27;-379.00;0.71;-114.74;19.88;5.28 
2.042;-2.00;-0.06;4.84;8.83;89.04;36.31;386.37;-258.22;-378.00;5.24;-115.20;19.51;4.84 
2.072;1.70;0.18;4.86;-38.82;359.93;-93.98;385.38;-231.44;-383.00;5.15;-115.16;14.67;4.08 
2.102;0.73;-0.11;1.19;77.01;282.09;-30.05;385.38;-164.50;-388.00;1.40;-115.05;6.51;5.05 
2.132;1.37;0.02;0.51;-30.96;96.42;14.96;397.33;-110.94;-375.00;1.46;-115.38;0.42;6.22 
2.162;0.62;0.46;0.90;-2.57;4.17;103.79;394.34;-117.63;-377.00;1.19;-117.38;0.61;5.15 
2.191;-0.30;0.44;1.33;-6.54;157.84;-36.94;395.33;-112.85;-375.00;1.43;-118.43;-1.09;5.09 
2.221;0.38;-0.21;0.49;0.07;223.44;-22.19;397.33;-78.42;-370.00;0.65;-117.61;-6.77;4.94 
2.252;0.05;-0.22;0.13;-9.74;183.30;9.95;393.34;-60.25;-366.00;0.26;-117.18;-12.51;4.18 
2.281;-0.27;0.02;-0.22;-4.24;131.06;36.80;393.34;-12.43;-338.00;0.35;-117.41;-18.12;3.71 
2.311;-0.72;0.27;-0.12;-10.71;44.87;56.28;397.33;-3.83;-331.00;0.78;-118.16;-21.60;4.00 
2.342;-1.01;0.90;0.61;-4.17;-110.47;20.59;399.32;-13.39;-334.00;1.48;-119.86;-21.13;4.88 
2.372;-0.28;0.57;1.34;4.73;-88.97;-40.21;398.32;-29.65;-340.00;1.48;-119.91;-17.85;5.21 
2.402;-0.14;0.14;1.51;12.38;31.44;-64.83;391.35;-32.52;-343.00;1.52;-118.37;-16.68;5.22 
2.432;-0.10;-0.10;1.04;9.46;119.03;-49.53;393.34;-17.21;-338.00;1.05;-116.48;-18.91;5.01 
2.463;-0.22;-0.16;0.61;0.70;118.33;-35.27;388.36;10.52;-327.00;0.67;-114.72;-22.70;4.53 
2.493;-0.30;-0.18;0.50;-6.75;77.98;-6.47;387.37;24.87;-316.00;0.61;-113.55;-25.95;3.90 
2.523;-0.37;0.00;0.54;-6.40;50.43;2.99;387.37;39.21;-304.00;0.65;-113.16;-27.98;3.56 
2.554;-0.37;0.13;0.70;-4.17;54.12;0.49;387.37;43.04;-298.00;0.80;-113.00;-29.52;3.52 
2.584;-0.36;0.20;0.74;-1.60;68.66;-13.22;384.38;46.86;-290.00;0.85;-112.57;-31.37;3.53 
2.614;-0.34;0.15;0.66;-1.11;78.40;-22.96;384.38;58.34;-282.00;0.76;-111.73;-33.53;3.40 
2.644;-0.30;0.03;0.62;-0.35;83.76;-27.55;380.40;74.60;-268.00;0.69;-110.54;-35.89;3.04 
2.674;-0.30;-0.05;0.59;-1.74;95.10;-24.35;377.41;87.03;-257.00;0.66;-109.18;-38.65;2.56 
2.703;-0.29;-0.05;0.55;-3.34;116.03;-20.45;374.42;101.38;-239.00;0.62;-107.82;-41.59;1.99 
2.732;-0.31;-0.02;0.42;-1.74;136.14;-19.97;371.44;106.16;-221.00;0.52;-106.36;-45.10;1.47 
2.763;-0.31;0.00;0.29;-1.25;145.60;-20.66;367.45;128.15;-189.00;0.42;-104.64;-49.35;1.00 
2.792;-0.38;0.03;0.27;-3.90;143.10;-23.79;363.47;140.59;-170.00;0.47;-102.71;-53.86;0.48 
2.822;-0.47;0.09;0.30;-4.73;146.64;-28.38;361.48;148.24;-146.00;0.56;-100.78;-58.10;-0.09 
2.853;-0.49;0.08;0.41;-1.74;163.90;-30.40;353.51;158.76;-120.00;0.64;-98.47;-62.77;-0.81 
2.883;-1.18;-0.66;0.49;2.16;221.63;-35.06;347.54;167.37;-75.00;1.44;-95.78;-68.25;-1.64 
2.913;-2.73;-1.55;-1.37;14.75;372.66;-1.25;341.56;173.10;-21.00;3.43;-91.52;-77.40;-2.62 
2.943;-1.14;-0.22;-2.02;-65.88;148.31;52.10;344.55;163.54;28.00;2.33;-88.71;-86.07;-2.48 
2.973;-0.61;0.65;-1.45;-20.10;54.54;20.31;353.51;154.93;48.00;1.70;-88.75;-88.23;-0.94 
3.003;-1.42;-0.05;-1.40;16.42;-69.50;-13.22;356.50;153.98;50.00;1.99;-88.47;-87.43;-0.93 
3.033;-1.73;-0.39;-0.61;10.43;-93.50;28.45;358.49;156.85;35.00;1.88;-89.43;-89.23;-0.77 
3.063;-1.03;-0.06;-0.11;-0.63;-1.88;23.10;361.48;157.80;26.00;1.04;-90.54;-88.82;-0.03 
3.092;-0.90;-0.06;-0.19;1.39;56.56;15.51;363.47;154.93;30.00;0.92;-90.79;-89.44;0.52 
3.122;-1.02;-0.03;-0.53;-8.56;76.80;25.81;369.44;153.02;37.00;1.15;-90.66;-87.66;1.09 
3.153;-1.07;0.01;-0.86;-8.49;58.64;24.14;374.42;142.50;55.00;1.37;-90.57;-84.79;1.84 
3.183;-0.97;0.24;-0.87;-4.45;-2.02;16.77;380.40;137.72;61.00;1.32;-90.86;-83.01;2.60 
3.213;-0.98;0.06;-0.55;-3.97;-42.57;2.09;378.41;137.72;55.00;1.13;-91.29;-82.92;2.98 
3.242;-1.09;-0.04;-0.29;-2.64;-44.10;11.20;384.38;137.72;47.00;1.13;-91.76;-83.72;3.14 
3.271;-1.11;0.02;-0.15;-1.88;-32.14;16.07;386.37;137.72;38.00;1.12;-92.48;-84.33;3.54 
3.301;-1.12;0.13;-0.11;-3.20;-14.68;13.43;385.38;137.72;33.00;1.13;-93.14;-84.41;4.02 
3.331;-1.11;0.24;-0.11;-6.75;-7.30;4.94;390.36;141.54;30.00;1.14;-93.62;-84.22;4.45 
3.362;-1.06;0.21;-0.10;-8.90;-9.95;-2.64;394.34;138.67;29.00;1.09;-93.82;-84.15;4.62 
3.392;-1.02;0.17;-0.10;-5.98;-8.07;-3.90;391.35;137.72;25.00;1.04;-93.87;-84.24;4.62 
3.422;-1.04;0.13;-0.15;-2.43;-4.87;-4.17;388.36;137.72;21.00;1.06;-93.84;-84.29;4.58 
3.451;-1.01;0.07;-0.12;-2.23;-8.97;-2.37;393.34;140.59;22.00;1.02;-93.78;-84.35;4.50 
3.481;-1.02;0.10;-0.10;-3.83;-14.26;-1.95;389.36;139.63;21.00;1.03;-93.80;-84.50;4.46 
3.511;-0.98;0.10;-0.07;-3.34;-11.69;-3.69;389.36;141.54;17.00;0.99;-93.83;-84.71;4.41 
3.541;-1.01;0.10;-0.11;-3.13;-3.13;-5.98;388.36;141.54;13.00;1.02;-93.77;-84.85;4.31 
3.571;-1.02;0.06;-0.15;-1.88;3.06;-9.32;387.37;141.54;16.00;1.03;-93.52;-84.92;4.10 
3.601;-1.01;0.02;-0.26;-0.35;0.63;-8.90;387.37;145.37;11.00;1.04;-93.17;-84.95;3.82 
3.631;-1.02;-0.02;-0.26;0.97;-5.98;-8.70;386.37;141.54;14.00;1.05;-92.85;-85.03;3.53 
3.662;-1.02;0.03;-0.22;0.90;-8.49;-6.26;386.37;146.33;12.00;1.04;-92.64;-85.25;3.29 
3.692;-1.02;-0.02;-0.15;0.70;-4.80;-5.22;382.39;150.15;14.00;1.03;-92.44;-85.41;3.07 
3.722;-1.04;-0.02;-0.18;0.42;-1.25;-4.80;380.40;150.15;11.00;1.06;-92.23;-85.46;2.87 
3.752;-1.02;0.01;-0.18;-0.70;-5.15;-3.27;381.39;149.19;11.00;1.04;-92.13;-85.51;2.76 
3.782;-1.03;0.05;-0.14;-1.11;-4.59;-3.48;381.39;149.19;10.00;1.04;-92.01;-85.55;2.63 
3.812;-1.06;0.01;-0.13;-0.83;0.21;-2.16;381.39;152.06;8.00;1.07;-91.90;-85.57;2.52 
3.842;-1.08;-0.02;-0.15;-0.21;3.83;-0.28;378.41;153.02;9.00;1.09;-91.84;-85.44;2.49 
3.873;-1.07;-0.01;-0.17;-1.04;-0.21;1.39;380.40;151.11;7.00;1.08;-91.78;-85.27;2.46 
3.902;-1.05;0.03;-0.18;-1.39;1.60;1.11;381.39;146.33;10.00;1.07;-91.78;-85.11;2.49 
3.931;-1.04;0.04;-0.18;-2.50;1.53;1.18;381.39;146.33;11.00;1.06;-91.77;-84.92;2.51 
3.962;-1.02;0.02;-0.18;-2.57;2.85;0.77;380.40;151.11;10.00;1.04;-91.76;-84.70;2.54 
3.992;-1.00;0.03;-0.23;-2.09;2.30;1.60;381.39;147.28;10.00;1.03;-91.75;-84.45;2.58 
4.022;-1.02;0.07;-0.21;-0.83;-0.56;0.00;380.40;152.06;10.00;1.04;-91.76;-84.24;2.62 
4.052;-1.04;0.06;-0.19;0.21;-0.07;0.21;381.39;151.11;9.00;1.06;-91.75;-84.08;2.62 
4.082;-1.03;0.02;-0.20;-0.42;0.49;-0.21;384.38;149.19;7.00;1.05;-91.74;-83.90;2.63 
4.112;-1.05;0.06;-0.18;-0.14;-1.39;-0.56;382.39;150.15;7.00;1.07;-91.70;-83.76;2.60 
4.142;-1.02;0.03;-0.17;-0.28;-1.81;-1.25;381.39;148.24;9.00;1.03;-91.65;-83.67;2.56 
4.173;-1.02;0.04;-0.14;0.07;-1.25;-0.21;380.40;149.19;8.00;1.03;-91.59;-83.60;2.50 
4.202;-1.04;0.00;-0.20;-0.14;0.49;0.97;380.40;148.24;9.00;1.06;-91.58;-83.49;2.49 
4.232;-1.03;0.00;-0.18;-1.18;-0.14;0.21;379.40;150.15;10.00;1.05;-91.60;-83.38;2.51 
4.263;-1.05;0.06;-0.20;-1.39;-2.50;-0.35;378.41;149.19;9.00;1.07;-91.59;-83.27;2.51 
4.293;-1.01;0.02;-0.20;-1.18;-1.32;-0.49;382.39;149.19;8.00;1.03;-91.57;-83.21;2.49 
4.323;-1.02;0.01;-0.18;-0.97;-1.11;1.18;383.39;148.24;6.00;1.04;-91.56;-83.12;2.48 
4.353;-1.02;0.02;-0.17;-0.70;0.42;0.97;378.41;151.11;8.00;1.03;-91.57;-83.02;2.49 
4.383;-1.02;0.04;-0.18;-0.83;0.14;0.07;381.39;150.15;7.00;1.04;-91.56;-82.89;2.48 
4.413;-1.06;0.00;-0.18;-0.77;0.49;0.00;379.40;151.11;5.00;1.08;-91.55;-82.78;2.47 
4.443;-1.05;0.01;-0.16;-0.77;1.18;1.04;381.39;152.06;11.00;1.06;-91.55;-82.66;2.48 
4.474;-1.02;0.03;-0.19;-0.56;2.99;0.00;382.39;148.24;5.00;1.04;-91.54;-82.50;2.48 
4.504;-1.02;0.02;-0.22;-0.77;1.04;0.49;382.39;149.19;7.00;1.04;-91.50;-82.31;2.45 
4.534;-1.06;0.02;-0.21;-0.56;-0.70;-0.14;382.39;147.28;7.00;1.08;-91.47;-82.19;2.43 
4.564;-1.02;0.03;-0.18;-0.63;-0.42;-0.21;381.39;150.15;3.00;1.04;-91.47;-82.08;2.43 
4.594;-1.02;0.00;-0.17;-0.97;0.42;0.28;381.39;152.06;7.00;1.03;-91.46;-81.98;2.41 
4.623;-1.02;0.04;-0.20;-0.28;1.25;-0.35;383.39;147.28;6.00;1.04;-91.44;-81.86;2.39 
4.653;-1.02;0.02;-0.20;-0.14;-0.56;-0.77;381.39;149.19;4.00;1.04;-91.41;-81.73;2.37 
4.684;-1.02;0.02;-0.17;-0.28;-2.30;-0.07;382.39;148.24;9.00;1.03;-91.38;-81.67;2.32 
4.714;-1.02;0.00;-0.18;-0.70;-3.06;0.70;381.39;153.02;3.00;1.04;-91.39;-81.65;2.32 
4.744;-1.02;0.04;-0.15;-1.04;-1.81;0.28;381.39;149.19;7.00;1.03;-91.40;-81.66;2.31 
4.774;-1.03;0.02;-0.16;-1.25;-0.07;0.21;382.39;150.15;3.00;1.04;-91.39;-81.61;2.30 
4.803;-1.02;0.05;-0.16;-0.49;-0.07;0.49;380.40;149.19;8.00;1.03;-91.38;-81.53;2.28 
4.833;-1.02;0.02;-0.18;-0.42;-0.90;0.97;380.40;151.11;4.00;1.04;-91.41;-81.45;2.30 
4.863;-1.03;0.02;-0.17;-0.21;-0.07;0.63;384.38;148.24;5.00;1.04;-91.43;-81.38;2.31 
4.893;-1.03;0.05;-0.17;0.35;0.28;-0.28;382.39;149.19;3.00;1.05;-91.41;-81.30;2.27 
4.923;-1.06;0.01;-0.17;-0.07;0.21;-0.21;379.40;151.11;6.00;1.07;-91.38;-81.21;2.25 
4.953;-1.02;0.02;-0.18;0.07;-1.67;0.42;385.38;150.15;-2.00;1.04;-91.37;-81.13;2.23 
4.984;-1.02;0.03;-0.15;-0.21;-1.67;0.49;382.39;148.24;6.00;1.03;-91.37;-81.10;2.21 
5.014;-1.02;0.05;-0.15;-1.18;0.83;-0.14;381.39;148.24;4.00;1.03;-91.38;-81.06;2.21 
5.044;-1.03;0.04;-0.21;-0.90;-0.97;0.07;381.39;149.19;2.00;1.05;-91.38;-80.96;2.21 
5.074;-1.04;0.03;-0.20;-0.77;-2.71;0.35;380.40;149.19;1.00;1.06;-91.39;-80.96;2.20 
5.104;-1.02;0.06;-0.19;-0.28;-1.32;0.77;381.39;149.19;1.00;1.04;-91.43;-81.00;2.23 
5.133;-1.02;0.01;-0.17;-0.77;0.70;-0.49;383.39;148.24;1.00;1.03;-91.45;-80.94;2.24 
5.163;-1.04;0.03;-0.21;-0.21;-0.21;-1.25;381.39;150.15;2.00;1.06;-91.42;-80.88;2.20 
5.194;-1.05;0.02;-0.15;-0.42;-1.60;-0.49;381.39;150.15;0.00;1.06;-91.38;-80.86;2.14 
5.224;-1.04;0.02;-0.13;-0.49;-0.35;0.63;384.38;152.06;-1.00;1.05;-91.38;-80.83;2.13 
5.254;-1.04;0.03;-0.18;-0.70;0.07;1.32;383.39;148.24;1.00;1.06;-91.40;-80.80;2.14 
5.285;-1.04;0.03;-0.13;-0.42;0.83;-0.77;382.39;146.33;-2.00;1.05;-91.41;-80.72;2.15 
5.315;-1.02;0.00;-0.18;0.35;-2.37;-0.21;385.38;149.19;3.00;1.04;-91.39;-80.67;2.11 
5.345;-1.04;0.02;-0.14;0.21;-2.92;0.63;384.38;149.19;0.00;1.05;-91.38;-80.70;2.09 
5.375;-1.02;0.03;-0.12;0.28;-2.16;1.04;384.38;150.15;0.00;1.03;-91.40;-80.74;2.08 
5.405;-1.03;0.03;-0.14;-1.11;-0.42;1.81;384.38;150.15;-1.00;1.04;-91.42;-80.75;2.09 
5.435;-1.02;0.05;-0.17;-1.11;0.35;0.49;385.38;149.19;0.00;1.04;-91.44;-80.69;2.10 
5.465;-1.02;0.03;-0.18;-0.63;-2.16;-0.70;385.38;151.11;-4.00;1.04;-91.44;-80.67;2.10 
5.495;-1.03;0.06;-0.18;-0.42;-1.67;-0.35;381.39;148.24;-3.00;1.05;-91.43;-80.66;2.07 
5.525;-1.02;0.05;-0.14;0.63;-2.50;-1.95;382.39;147.28;-3.00;1.03;-91.41;-80.65;2.04 
5.555;-1.02;0.03;-0.17;1.39;-2.85;-2.23;380.40;150.15;-7.00;1.03;-91.35;-80.70;1.96 
5.585;-1.01;0.02;-0.15;1.11;-1.46;-0.70;381.39;149.19;-3.00;1.02;-91.29;-80.72;1.87 
5.615;-1.03;0.01;-0.15;-0.42;0.07;0.42;381.39;150.15;-1.00;1.04;-91.28;-80.69;1.86 
5.645;-1.02;0.05;-0.14;-0.42;-0.14;-0.49;381.39;150.15;-3.00;1.03;-91.29;-80.64;1.86 
5.675;-1.01;0.02;-0.14;0.21;-2.09;-0.42;379.40;151.11;-3.00;1.02;-91.27;-80.65;1.82 
5.706;-1.02;0.02;-0.11;0.28;-1.46;1.67;383.39;148.24;-4.00;1.03;-91.29;-80.70;1.82 
5.736;-1.05;0.03;-0.11;-0.28;1.46;1.32;380.40;149.19;-6.00;1.06;-91.35;-80.68;1.87 
5.765;-1.02;0.04;-0.13;-0.77;2.64;1.11;383.39;150.15;0.00;1.03;-91.39;-80.60;1.91 
5.796;-1.02;0.02;-0.17;-0.97;0.42;-0.35;383.39;151.11;-4.00;1.03;-91.40;-80.51;1.91 
5.826;-1.03;0.04;-0.13;-0.49;1.04;0.42;384.38;151.11;-5.00;1.04;-91.40;-80.48;1.90 
5.856;-1.05;0.01;-0.18;0.21;-0.28;0.28;384.38;149.19;-3.00;1.07;-91.40;-80.42;1.90 
5.886;-1.02;0.02;-0.14;-0.56;-1.39;0.70;383.39;150.15;-4.00;1.03;-91.41;-80.39;1.90 
5.916;-1.03;0.06;-0.17;-0.07;0.21;0.00;385.38;150.15;-3.00;1.05;-91.42;-80.37;1.90 
5.945;-1.01;0.00;-0.15;0.00;0.00;-1.11;384.38;149.19;-3.00;1.02;-91.42;-80.35;1.88 
5.975;-1.03;0.03;-0.15;-0.28;-0.56;-0.90;382.39;149.19;-5.00;1.04;-91.38;-80.35;1.83 
6.006;-1.02;0.05;-0.14;0.21;-1.25;-0.63;381.39;151.11;-3.00;1.03;-91.35;-80.37;1.79 
6.036;-1.02;0.01;-0.12;-0.28;-0.07;0.83;381.39;151.11;-4.00;1.03;-91.35;-80.39;1.78 
6.066;-1.02;0.01;-0.11;-0.70;0.42;1.25;383.39;146.33;-3.00;1.03;-91.38;-80.35;1.80 
6.097;-1.02;0.02;-0.12;-0.97;2.02;0.49;382.39;152.06;-6.00;1.03;-91.41;-80.28;1.83 
6.127;-1.02;0.02;-0.17;-0.97;0.49;0.90;381.39;150.15;-3.00;1.03;-91.40;-80.21;1.82 
6.157;-1.02;0.04;-0.14;-0.28;-1.04;0.90;384.38;150.15;-4.00;1.03;-91.43;-80.21;1.84 
6.187;-1.02;0.05;-0.14;0.14;-0.90;1.74;383.39;151.11;-7.00;1.03;-91.47;-80.23;1.86 
6.218;-1.06;0.05;-0.11;-0.56;0.83;1.25;384.38;149.19;-6.00;1.07;-91.51;-80.23;1.89 
6.247;-1.03;0.04;-0.14;-0.63;2.16;-0.49;383.39;146.33;-3.00;1.04;-91.53;-80.14;1.91 
6.277;-1.02;0.02;-0.17;-0.63;0.07;-1.25;382.39;149.19;-4.00;1.03;-91.50;-80.11;1.87 
6.308;-1.02;0.04;-0.12;-0.14;1.11;0.42;384.38;148.24;-6.00;1.03;-91.49;-80.10;1.85 
6.338;-1.06;0.03;-0.14;-0.07;1.81;1.53;383.39;150.15;-7.00;1.07;-91.50;-80.04;1.85 
6.368;-1.04;0.06;-0.14;-0.35;1.81;-0.14;384.38;147.28;-5.00;1.05;-91.54;-79.98;1.90 
6.398;-1.03;0.06;-0.13;-0.77;1.32;-0.97;385.38;150.15;-3.00;1.04;-91.53;-79.90;1.88 
6.428;-1.02;0.04;-0.13;-0.49;2.50;-1.25;385.38;150.15;-5.00;1.03;-91.50;-79.83;1.85 
6.457;-1.02;0.03;-0.15;0.00;2.23;-0.77;381.39;150.15;-3.00;1.03;-91.47;-79.78;1.81 
6.487;-1.03;0.03;-0.17;0.28;0.63;-0.83;382.39;148.24;-3.00;1.04;-91.44;-79.72;1.77 
6.518;-1.06;0.06;-0.13;-0.56;1.46;-1.39;380.40;149.19;-3.00;1.07;-91.42;-79.69;1.74 
6.548;-1.02;0.04;-0.14;0.07;2.71;-1.53;382.39;148.24;0.00;1.03;-91.37;-79.64;1.70 
6.578;-1.04;0.02;-0.18;-0.21;1.53;-0.49;382.39;151.11;-4.00;1.06;-91.33;-79.55;1.65 
6.609;-1.04;0.03;-0.14;-0.21;0.28;0.77;382.39;148.24;-4.00;1.05;-91.34;-79.51;1.65 
6.639;-1.02;0.04;-0.13;0.21;-0.35;0.28;385.38;150.15;-2.00;1.03;-91.35;-79.48;1.65 
6.669;-1.03;0.02;-0.13;0.14;1.11;-0.77;380.40;149.19;-2.00;1.04;-91.35;-79.48;1.64 
6.699;-1.02;0.01;-0.17;-0.28;1.32;-0.21;383.39;152.06;-2.00;1.03;-91.33;-79.45;1.62 
6.730;-1.02;0.01;-0.16;-0.56;1.74;1.32;383.39;149.19;-2.00;1.03;-91.33;-79.39;1.61 
6.760;-1.04;0.02;-0.17;-0.35;0.63;1.32;382.39;148.24;-2.00;1.05;-91.36;-79.33;1.64 
6.790;-1.02;0.02;-0.11;-1.32;1.67;2.23;383.39;150.15;-1.00;1.03;-91.41;-79.30;1.67 
6.820;-1.02;0.03;-0.17;-0.77;1.95;2.16;383.39;148.24;-5.00;1.03;-91.46;-79.28;1.71 
6.850;-1.01;0.02;-0.14;-0.97;2.71;2.92;381.39;148.24;-2.00;1.02;-91.52;-79.22;1.77 
6.880;-1.02;0.03;-0.18;-0.63;3.76;1.81;386.37;149.19;-3.00;1.04;-91.57;-79.09;1.82 
6.910;-1.06;0.06;-0.18;-0.83;0.83;1.88;384.38;148.24;1.00;1.08;-91.62;-79.00;1.87 
6.940;-1.02;0.03;-0.14;-0.49;0.14;2.09;384.38;149.19;-3.00;1.03;-91.68;-78.97;1.92 
6.970;-1.04;0.05;-0.14;-0.56;0.07;2.64;386.37;148.24;0.00;1.05;-91.73;-78.98;1.97 
7.000;-1.02;0.06;-0.19;-0.56;1.11;2.23;386.37;146.33;-4.00;1.04;-91.78;-78.97;2.01 
7.031;-1.03;0.06;-0.17;-0.77;-0.21;2.09;386.37;145.37;-5.00;1.05;-91.84;-78.94;2.07 
7.060;-1.02;0.07;-0.18;-1.18;0.42;-0.28;384.38;147.28;1.00;1.04;-91.89;-78.96;2.12 
7.090;-0.98;0.06;-0.14;-0.28;-0.07;0.14;387.37;146.33;-1.00;0.99;-91.89;-78.96;2.11 
7.121;-1.03;0.00;-0.16;-0.77;-0.63;1.81;389.36;147.28;-1.00;1.04;-91.91;-79.00;2.12 
7.151;-1.02;0.06;-0.20;-1.25;1.88;1.95;385.38;148.24;-2.00;1.04;-91.95;-79.00;2.15 
7.181;-1.03;0.06;-0.17;-1.74;1.60;0.97;386.37;147.28;-4.00;1.05;-91.98;-78.92;2.19 
7.211;-1.02;0.06;-0.16;-1.04;0.28;0.63;389.36;145.37;-1.00;1.03;-92.00;-78.87;2.21 
7.242;-1.04;0.04;-0.16;-0.77;-1.60;1.11;386.37;149.19;-2.00;1.05;-92.03;-78.89;2.23 
7.271;-1.03;0.02;-0.14;-0.70;-0.21;0.83;392.35;146.33;-1.00;1.04;-92.05;-78.89;2.25 
7.301;-1.03;0.03;-0.16;-0.35;0.77;1.04;386.37;144.41;-1.00;1.04;-92.06;-78.91;2.25 
7.332;-1.02;0.04;-0.14;-1.04;0.56;1.67;392.35;149.19;-5.00;1.03;-92.09;-78.91;2.27 
7.362;-1.04;0.03;-0.16;-0.90;1.04;1.67;392.35;146.33;-1.00;1.05;-92.13;-78.89;2.31 
7.391;-1.05;0.04;-0.17;-1.32;-0.14;2.02;388.36;144.41;-3.00;1.06;-92.15;-78.89;2.33 
7.421;-1.03;0.06;-0.17;-0.97;0.14;1.25;386.37;144.41;1.00;1.05;-92.20;-78.87;2.38 
7.451;-1.04;0.09;-0.19;-0.49;-1.46;0.90;391.35;141.54;-2.00;1.06;-92.26;-78.86;2.44 
7.481;-1.02;0.05;-0.16;-0.07;-0.97;0.97;389.36;145.37;-3.00;1.03;-92.32;-78.91;2.49 
7.511;-1.02;0.06;-0.18;0.49;-0.49;-0.21;392.35;146.33;-3.00;1.04;-92.33;-78.94;2.49 
7.542;-1.00;0.06;-0.16;0.07;-0.21;-1.25;390.36;147.28;-4.00;1.01;-92.33;-78.94;2.49 
7.571;-1.02;0.06;-0.14;0.21;1.32;-1.46;388.36;145.37;-3.00;1.03;-92.31;-78.96;2.46 
7.601;-1.02;0.04;-0.14;0.35;0.97;-0.63;392.35;146.33;-5.00;1.03;-92.28;-78.96;2.41 
7.632;-1.03;0.07;-0.14;-0.07;1.11;-0.56;391.35;146.33;-2.00;1.04;-92.24;-78.97;2.37 
7.662;-1.02;0.08;-0.15;-0.14;3.13;-0.83;391.35;142.50;-2.00;1.03;-92.22;-78.94;2.34 
7.692;-1.06;0.02;-0.18;-0.63;1.53;-0.07;388.36;145.37;-3.00;1.08;-92.18;-78.88;2.30 
7.722;-1.02;0.02;-0.16;-0.42;0.90;0.70;389.36;144.41;-3.00;1.03;-92.19;-78.85;2.31 
7.752;-1.02;0.03;-0.16;-0.42;0.77;1.25;389.36;145.37;-5.00;1.03;-92.22;-78.82;2.34 
7.782;-1.03;0.02;-0.18;-0.35;0.21;-0.21;387.37;142.50;-4.00;1.05;-92.23;-78.84;2.34 
7.812;-1.02;0.03;-0.19;0.28;-0.35;-0.77;388.36;147.28;-4.00;1.04;-92.20;-78.86;2.31 
7.843;-1.02;0.01;-0.14;0.07;-0.28;0.07;388.36;144.41;-2.00;1.03;-92.19;-78.90;2.29 
7.873;-1.00;0.06;-0.14;-0.42;0.00;1.46;389.36;143.46;-5.00;1.01;-92.22;-78.92;2.31 
7.902;-1.02;0.07;-0.14;-0.49;-0.42;0.77;391.35;145.37;-2.00;1.03;-92.27;-78.94;2.36 
7.932;-1.02;0.09;-0.12;-0.56;1.18;-0.21;391.35;148.24;-5.00;1.03;-92.30;-78.94;2.38 
7.962;-1.02;0.08;-0.14;0.07;3.13;-0.63;391.35;143.46;-4.00;1.03;-92.32;-78.91;2.40 
7.992;-1.02;0.05;-0.18;0.35;2.09;-0.63;390.36;145.37;-2.00;1.04;-92.30;-78.85;2.38 
8.022;-1.02;0.04;-0.17;0.21;1.39;0.97;388.36;145.37;-5.00;1.03;-92.31;-78.82;2.39 
8.053;-1.02;0.06;-0.17;-0.21;1.95;0.63;392.35;142.50;-2.00;1.04;-92.32;-78.77;2.39 
8.083;-1.04;0.06;-0.14;-0.83;2.02;0.28;392.35;143.46;-5.00;1.05;-92.33;-78.72;2.40 
8.113;-1.06;0.03;-0.21;-0.21;2.85;0.00;390.36;146.33;-6.00;1.08;-92.31;-78.66;2.38 
8.144;-1.04;0.04;-0.17;-0.21;1.67;0.77;387.37;148.24;1.00;1.05;-92.32;-78.58;2.38 
8.174;-1.02;0.04;-0.18;-0.35;-0.28;1.11;389.36;143.46;0.00;1.04;-92.35;-78.56;2.41 
8.204;-1.02;0.06;-0.17;0.07;-0.14;-0.49;390.36;145.37;-4.00;1.04;-92.38;-78.57;2.42 
8.234;-1.03;0.06;-0.14;-0.49;-0.07;-0.56;389.36;144.41;-2.00;1.04;-92.36;-78.61;2.40 
8.264;-1.02;0.04;-0.16;-0.21;-0.77;-0.70;392.35;146.33;-5.00;1.03;-92.35;-78.63;2.39 
8.294;-1.02;0.05;-0.16;-0.21;-0.63;-0.14;391.35;143.46;-4.00;1.03;-92.34;-78.67;2.37 
8.324;-1.02;0.03;-0.16;-0.07;0.56;0.14;390.36;143.46;-1.00;1.03;-92.32;-78.69;2.35 
8.355;-1.02;0.06;-0.12;-0.14;0.83;0.28;390.36;147.28;-6.00;1.03;-92.33;-78.71;2.35 
8.385;-1.02;0.04;-0.12;-0.28;2.57;-0.70;391.35;145.37;1.00;1.03;-92.33;-78.68;2.34 
8.415;-1.06;0.06;-0.17;-0.49;3.13;-0.49;389.36;146.33;-3.00;1.08;-92.31;-78.65;2.32 
8.445;-1.06;0.05;-0.17;-0.56;1.53;0.97;387.37;146.33;-1.00;1.07;-92.32;-78.57;2.33 
8.475;-1.03;0.06;-0.18;-0.42;1.74;1.32;390.36;147.28;-3.00;1.05;-92.36;-78.54;2.37 
8.505;-1.02;0.07;-0.18;-0.63;2.92;0.77;391.35;142.50;-2.00;1.04;-92.39;-78.49;2.40 
8.534;-1.02;0.07;-0.21;-0.49;2.43;-1.11;392.35;144.41;-4.00;1.04;-92.40;-78.43;2.41 
8.565;-1.02;0.04;-0.15;0.28;-0.07;-0.14;393.34;144.41;3.00;1.03;-92.39;-78.39;2.39 
8.595;-1.03;0.05;-0.14;0.35;-0.35;1.32;391.35;144.41;2.00;1.04;-92.38;-78.44;2.38 
8.625;-1.02;0.06;-0.18;-0.49;1.67;1.04;392.35;143.46;2.00;1.04;-92.39;-78.45;2.38 
8.655;-1.03;0.06;-0.18;-0.83;2.71;-0.14;390.36;143.46;-2.00;1.05;-92.41;-78.39;2.40 
8.685;-1.03;0.07;-0.21;-1.11;1.11;0.42;390.36;144.41;-4.00;1.05;-92.44;-78.34;2.43 
8.715;-1.05;0.06;-0.18;-0.83;-0.97;0.63;390.36;144.41;0.00;1.07;-92.48;-78.34;2.47 
8.745;-1.05;0.05;-0.19;0.00;-0.97;-0.83;392.35;143.46;2.00;1.07;-92.48;-78.39;2.46 
8.774;-1.02;0.06;-0.14;0.21;0.21;-1.81;393.34;144.41;4.00;1.03;-92.45;-78.45;2.43 
8.804;-1.02;0.03;-0.16;0.35;0.07;-0.35;389.36;145.37;0.00;1.03;-92.40;-78.47;2.39 
8.834;-1.02;0.03;-0.14;-0.14;-0.14;0.90;390.36;141.54;1.00;1.03;-92.42;-78.51;2.40 
8.865;-1.03;0.08;-0.12;-0.56;1.53;0.83;395.33;145.37;2.00;1.04;-92.43;-78.54;2.41 
8.894;-1.04;0.09;-0.18;-0.56;2.23;-0.21;390.36;142.50;0.00;1.06;-92.44;-78.49;2.42 
8.924;-1.02;0.06;-0.17;0.07;1.88;-0.14;392.35;142.50;-1.00;1.04;-92.43;-78.48;2.41 
8.955;-1.02;0.02;-0.17;0.14;2.02;0.63;393.34;143.46;2.00;1.03;-92.41;-78.42;2.39 
8.985;-1.04;0.05;-0.18;-0.42;0.14;1.74;392.35;143.46;1.00;1.06;-92.43;-78.39;2.40 
9.015;-1.02;0.09;-0.18;-0.56;0.63;1.04;392.35;142.50;1.00;1.04;-92.48;-78.41;2.44 
9.044;-1.05;0.06;-0.18;-0.77;2.78;-0.21;390.36;143.46;-1.00;1.07;-92.49;-78.41;2.46 
9.074;-1.02;0.04;-0.16;-0.70;2.43;0.35;391.35;144.41;3.00;1.03;-92.49;-78.37;2.46 
9.104;-1.04;0.09;-0.18;0.14;1.74;-0.14;393.34;145.37;3.00;1.06;-92.49;-78.35;2.46 
9.134;-1.02;0.06;-0.18;0.28;1.32;-0.77;394.34;143.46;2.00;1.04;-92.46;-78.33;2.43 
9.165;-1.04;0.06;-0.18;0.14;0.70;0.49;391.35;143.46;1.00;1.06;-92.45;-78.33;2.41 
9.195;-1.05;0.06;-0.19;-0.14;2.16;-0.14;392.35;143.46;1.00;1.07;-92.45;-78.32;2.40 
9.225;-1.04;0.07;-0.19;-0.28;0.70;-0.90;393.34;142.50;3.00;1.06;-92.45;-78.31;2.41 
9.255;-1.02;0.09;-0.15;-0.42;-0.28;-0.21;392.35;141.54;3.00;1.03;-92.45;-78.30;2.39 
9.285;-1.03;0.06;-0.18;-0.35;0.90;0.56;391.35;145.37;-2.00;1.05;-92.43;-78.32;2.38 
9.315;-1.03;0.04;-0.17;-0.56;0.56;0.70;393.34;145.37;3.00;1.04;-92.45;-78.32;2.39 
9.345;-1.03;0.09;-0.20;-0.56;0.42;-0.35;390.36;141.54;2.00;1.05;-92.44;-78.34;2.39 
9.376;-1.02;0.09;-0.15;-0.35;1.04;-0.90;391.35;146.33;1.00;1.03;-92.44;-78.34;2.38 
9.405;-1.03;0.04;-0.19;0.00;1.04;-0.28;392.35;143.46;1.00;1.05;-92.40;-78.35;2.35 
9.435;-1.02;0.04;-0.16;0.21;1.11;0.97;390.36;146.33;3.00;1.03;-92.42;-78.35;2.36 
9.466;-1.06;0.06;-0.20;-0.28;1.25;0.00;390.36;143.46;7.00;1.08;-92.46;-78.35;2.39 
9.496;-1.02;0.05;-0.18;-0.49;1.25;-0.14;390.36;142.50;2.00;1.04;-92.48;-78.34;2.41 
9.526;-1.03;0.05;-0.18;-0.35;1.39;0.28;393.34;144.41;1.00;1.05;-92.47;-78.34;2.41 
9.556;-1.02;0.08;-0.16;-0.21;0.42;0.28;391.35;144.41;4.00;1.04;-92.48;-78.34;2.41 
9.586;-1.04;0.06;-0.17;-0.35;-0.49;0.35;390.36;143.46;4.00;1.06;-92.47;-78.34;2.40 
9.616;-1.04;0.03;-0.21;-0.07;-0.56;0.14;393.34;139.63;4.00;1.06;-92.48;-78.38;2.40 
9.646;-1.02;0.08;-0.19;-0.28;0.28;0.63;391.35;143.46;-1.00;1.04;-92.49;-78.40;2.42 
9.676;-1.02;0.04;-0.16;-0.35;0.97;0.35;390.36;140.59;2.00;1.03;-92.52;-78.41;2.44 
9.706;-1.02;0.08;-0.17;-0.63;1.25;0.28;393.34;145.37;5.00;1.04;-92.55;-78.40;2.46 
9.736;-1.02;0.11;-0.20;-0.28;2.50;0.28;394.34;143.46;3.00;1.05;-92.57;-78.39;2.49 
9.766;-1.03;0.08;-0.19;-0.28;2.02;-0.63;388.36;142.50;6.00;1.05;-92.62;-78.35;2.52 
9.796;-1.03;0.06;-0.19;-0.14;0.97;0.14;393.34;144.41;2.00;1.05;-92.61;-78.31;2.51 
9.826;-1.02;0.06;-0.18;-0.21;0.28;-0.28;390.36;144.41;4.00;1.04;-92.62;-78.30;2.52 
9.856;-1.03;0.04;-0.20;-0.21;-1.25;-0.35;390.36;140.59;0.00;1.05;-92.61;-78.32;2.51 
9.885;-1.03;0.06;-0.20;-0.35;-1.11;0.77;390.36;146.33;1.00;1.05;-92.61;-78.41;2.51 
9.915;-1.02;0.05;-0.18;-0.14;0.21;0.49;392.35;142.50;0.00;1.04;-92.60;-78.45;2.50 
9.944;-1.01;0.08;-0.18;-0.90;0.63;0.21;393.34;143.46;-1.00;1.03;-92.62;-78.46;2.51 
9.975;-1.02;0.06;-0.19;-0.56;-0.90;-0.21;394.34;142.50;3.00;1.04;-92.64;-78.49;2.53 
10.005;-1.03;0.08;-0.20;-0.49;-0.97;-0.49;391.35;143.46;1.00;1.05;-92.65;-78.54;2.55 
10.035;-1.04;0.06;-0.15;0.42;0.49;-0.70;395.33;144.41;2.00;1.05;-92.64;-78.59;2.53 
10.065;-1.02;0.06;-0.16;0.42;1.04;-0.77;391.35;144.41;3.00;1.03;-92.62;-78.59;2.51 
10.095;-1.02;0.05;-0.19;0.00;0.00;0.00;394.34;142.50;4.00;1.04;-92.60;-78.59;2.49 
10.125;-1.02;0.02;-0.17;-0.63;-1.04;-0.14;390.36;146.33;-1.00;1.03;-92.60;-78.64;2.49 
10.155;-1.03;0.07;-0.14;-0.42;-1.18;-0.49;388.36;144.41;-1.00;1.04;-92.59;-78.69;2.49 
10.186;-1.02;0.05;-0.17;-0.35;0.14;-0.70;393.34;144.41;0.00;1.04;-92.58;-78.74;2.47 
10.215;-1.03;0.05;-0.19;-0.07;1.11;0.07;389.36;144.41;-3.00;1.05;-92.58;-78.73;2.46 
10.245;-1.04;0.08;-0.16;-0.35;0.28;1.04;392.35;146.33;2.00;1.06;-92.61;-78.70;2.48 
10.275;-1.05;0.06;-0.18;-0.56;-2.02;-0.49;395.33;144.41;2.00;1.07;-92.62;-78.76;2.50 
10.305;-1.02;0.06;-0.14;0.07;0.28;-0.63;392.35;143.46;2.00;1.03;-92.61;-78.82;2.49 
10.335;-1.02;0.04;-0.12;-0.35;2.78;0.21;391.35;144.41;1.00;1.03;-92.59;-78.83;2.46 
10.365;-1.04;0.07;-0.18;-0.28;1.46;0.42;390.36;142.50;3.00;1.06;-92.59;-78.81;2.47 
