Time(s) acc_x(g) acc_y(g) acc_z(g) gyr_x(°/s) gyr_y(°/s) gyr_z(°/s) mag_x(G) mag_y(G) mag_z(G) SVM(g) yaw(°) pitch(°) roll(°)
0.000;0.22;0.20;0.90;0.83;0.90;-9.32;381.06;-229.93;-384.00;0.95;-121.94;16.19;7.92 
0.030;0.22;0.16;0.78;-0.21;-1.67;-4.38;382.05;-227.07;-383.00;0.83;-121.70;16.06;8.11 
0.061;0.20;0.08;0.84;-0.49;-7.23;3.20;380.07;-224.21;-380.00;0.87;-121.64;16.10;8.18 
0.090;0.26;0.13;0.82;0.49;-7.17;4.03;381.06;-227.07;-382.00;0.87;-121.69;16.24;8.21 
0.119;0.26;0.19;0.90;-1.53;-10.78;0.97;381.06;-229.93;-381.00;0.96;-121.71;16.43;8.25 
0.148;0.27;0.18;0.92;-2.37;-7.03;-1.81;381.06;-232.80;-376.00;0.98;-121.60;16.64;8.33 
0.177;0.26;0.18;0.92;-2.37;0.14;-1.11;380.07;-232.80;-380.00;0.97;-121.51;16.67;8.34 
0.206;0.26;0.15;0.86;-2.09;0.35;-2.16;381.06;-232.80;-380.00;0.91;-121.44;16.57;8.38 
0.235;0.23;0.18;0.88;-2.43;0.07;-3.90;381.06;-233.75;-383.00;0.93;-121.34;16.50;8.40 
0.264;0.26;0.12;0.84;-2.71;1.25;-5.77;380.07;-231.84;-384.00;0.89;-121.17;16.38;8.46 
0.293;0.26;0.06;0.92;-3.20;-1.18;-1.60;377.09;-233.75;-384.00;0.96;-121.02;16.32;8.42 
0.322;0.23;0.13;0.88;-2.57;3.48;1.67;378.08;-233.75;-383.00;0.92;-121.04;16.22;8.37 
0.351;0.26;0.10;0.80;-4.52;3.13;3.48;376.10;-230.89;-387.00;0.85;-121.10;16.04;8.28 
0.380;0.26;0.14;0.81;-1.53;-4.73;4.31;375.11;-232.80;-385.00;0.86;-121.23;16.03;8.19 
0.409;0.31;0.14;0.90;-3.90;-4.45;4.45;378.08;-229.93;-386.00;0.96;-121.30;16.16;8.16 
0.439;0.31;0.16;0.92;-2.09;6.26;0.97;376.10;-232.80;-383.00;0.98;-121.39;16.15;8.09 
0.468;0.27;0.12;0.85;-1.53;9.39;0.83;376.10;-233.75;-383.00;0.90;-121.45;15.87;8.09 
0.497;0.25;0.12;0.82;-1.67;7.51;1.81;375.11;-230.89;-386.00;0.87;-121.53;15.58;8.08 
0.527;0.27;0.09;0.88;-0.70;0.83;2.99;372.13;-229.93;-385.00;0.92;-121.60;15.44;8.06 
0.557;0.28;0.07;0.90;0.56;2.50;6.75;376.10;-232.80;-383.00;0.95;-121.76;15.42;8.04 
0.587;0.25;0.08;0.83;-0.63;7.86;7.51;372.13;-229.93;-385.00;0.87;-122.01;15.25;7.99 
0.617;0.21;0.13;0.81;0.42;4.87;2.64;373.12;-233.75;-385.00;0.85;-122.21;15.02;7.99 
0.647;0.26;0.15;0.77;1.39;0.49;0.83;377.09;-232.80;-383.00;0.83;-122.27;14.89;8.14 
0.677;0.25;0.12;0.81;-1.95;-3.90;0.83;377.09;-230.89;-385.00;0.86;-122.27;14.92;8.18 
0.707;0.25;0.12;0.79;-1.32;0.00;-4.10;374.11;-230.89;-384.00;0.84;-122.19;15.00;8.22 
0.738;0.24;0.11;0.68;0.00;2.16;-8.83;371.14;-229.93;-382.00;0.73;-122.01;14.87;8.29 
0.768;0.27;0.01;0.64;7.72;-8.28;-9.95;376.10;-229.93;-385.00;0.69;-121.67;14.87;8.56 
0.798;0.24;-0.02;0.74;-1.74;-16.77;2.09;377.09;-231.84;-380.00;0.78;-121.47;15.28;8.67 
0.829;0.24;0.06;0.63;-16.56;-2.09;4.38;375.11;-232.80;-380.00;0.68;-121.54;15.59;8.30 
0.859;0.17;0.16;0.51;-6.61;-21.15;-4.17;375.11;-235.66;-383.00;0.56;-121.42;15.86;8.02 
0.889;0.03;-0.07;0.69;6.12;-21.57;-8.35;373.12;-236.61;-382.00;0.69;-120.98;16.57;8.20 
0.918;0.16;-0.04;0.38;-5.08;6.68;0.21;373.12;-239.47;-382.00;0.41;-120.85;16.62;8.08 
0.947;0.05;0.00;0.06;-9.32;-16.63;13.63;374.11;-240.43;-382.00;0.08;-121.05;16.55;7.82 
0.977;0.10;0.19;-0.04;2.09;-64.97;6.54;370.15;-248.06;-382.00;0.22;-121.11;17.51;7.56 
1.007;0.35;0.34;0.18;7.17;-128.21;-10.92;370.15;-260.46;-377.00;0.52;-120.40;20.03;7.85 
1.037;0.97;0.42;0.98;11.20;-166.26;-36.94;371.14;-290.04;-363.00;1.44;-118.16;24.94;8.80 
1.066;1.06;-0.18;1.58;1.53;-59.48;-39.58;377.09;-306.26;-358.00;1.91;-115.61;28.54;9.63 
1.096;0.73;-0.41;1.11;-15.23;55.93;17.60;382.05;-307.21;-353.00;1.39;-115.19;28.46;9.45 
1.126;0.50;0.22;0.24;-2.50;33.11;26.02;378.08;-298.63;-358.00;0.60;-116.57;27.08;8.65 
1.155;0.63;0.70;0.23;11.55;-82.43;-14.54;379.08;-303.40;-354.00;0.97;-116.49;27.93;9.11 
1.185;0.72;0.11;0.99;6.33;-97.74;-35.34;382.05;-312.94;-351.00;1.23;-114.47;30.75;10.10 
1.215;1.06;-0.10;1.17;-8.00;-20.31;-14.26;384.04;-321.53;-343.00;1.58;-112.89;32.46;10.36 
1.245;1.02;0.30;0.99;-7.17;17.25;16.83;383.05;-323.43;-346.00;1.45;-112.80;32.70;10.13 
1.275;0.34;0.28;0.83;-8.00;61.15;-11.55;383.05;-319.62;-349.00;0.94;-113.40;31.64;9.93 
1.305;0.26;-0.14;0.58;-9.81;56.77;-19.69;383.05;-302.44;-352.00;0.65;-113.40;29.65;10.09 
1.336;0.34;0.04;0.42;-9.46;19.69;12.24;384.04;-300.54;-357.00;0.54;-113.85;28.40;9.63 
1.366;0.45;0.20;1.02;-5.29;-8.56;-2.99;381.06;-295.77;-358.00;1.13;-113.88;28.45;9.50 
1.396;0.42;-0.11;1.39;-6.33;49.53;-0.70;382.05;-298.63;-359.00;1.46;-114.03;27.74;9.27 
1.426;0.14;-0.47;2.10;61.77;6.19;24.90;384.04;-290.04;-359.00;2.16;-114.74;26.30;9.42 
1.456;0.34;1.21;2.42;146.92;2.57;39.44;404.88;-297.67;-345.00;2.73;-116.87;26.64;12.78 
1.486;1.69;0.86;2.05;-57.53;2.71;-98.92;414.80;-298.63;-336.00;2.79;-116.26;26.72;14.14 
1.516;1.79;-0.36;1.96;-13.22;172.66;-62.54;411.82;-281.45;-344.00;2.68;-113.47;24.31;14.74 
1.546;1.02;0.19;0.85;-89.53;223.65;97.39;403.89;-240.43;-358.00;1.34;-116.10;19.31;12.75 
1.576;0.02;0.70;0.08;-29.29;238.54;-23.79;392.97;-210.85;-375.00;0.70;-119.39;13.02;10.60 
1.605;0.15;0.09;-0.19;-16.42;152.56;-72.90;388.01;-172.69;-372.00;0.26;-118.81;6.79;10.72 
1.636;0.30;-0.19;-0.20;-24.14;46.89;1.74;387.02;-153.61;-372.00;0.41;-118.25;3.98;9.98 
1.666;0.04;0.02;0.29;-2.50;4.31;7.51;382.05;-137.39;-374.00;0.29;-118.51;4.04;9.48 
1.696;0.06;0.01;0.64;-6.05;39.23;1.39;383.05;-133.57;-376.00;0.64;-118.72;3.53;9.38 
1.726;-0.11;-0.05;0.70;-11.27;65.67;21.22;384.04;-126.89;-372.00;0.71;-119.12;1.95;9.04 
1.756;-0.26;-0.04;0.81;-9.53;41.11;27.76;381.06;-120.21;-371.00;0.85;-120.14;0.04;8.48 
1.786;-0.01;0.22;1.35;13.98;-11.27;23.93;380.07;-124.03;-372.00;1.37;-120.90;-0.54;8.53 
1.816;0.03;0.38;2.06;7.23;49.74;-2.43;384.04;-119.26;-368.00;2.09;-121.50;-0.56;9.10 
1.847;0.46;0.16;1.30;-19.41;190.12;-30.89;384.04;-99.22;-366.00;1.39;-121.13;-4.16;8.83 
1.877;0.30;0.05;0.34;-29.63;180.38;-12.31;379.08;-68.69;-357.00;0.46;-120.74;-9.72;7.95 
1.906;-0.03;0.23;0.13;-5.77;125.98;-10.43;371.14;-34.35;-345.00;0.27;-120.63;-13.75;7.74 
1.936;-0.16;0.13;0.38;-5.15;88.83;-27.90;375.11;-16.22;-342.00;0.43;-120.04;-17.18;7.92 
1.966;0.05;-0.10;0.71;-9.74;82.57;-11.62;370.15;-2.86;-331.00;0.72;-119.24;-19.78;7.63 
1.996;0.10;0.03;0.90;-12.38;113.39;4.38;366.18;10.49;-325.00;0.91;-119.04;-22.30;7.20 
2.026;0.03;0.24;0.83;-10.16;135.44;-8.42;366.18;33.39;-305.00;0.86;-118.78;-25.57;7.03 
2.056;0.09;0.14;0.67;-18.85;162.02;-14.89;361.21;54.38;-289.00;0.69;-117.98;-29.72;6.66 
2.085;0.10;0.13;0.42;-25.18;181.77;-13.84;363.20;71.56;-268.00;0.45;-117.05;-34.14;6.15 
2.115;0.01;0.22;0.18;-19.20;188.17;-24.90;357.24;89.68;-247.00;0.28;-115.81;-39.02;5.75 
2.146;-0.16;0.12;0.17;-16.42;182.82;-29.98;355.26;101.13;-241.00;0.26;-114.02;-44.63;5.57 
2.176;-0.30;-0.69;0.26;-28.45;198.54;-2.30;345.34;134.53;-181.00;0.80;-111.40;-50.57;4.31 
2.206;-0.90;-1.07;0.20;-46.40;242.50;81.25;344.34;141.20;-166.00;1.41;-109.78;-56.84;3.80 
2.237;-1.62;0.62;-0.34;-6.89;324.45;82.64;361.21;146.93;-113.00;1.77;-108.65;-65.86;5.94 
2.267;-1.29;0.75;-0.40;-31.58;334.82;-6.82;374.11;148.84;-39.00;1.54;-104.49;-75.05;6.72 
2.297;-1.28;0.47;-0.86;-142.19;311.23;62.54;379.08;145.97;4.00;1.61;-100.13;-81.54;7.77 
2.326;-2.62;0.34;-3.15;-140.03;403.20;-57.95;395.95;129.76;43.00;4.11;-92.97;-78.37;8.70 
2.356;-0.37;0.19;-1.81;31.30;30.12;-18.30;394.95;125.94;73.00;1.86;-86.73;-74.23;7.72 
2.386;-0.81;-0.33;-1.46;-9.53;-43.06;7.86;390.98;127.85;74.00;1.70;-85.83;-73.45;7.33 
2.416;-1.31;0.05;-1.07;-5.43;-120.07;34.85;395.95;130.71;57.00;1.69;-88.13;-74.75;8.01 
2.447;-1.28;0.37;-0.51;13.43;-84.80;10.50;400.91;132.62;39.00;1.43;-91.28;-76.39;8.85 
2.477;-1.28;0.23;-0.22;7.86;-38.40;-33.88;400.91;133.57;32.00;1.32;-92.63;-77.65;8.75 
2.507;-0.91;-0.06;-0.28;3.41;14.68;-21.70;395.95;139.30;29.00;0.95;-92.05;-78.28;7.95 
2.537;-1.03;-0.02;-0.39;-7.23;-2.23;-9.74;390.98;142.16;30.00;1.10;-91.15;-78.07;7.45 
2.567;-0.94;-0.02;-0.39;1.39;-22.47;-18.16;391.98;143.11;31.00;1.02;-90.76;-78.33;7.00 
2.597;-0.94;-0.02;-0.34;6.40;-26.43;-9.53;388.01;144.07;24.00;1.00;-90.83;-78.86;6.66 
2.627;-1.09;0.03;-0.22;9.25;-37.15;-3.06;385.03;145.02;24.00;1.11;-91.19;-79.51;6.43 
2.658;-1.14;-0.02;-0.10;2.99;-38.47;-8.28;382.05;148.84;12.00;1.14;-91.77;-80.39;6.24 
2.688;-1.10;-0.10;0.00;-1.67;-12.45;-4.31;385.03;149.79;9.00;1.10;-92.07;-81.06;6.01 
2.718;-1.06;-0.05;-0.17;-3.76;0.70;2.43;385.03;148.84;8.00;1.07;-92.03;-81.10;5.93 
2.749;-1.04;0.03;-0.22;-3.48;-7.44;0.42;380.07;149.79;9.00;1.06;-92.14;-80.92;6.06 
2.779;-1.02;0.01;-0.18;-1.46;-8.14;0.42;382.05;150.74;6.00;1.04;-92.23;-80.88;6.10 
2.809;-0.99;0.00;-0.16;-0.70;-0.49;3.13;383.05;150.74;4.00;1.00;-92.30;-80.82;6.14 
2.839;-1.00;0.02;-0.22;0.28;4.80;6.47;383.05;145.97;3.00;1.02;-92.40;-80.50;6.32 
2.869;-1.01;0.06;-0.32;0.77;0.14;1.11;388.01;146.93;5.00;1.06;-92.42;-80.09;6.50 
2.899;-0.96;0.04;-0.22;0.77;-2.43;0.35;383.05;150.74;8.00;0.99;-92.36;-79.87;6.52 
2.929;-1.04;0.05;-0.26;0.63;0.77;1.32;388.01;149.79;7.00;1.07;-92.34;-79.68;6.55 
2.960;-1.05;0.02;-0.26;1.39;0.97;0.70;384.04;151.70;6.00;1.08;-92.27;-79.41;6.57 
2.990;-1.04;0.04;-0.26;1.32;-1.53;0.56;383.05;149.79;2.00;1.07;-92.22;-79.21;6.57 
3.020;-1.02;0.02;-0.22;1.81;-2.02;-0.70;389.00;146.93;4.00;1.04;-92.17;-79.04;6.55 
3.050;-1.02;0.04;-0.20;0.90;-1.95;-0.77;386.02;146.93;8.00;1.04;-92.15;-78.97;6.51 
3.080;-1.02;-0.02;-0.18;0.00;2.57;0.00;386.02;148.84;4.00;1.04;-92.04;-78.84;6.42 
3.110;-1.02;0.01;-0.24;-0.07;3.34;2.23;384.04;150.74;5.00;1.05;-92.07;-78.56;6.51 
3.140;-1.03;0.03;-0.27;-0.14;1.53;1.67;385.03;148.84;5.00;1.07;-92.06;-78.28;6.57 
3.171;-1.01;0.04;-0.25;0.49;-2.92;0.14;384.04;148.84;6.00;1.04;-92.03;-78.06;6.58 
3.201;-1.02;0.02;-0.19;-0.77;1.04;1.60;385.03;148.84;5.00;1.04;-92.04;-77.92;6.58 
3.231;-1.02;0.03;-0.21;-0.14;2.50;1.11;385.03;147.88;5.00;1.04;-92.00;-77.72;6.58 
3.262;-1.02;0.04;-0.25;0.00;1.39;1.46;383.05;145.97;4.00;1.05;-92.00;-77.47;6.61 
3.292;-1.02;0.04;-0.29;0.35;0.83;0.70;384.04;148.84;9.00;1.06;-91.97;-77.25;6.62 
3.322;-1.03;0.04;-0.26;0.97;-1.95;0.35;386.02;149.79;3.00;1.06;-91.95;-77.08;6.60 
3.352;-1.03;0.02;-0.22;0.90;-2.78;0.21;387.02;145.02;3.00;1.05;-91.96;-76.98;6.57 
3.381;-1.02;0.02;-0.24;0.97;-0.21;1.04;385.03;147.88;7.00;1.05;-92.04;-76.84;6.62 
3.411;-1.03;0.02;-0.26;0.07;-1.81;1.53;389.00;147.88;5.00;1.06;-92.08;-76.69;6.65 
3.441;-1.02;0.02;-0.22;0.14;-2.23;0.35;386.02;145.02;7.00;1.04;-92.13;-76.59;6.66 
3.471;-1.01;0.02;-0.22;0.42;-1.25;-0.14;387.02;148.84;5.00;1.03;-92.13;-76.51;6.61 
3.501;-1.02;0.02;-0.22;-0.21;-0.14;0.14;388.01;145.02;5.00;1.04;-92.13;-76.39;6.59 
3.531;-1.05;0.02;-0.26;0.28;-0.83;-0.28;383.05;149.79;5.00;1.08;-92.11;-76.27;6.55 
3.561;-1.02;0.04;-0.24;-0.49;-2.09;-0.14;385.03;145.97;5.00;1.05;-92.12;-76.18;6.52 
3.591;-1.03;0.04;-0.22;-0.14;-2.30;-0.97;388.01;146.93;2.00;1.05;-92.10;-76.12;6.46 
3.620;-1.02;0.02;-0.25;1.53;-1.32;-0.63;387.02;144.07;3.00;1.05;-92.09;-76.05;6.40 
3.650;-1.06;0.00;-0.24;0.14;-1.81;0.49;386.02;147.88;5.00;1.09;-92.09;-76.01;6.35 
3.680;-1.03;0.02;-0.22;0.35;0.07;1.04;383.05;147.88;4.00;1.05;-92.10;-75.92;6.32 
3.710;-1.01;0.05;-0.26;0.28;-2.50;-1.18;386.02;145.97;5.00;1.04;-92.11;-75.82;6.29 
3.740;-1.01;0.00;-0.24;-0.49;-3.06;0.42;387.02;147.88;5.00;1.04;-92.16;-75.77;6.28 
3.771;-1.02;0.04;-0.26;-0.21;-3.97;0.00;389.00;147.88;0.00;1.05;-92.19;-75.77;6.24 
3.801;-1.02;0.02;-0.18;0.21;-0.63;-0.07;389.00;148.84;-1.00;1.04;-92.18;-75.84;6.17 
3.831;-1.02;0.03;-0.18;-0.35;2.02;0.00;382.05;145.97;-3.00;1.04;-92.16;-75.78;6.12 
3.861;-1.03;0.02;-0.22;0.42;2.71;1.32;391.98;146.93;0.00;1.05;-92.15;-75.63;6.09 
3.891;-1.02;0.06;-0.22;0.07;1.18;2.64;382.05;147.88;5.00;1.05;-92.17;-75.47;6.09 
3.920;-1.02;0.02;-0.18;-0.70;1.32;2.50;388.01;146.93;2.00;1.04;-92.24;-75.33;6.12 
3.950;-1.02;0.03;-0.20;-1.46;3.20;1.25;387.02;146.93;3.00;1.04;-92.27;-75.17;6.14 
3.981;-1.04;0.04;-0.23;-0.90;3.97;0.97;387.02;147.88;2.00;1.07;-92.27;-74.98;6.14 
4.011;-0.97;0.06;-0.23;-0.28;2.92;0.49;389.99;145.02;4.00;1.00;-92.29;-74.80;6.15 
4.041;-1.02;0.02;-0.22;0.07;2.78;0.70;388.01;146.93;5.00;1.04;-92.27;-74.65;6.10 
4.072;-1.02;0.04;-0.19;-0.21;3.55;0.35;385.03;145.97;5.00;1.04;-92.28;-74.46;6.09 
4.102;-1.02;0.02;-0.23;-0.14;2.92;-0.42;388.01;145.97;6.00;1.05;-92.27;-74.29;6.06 
4.132;-1.05;0.04;-0.20;0.00;1.32;0.28;389.99;143.11;3.00;1.07;-92.26;-74.15;6.02 
4.161;-1.04;0.01;-0.26;-0.21;2.43;-0.21;389.00;145.97;5.00;1.07;-92.24;-74.05;5.97 
4.191;-1.02;0.04;-0.25;0.14;2.64;-0.70;388.01;145.97;3.00;1.05;-92.21;-73.93;5.90 
4.221;-1.03;0.07;-0.23;-0.14;2.78;-0.90;387.02;144.07;2.00;1.06;-92.21;-73.77;5.88 
4.250;-1.01;0.03;-0.24;0.07;2.92;-0.14;390.98;147.88;7.00;1.04;-92.18;-73.63;5.82 
4.281;-1.02;0.04;-0.24;-0.42;4.24;-0.07;386.02;145.97;8.00;1.05;-92.16;-73.50;5.77 
4.311;-1.04;0.05;-0.26;-0.07;3.06;-0.42;389.00;145.97;9.00;1.07;-92.14;-73.33;5.72 
4.341;-1.02;0.03;-0.25;-0.07;2.71;-1.60;387.02;144.07;7.00;1.05;-92.10;-73.22;5.65 
4.370;-1.02;0.02;-0.26;0.63;3.27;-2.23;387.02;142.16;10.00;1.05;-92.04;-73.11;5.55 
4.400;-1.02;0.00;-0.26;0.07;3.76;-0.97;386.02;146.93;10.00;1.05;-92.02;-72.92;5.50 
4.430;-1.02;0.02;-0.26;0.70;2.85;0.14;388.01;145.02;11.00;1.05;-91.98;-72.80;5.42 
4.460;-1.02;0.04;-0.26;0.21;0.77;0.63;387.02;145.97;12.00;1.05;-91.98;-72.70;5.37 
4.489;-1.02;0.02;-0.24;-0.14;0.83;-0.07;387.02;149.79;11.00;1.05;-92.03;-72.59;5.37 
4.519;-1.02;0.04;-0.22;-0.35;1.88;-0.70;388.01;145.02;11.00;1.04;-92.05;-72.54;5.33 
4.549;-1.02;0.03;-0.26;-0.14;3.55;-0.28;388.01;146.93;9.00;1.05;-92.02;-72.44;5.27 
4.580;-1.02;0.02;-0.23;-0.77;0.83;-0.35;385.03;146.93;11.00;1.05;-92.00;-72.33;5.20 
4.610;-1.02;0.02;-0.26;-0.07;1.04;0.14;386.02;145.97;12.00;1.05;-92.02;-72.26;5.16 
4.640;-1.02;0.03;-0.26;-0.35;1.04;-0.14;385.03;145.97;8.00;1.05;-92.03;-72.19;5.13 
4.670;-1.06;0.02;-0.26;-0.49;1.74;-0.35;389.99;145.02;11.00;1.09;-92.03;-72.14;5.07 
4.699;-1.02;0.04;-0.26;-0.63;2.78;-1.39;386.02;145.97;12.00;1.05;-92.00;-72.04;5.00 
4.729;-1.02;0.03;-0.28;0.21;2.37;-1.67;388.01;145.02;17.00;1.06;-91.93;-71.97;4.88 
4.759;-1.02;0.00;-0.28;1.39;0.83;-1.81;386.02;145.97;15.00;1.06;-91.87;-71.89;4.76 
4.789;-1.01;0.01;-0.25;1.39;1.32;0.00;388.01;147.88;14.00;1.04;-91.84;-71.86;4.66 
4.818;-1.03;0.02;-0.25;0.42;5.15;0.14;388.01;145.97;13.00;1.06;-91.83;-71.79;4.59 
4.848;-1.02;0.02;-0.25;0.28;6.40;-0.42;385.03;145.97;15.00;1.05;-91.82;-71.60;4.54 
4.879;-1.05;0.03;-0.27;-0.35;4.73;-0.28;386.02;145.02;19.00;1.08;-91.80;-71.44;4.48 
4.909;-1.02;0.02;-0.26;-0.70;1.81;-0.49;383.05;147.88;14.00;1.05;-91.80;-71.33;4.44 
4.939;-1.03;0.05;-0.27;-0.83;2.85;0.00;385.03;145.97;16.00;1.07;-91.82;-71.26;4.40 
4.970;-1.02;0.04;-0.28;-0.49;2.85;0.07;387.02;144.07;20.00;1.06;-91.82;-71.18;4.35 
5.000;-1.02;0.02;-0.26;0.00;3.83;0.83;385.03;146.93;18.00;1.05;-91.82;-71.08;4.30 
5.030;-1.02;0.02;-0.24;0.21;3.48;0.83;387.02;143.11;15.00;1.05;-91.82;-70.98;4.25 
5.060;-1.02;0.04;-0.26;-0.70;5.15;1.39;387.02;145.97;16.00;1.05;-91.85;-70.87;4.23 
5.091;-1.03;0.05;-0.29;-1.53;5.15;1.25;385.03;142.16;20.00;1.07;-91.88;-70.70;4.23 
5.120;-1.06;0.05;-0.27;-0.49;1.60;0.35;385.03;145.02;22.00;1.09;-91.91;-70.57;4.21 
5.150;-1.03;0.02;-0.30;-0.49;-1.67;0.35;387.02;145.97;18.00;1.07;-91.93;-70.56;4.17 
5.181;-1.02;0.02;-0.30;-0.07;-0.97;0.35;387.02;144.07;24.00;1.06;-91.94;-70.62;4.10 
5.211;-1.02;0.02;-0.26;-0.21;-2.16;0.49;386.02;145.97;19.00;1.05;-91.97;-70.66;4.06 
5.241;-1.02;0.02;-0.26;-0.49;-4.52;-0.56;387.02;145.02;14.00;1.05;-92.00;-70.71;4.03 
5.271;-1.02;0.02;-0.24;-0.35;-2.57;-0.07;388.01;144.07;17.00;1.05;-92.01;-70.85;3.96 
5.301;-1.02;0.02;-0.26;-0.42;-0.21;-0.21;385.03;144.07;23.00;1.05;-92.02;-70.91;3.90 
5.331;-1.02;0.02;-0.26;-0.42;-1.04;-0.42;385.03;144.07;16.00;1.05;-92.04;-70.96;3.86 
5.361;-1.01;0.02;-0.26;-0.28;-1.74;-0.70;386.02;147.88;20.00;1.04;-92.05;-71.00;3.81 
5.392;-1.01;0.02;-0.27;-0.14;-1.74;-1.25;386.02;144.07;16.00;1.05;-92.04;-71.07;3.74 
5.422;-1.02;0.04;-0.24;-0.07;1.53;-0.21;388.01;145.02;19.00;1.05;-92.04;-71.11;3.67 
5.452;-1.00;0.00;-0.26;-0.07;0.07;-0.97;385.03;143.11;19.00;1.03;-92.04;-71.10;3.62 
5.482;-1.03;0.02;-0.29;-1.11;-0.21;-0.90;386.02;145.97;16.00;1.07;-92.02;-71.13;3.55 
5.512;-1.02;0.01;-0.30;-0.49;0.83;-0.42;385.03;145.02;18.00;1.06;-92.04;-71.06;3.52 
5.542;-1.02;0.00;-0.30;-0.63;-1.74;0.28;385.03;146.93;19.00;1.06;-92.05;-71.08;3.47 
5.571;-1.02;0.03;-0.28;-0.90;-2.30;-0.35;384.04;145.97;18.00;1.06;-92.06;-71.16;3.43 
5.602;-1.02;0.03;-0.26;-0.70;-1.88;-0.28;385.03;146.93;15.00;1.05;-92.07;-71.30;3.38 
5.632;-1.03;0.02;-0.26;-0.42;-1.04;0.28;382.05;145.02;17.00;1.06;-92.09;-71.35;3.35 
5.662;-1.02;0.02;-0.24;-0.49;-2.30;0.21;386.02;145.02;14.00;1.05;-92.13;-71.39;3.33 
5.692;-1.02;0.02;-0.23;-0.49;0.42;0.56;387.02;145.97;15.00;1.05;-92.17;-71.43;3.31 
5.722;-1.01;0.02;-0.26;-0.07;2.43;0.63;386.02;148.84;16.00;1.04;-92.17;-71.44;3.27 
5.752;-1.02;0.02;-0.28;-0.21;1.81;1.04;387.02;144.07;14.00;1.06;-92.19;-71.37;3.24 
5.782;-1.02;0.06;-0.25;0.14;1.53;0.49;388.01;145.97;17.00;1.05;-92.20;-71.34;3.20 
5.812;-1.02;0.05;-0.25;0.07;2.92;0.56;388.01;144.07;16.00;1.05;-92.23;-71.31;3.18 
5.842;-1.02;0.02;-0.26;0.35;4.52;0.97;388.01;147.88;16.00;1.05;-92.26;-71.16;3.17 
5.872;-1.02;0.04;-0.26;0.42;5.22;1.11;385.03;145.02;17.00;1.05;-92.27;-71.04;3.14 
5.902;-0.99;0.06;-0.26;0.28;4.24;0.97;385.03;142.16;21.00;1.03;-92.33;-70.87;3.14 
5.932;-1.02;0.05;-0.30;0.14;1.46;0.21;387.02;145.02;21.00;1.06;-92.34;-70.79;3.11 
5.962;-1.03;0.05;-0.28;-0.14;0.56;0.28;385.03;144.07;19.00;1.07;-92.35;-70.78;3.07 
5.993;-1.05;0.08;-0.23;-0.49;2.23;0.28;387.02;144.07;17.00;1.08;-92.36;-70.77;3.04 
6.023;-1.02;0.03;-0.27;-0.42;2.71;0.56;388.01;145.02;19.00;1.06;-92.39;-70.74;3.02 
6.053;-1.01;0.02;-0.28;0.42;1.04;-0.49;390.98;142.16;19.00;1.05;-92.41;-70.65;2.99 
6.083;-1.02;0.02;-0.26;-0.07;-0.14;-0.28;387.02;144.07;18.00;1.05;-92.42;-70.66;2.96 
6.114;-1.02;0.01;-0.26;0.07;1.04;-1.04;387.02;145.02;21.00;1.05;-92.40;-70.70;2.89 
6.143;-1.02;0.02;-0.26;0.07;2.02;-0.49;389.00;145.97;21.00;1.05;-92.39;-70.69;2.83 
6.173;-1.02;0.02;-0.26;0.14;2.57;0.00;388.01;147.88;21.00;1.05;-92.39;-70.65;2.79 
6.204;-1.02;0.02;-0.28;-0.14;3.55;0.77;391.98;142.16;23.00;1.06;-92.40;-70.60;2.76 
6.234;-1.02;0.05;-0.27;-0.28;2.09;0.63;384.04;145.02;23.00;1.06;-92.41;-70.52;2.72 
6.264;-1.02;0.03;-0.26;-0.49;0.90;0.49;391.98;143.11;25.00;1.05;-92.41;-70.50;2.68 
6.294;-1.02;0.04;-0.26;-0.21;2.78;-0.35;384.04;143.11;23.00;1.05;-92.42;-70.51;2.64 
6.324;-1.00;0.02;-0.30;0.07;3.13;0.49;387.02;143.11;26.00;1.04;-92.41;-70.46;2.59 
6.354;-1.01;0.02;-0.30;-0.28;1.60;-0.14;387.02;146.93;23.00;1.05;-92.44;-70.40;2.57 
6.384;-1.00;0.05;-0.26;-0.07;0.56;-0.07;385.03;143.11;21.00;1.03;-92.45;-70.38;2.55 
6.415;-1.03;0.03;-0.29;-0.14;1.25;-0.14;384.04;144.07;25.00;1.07;-92.45;-70.39;2.50 
6.445;-1.02;0.02;-0.30;-0.07;1.67;0.00;389.99;145.97;23.00;1.06;-92.43;-70.41;2.44 
6.475;-1.02;0.01;-0.30;0.35;0.70;-0.14;389.99;145.02;28.00;1.06;-92.42;-70.41;2.39 
6.506;-1.00;0.05;-0.30;0.00;0.00;0.35;388.01;144.07;24.00;1.05;-92.42;-70.45;2.35 
6.536;-1.01;0.04;-0.29;-0.42;0.97;-0.56;386.02;145.97;25.00;1.05;-92.43;-70.50;2.33 
6.566;-1.02;0.02;-0.28;-0.14;2.92;-0.14;387.02;146.93;22.00;1.06;-92.42;-70.52;2.27 
6.596;-1.02;0.02;-0.32;0.28;2.99;0.35;388.01;143.11;25.00;1.07;-92.43;-70.47;2.24 
6.627;-1.03;0.02;-0.30;-0.21;0.00;0.14;387.02;145.97;23.00;1.07;-92.43;-70.48;2.21 
6.657;-1.02;0.03;-0.26;-0.49;1.18;-0.42;385.03;141.20;26.00;1.05;-92.43;-70.51;2.17 
6.687;-1.00;0.04;-0.27;0.07;0.83;-0.90;389.99;145.02;25.00;1.04;-92.42;-70.53;2.12 
6.718;-1.02;0.01;-0.27;0.07;2.16;-0.35;385.03;143.11;29.00;1.06;-92.42;-70.57;2.08 
6.748;-1.02;0.02;-0.32;-0.28;2.85;0.63;385.03;145.02;27.00;1.07;-92.44;-70.54;2.07 
6.778;-1.02;0.03;-0.29;-0.21;1.74;-0.14;388.01;145.02;26.00;1.06;-92.47;-70.51;2.05 
6.808;-1.02;0.01;-0.30;-0.14;0.70;-0.07;387.02;143.11;29.00;1.06;-92.46;-70.50;2.01 
6.837;-1.02;0.02;-0.34;-0.21;1.25;0.42;387.02;145.02;28.00;1.08;-92.47;-70.49;1.98 
6.867;-1.02;0.02;-0.29;1.11;2.99;0.28;389.00;142.16;24.00;1.06;-92.49;-70.49;1.97 
6.897;-0.99;0.04;-0.28;-0.28;0.00;0.28;389.00;145.97;28.00;1.03;-92.50;-70.50;1.95 
6.928;-1.03;0.02;-0.32;-0.21;-0.14;0.28;390.98;142.16;27.00;1.08;-92.51;-70.54;1.92 
6.958;-1.02;0.03;-0.28;-0.21;0.07;0.49;389.99;143.11;32.00;1.06;-92.53;-70.60;1.91 
6.988;-1.03;0.05;-0.30;-0.07;1.32;0.42;388.01;145.02;29.00;1.07;-92.56;-70.60;1.90 
7.018;-1.00;0.02;-0.26;0.28;-0.90;-0.14;386.02;144.07;27.00;1.03;-92.57;-70.66;1.88 
7.047;-1.02;0.02;-0.27;-0.49;0.70;0.77;389.00;143.11;28.00;1.06;-92.58;-70.71;1.87 
7.077;-1.03;0.05;-0.33;0.00;0.07;0.14;388.01;143.11;28.00;1.08;-92.62;-70.74;1.87 
7.107;-1.01;0.02;-0.30;-0.35;-2.37;0.00;386.02;143.11;28.00;1.05;-92.63;-70.78;1.84 
7.136;-1.01;0.02;-0.26;-0.14;-1.74;0.63;387.02;145.97;24.00;1.04;-92.64;-70.93;1.83 
7.165;-0.98;0.02;-0.26;-0.21;2.92;0.77;386.02;145.97;29.00;1.01;-92.67;-70.96;1.83 
7.195;-1.02;0.02;-0.33;-0.21;0.97;0.28;389.00;140.25;29.00;1.07;-92.69;-70.93;1.82 
7.226;-0.99;0.02;-0.30;0.21;-0.56;0.42;386.02;145.02;29.00;1.03;-92.68;-70.97;1.78 
7.256;-1.02;0.03;-0.29;-0.14;-0.07;0.70;389.99;141.20;31.00;1.06;-92.69;-71.02;1.76 
7.286;-1.02;0.02;-0.26;-0.21;0.56;0.42;389.99;142.16;28.00;1.05;-92.69;-71.09;1.74 
7.316;-1.00;0.04;-0.29;0.00;2.43;0.21;388.01;143.11;25.00;1.04;-92.71;-71.10;1.73 
7.346;-1.02;0.06;-0.30;0.63;4.45;-0.42;389.00;144.07;28.00;1.06;-92.72;-71.05;1.71 
7.376;-1.01;0.05;-0.29;-0.42;2.02;-0.63;389.00;141.20;29.00;1.05;-92.72;-71.01;1.68 
7.406;-1.01;0.03;-0.27;0.00;1.60;-0.97;385.03;144.07;31.00;1.05;-92.69;-71.00;1.63 
7.436;-1.02;0.03;-0.30;0.21;1.32;-0.90;387.02;142.16;29.00;1.06;-92.67;-71.03;1.59 
7.466;-1.02;0.00;-0.30;0.21;1.95;-0.97;389.99;145.97;26.00;1.06;-92.64;-71.04;1.53 
7.496;-1.02;0.01;-0.31;0.28;1.95;-0.21;387.02;145.97;28.00;1.07;-92.62;-70.98;1.48 
7.527;-1.02;0.02;-0.30;-0.14;-0.07;0.42;389.99;141.20;32.00;1.06;-92.64;-70.99;1.47 
7.556;-1.02;0.05;-0.31;-0.28;0.70;0.07;385.03;149.79;27.00;1.07;-92.63;-71.06;1.44 
7.586;-1.02;0.03;-0.31;-0.42;2.43;1.04;389.00;144.07;29.00;1.07;-92.64;-71.06;1.43 
7.616;-1.02;0.06;-0.33;-0.49;0.97;-0.56;390.98;142.16;30.00;1.07;-92.67;-71.06;1.44 
7.646;-1.02;0.01;-0.31;0.14;1.67;0.42;388.01;142.16;28.00;1.07;-92.68;-71.08;1.42 
7.676;-1.02;0.02;-0.35;-0.28;-0.77;-0.35;388.01;143.11;31.00;1.08;-92.68;-71.13;1.41 
7.706;-1.02;0.04;-0.31;0.63;-2.23;-1.18;389.99;143.11;27.00;1.07;-92.68;-71.21;1.39 
7.736;-1.02;0.02;-0.28;0.28;-3.06;-0.49;387.02;141.20;32.00;1.06;-92.65;-71.32;1.34 
7.766;-1.00;0.05;-0.27;-0.35;-0.42;0.00;387.02;143.11;28.00;1.04;-92.64;-71.43;1.31 
7.796;-1.02;0.03;-0.30;-0.97;2.78;-0.28;386.02;143.11;29.00;1.06;-92.64;-71.46;1.30 
7.826;-1.03;0.05;-0.30;-0.42;-0.28;-0.07;387.02;142.16;31.00;1.07;-92.64;-71.46;1.28 
7.855;-1.00;0.05;-0.30;0.07;-0.63;-0.63;389.00;144.07;30.00;1.05;-92.63;-71.53;1.25 
7.885;-1.00;0.00;-0.32;0.07;0.14;-0.49;385.03;144.07;29.00;1.05;-92.62;-71.59;1.23 
7.915;-1.01;0.01;-0.30;0.21;-1.11;0.00;388.01;144.07;27.00;1.05;-92.60;-71.65;1.19 
7.945;-1.02;0.02;-0.32;-0.21;-0.63;-0.14;386.02;141.20;31.00;1.07;-92.59;-71.73;1.16 
7.975;-1.02;0.02;-0.30;-0.14;-1.18;0.28;388.01;145.02;26.00;1.06;-92.60;-71.81;1.15 
8.005;-1.02;0.04;-0.30;-0.28;-0.49;0.07;385.03;143.11;29.00;1.06;-92.61;-71.90;1.16 
8.036;-1.03;0.06;-0.30;-0.14;-0.97;0.42;389.99;143.11;28.00;1.07;-92.62;-71.97;1.15 
8.066;-1.02;0.03;-0.28;-0.14;-1.04;0.35;386.02;145.02;25.00;1.06;-92.63;-72.05;1.15 
8.095;-1.01;0.03;-0.31;0.28;-1.46;-0.14;387.02;144.07;28.00;1.06;-92.64;-72.11;1.15 
8.126;-1.02;0.04;-0.27;-0.35;-1.95;0.07;389.00;140.25;28.00;1.06;-92.64;-72.23;1.14 
8.156;-1.02;0.04;-0.29;-0.42;0.77;-0.83;388.01;141.20;29.00;1.06;-92.63;-72.32;1.12 
8.186;-1.02;0.02;-0.31;-0.07;-0.07;-0.21;385.03;144.07;28.00;1.07;-92.61;-72.36;1.10 
8.216;-1.02;0.03;-0.34;-0.07;-1.95;0.07;389.99;145.97;28.00;1.08;-92.61;-72.39;1.08 
8.245;-1.02;0.04;-0.29;-0.14;-2.64;-0.70;386.02;144.07;28.00;1.06;-92.60;-72.50;1.07 
8.275;-1.01;0.02;-0.26;0.00;-1.32;-0.21;385.03;144.07;27.00;1.04;-92.58;-72.62;1.04 
8.305;-1.01;0.03;-0.31;-0.49;-0.21;-0.14;386.02;143.11;26.00;1.06;-92.59;-72.71;1.04 
8.336;-1.01;0.02;-0.29;-0.21;1.39;0.35;385.03;142.16;26.00;1.05;-92.60;-72.76;1.05 
8.366;-1.03;0.03;-0.30;0.00;0.56;-0.14;386.02;145.97;27.00;1.07;-92.60;-72.77;1.04 
8.396;-1.01;0.02;-0.32;0.07;-0.97;-0.42;386.02;141.20;32.00;1.06;-92.60;-72.80;1.03 
8.425;-1.01;0.01;-0.32;-0.21;-0.56;0.00;386.02;141.20;26.00;1.06;-92.59;-72.87;1.01 
8.455;-1.00;0.02;-0.28;-0.07;-0.77;-0.35;384.04;145.02;25.00;1.04;-92.58;-72.94;0.99 
8.485;-1.02;0.02;-0.32;-0.14;-0.77;-0.49;386.02;143.11;24.00;1.07;-92.56;-73.01;0.96 
8.515;-1.02;0.03;-0.29;0.00;-0.28;0.07;386.02;144.07;25.00;1.06;-92.55;-73.08;0.95 
8.544;-1.01;0.03;-0.30;-0.07;0.35;0.42;383.05;145.02;23.00;1.05;-92.55;-73.14;0.94 
8.574;-1.03;0.04;-0.29;-0.35;-0.28;-0.28;388.01;145.02;27.00;1.07;-92.55;-73.18;0.94 
8.604;-1.00;0.01;-0.30;0.14;0.35;0.07;387.02;143.11;28.00;1.04;-92.53;-73.23;0.91 
8.634;-1.02;0.02;-0.30;0.28;-1.67;0.07;388.01;147.88;22.00;1.06;-92.53;-73.27;0.90 
8.664;-1.02;0.04;-0.23;-0.56;-0.07;0.63;388.01;143.11;22.00;1.05;-92.53;-73.39;0.89 
8.694;-1.02;0.02;-0.29;-0.14;3.20;0.77;387.02;143.11;27.00;1.06;-92.56;-73.39;0.91 
8.724;-1.02;0.02;-0.32;0.07;-0.21;0.49;388.01;144.07;23.00;1.07;-92.59;-73.37;0.93 
8.754;-1.02;0.01;-0.30;0.35;-3.69;0.35;386.02;143.11;27.00;1.06;-92.60;-73.48;0.95 
8.783;-1.02;0.02;-0.30;-0.21;-1.74;-0.07;388.01;143.11;24.00;1.06;-92.60;-73.62;0.95 
8.813;-1.02;0.03;-0.30;-0.21;-0.56;0.83;386.02;145.97;20.00;1.06;-92.61;-73.71;0.95 
8.844;-1.02;0.02;-0.31;0.07;-3.83;0.21;387.02;143.11;28.00;1.07;-92.61;-73.83;0.96 
8.874;-1.01;0.03;-0.27;0.14;-2.57;0.77;386.02;145.97;23.00;1.05;-92.60;-73.99;0.96 
8.904;-1.02;0.02;-0.29;-0.14;0.97;-0.07;386.02;144.07;21.00;1.06;-92.60;-74.07;0.94 
8.935;-1.02;0.02;-0.29;-0.42;2.37;0.56;385.03;144.07;24.00;1.06;-92.62;-74.09;0.96 
8.965;-1.02;0.02;-0.25;-0.35;2.78;0.70;387.02;145.97;23.00;1.05;-92.65;-74.05;0.99 
8.995;-1.03;0.04;-0.29;0.07;3.06;-0.14;388.01;144.07;26.00;1.07;-92.68;-73.99;1.01 
9.024;-1.02;0.03;-0.28;0.28;3.48;-0.35;384.04;145.97;21.00;1.06;-92.68;-73.95;0.99 
9.054;-1.02;0.02;-0.29;0.28;4.38;-0.70;387.02;143.11;25.00;1.06;-92.67;-73.89;0.97 
9.084;-1.02;0.01;-0.31;0.07;4.87;-0.14;389.00;143.11;27.00;1.07;-92.68;-73.78;0.96 
9.114;-1.02;0.02;-0.30;-0.28;3.48;0.14;389.00;143.11;32.00;1.06;-92.68;-73.71;0.94 
9.145;-1.02;0.03;-0.30;-0.21;3.27;0.14;388.01;141.20;29.00;1.06;-92.72;-73.65;0.97 
9.175;-1.02;0.02;-0.29;0.21;0.77;-0.63;387.02;142.16;30.00;1.06;-92.71;-73.64;0.95 
9.204;-1.02;0.00;-0.31;-0.28;2.09;0.42;387.02;144.07;27.00;1.07;-92.70;-73.65;0.93 
9.235;-1.01;-0.01;-0.31;0.14;1.18;0.49;386.02;143.11;29.00;1.06;-92.71;-73.63;0.94 
9.265;-1.02;0.02;-0.33;-0.21;0.35;0.70;389.00;143.11;32.00;1.07;-92.73;-73.63;0.94 
9.295;-1.06;0.01;-0.33;-0.49;0.07;0.21;389.00;144.07;28.00;1.11;-92.75;-73.66;0.97 
9.325;-1.02;0.03;-0.26;-0.35;0.07;-0.21;388.01;142.16;29.00;1.05;-92.75;-73.71;0.97 
9.354;-1.02;0.03;-0.28;-0.07;0.56;0.21;389.99;141.20;31.00;1.06;-92.76;-73.75;0.98 
9.384;-1.02;0.04;-0.27;0.00;-0.07;-0.07;389.99;143.11;31.00;1.06;-92.77;-73.78;0.98 
9.414;-1.02;0.05;-0.29;-0.21;0.63;0.35;388.01;142.16;30.00;1.06;-92.77;-73.81;0.98 
9.445;-1.02;0.03;-0.29;-0.14;0.14;0.28;388.01;143.11;33.00;1.06;-92.78;-73.83;0.99 
9.475;-1.01;0.02;-0.29;0.00;0.28;-0.14;388.01;141.20;31.00;1.05;-92.78;-73.87;0.98 
9.504;-1.02;0.03;-0.30;0.00;1.32;-0.07;386.02;141.20;30.00;1.06;-92.78;-73.86;0.97 
9.534;-1.02;0.05;-0.26;-0.14;0.77;0.00;386.02;144.07;29.00;1.05;-92.79;-73.87;0.98 
9.564;-1.02;0.02;-0.29;0.07;1.25;-0.35;388.01;144.07;31.00;1.06;-92.80;-73.89;0.99 
9.594;-1.02;0.02;-0.33;-0.35;1.74;-0.21;385.03;141.20;30.00;1.07;-92.81;-73.90;0.99 
9.623;-1.02;0.04;-0.33;-0.42;1.88;-0.07;391.98;143.11;30.00;1.07;-92.81;-73.89;0.99 
9.653;-1.08;0.02;-0.34;-0.49;-2.09;0.21;389.00;144.07;29.00;1.13;-92.84;-73.89;1.02 
9.683;-1.03;0.03;-0.37;-0.56;-8.83;-0.14;388.01;145.02;28.00;1.09;-92.85;-74.05;1.04 
