Time(s) acc_x(g) acc_y(g) acc_z(g) gyr_x(°/s) gyr_y(°/s) gyr_z(°/s) mag_x(G) mag_y(G) mag_z(G) SVM(g) yaw(°) pitch(°) roll(°)
0.000;0.28;0.14;0.90;-5.43;-10.78;-8.49;370.12;-360.50;-376.00;0.95;-130.98;15.76;7.68 
0.030;0.30;0.16;0.88;-3.27;-8.90;-8.63;372.11;-357.63;-374.00;0.94;-130.68;16.04;7.71 
0.061;0.28;0.18;0.82;-3.97;-6.19;-9.67;370.12;-359.54;-376.00;0.88;-130.34;16.22;7.79 
0.091;0.26;0.18;0.81;-6.47;-5.50;-11.76;370.12;-357.63;-372.00;0.87;-129.97;16.34;7.84 
0.121;0.23;0.14;0.81;-9.67;-7.79;-12.31;371.12;-359.54;-376.00;0.85;-129.55;16.49;7.84 
0.151;0.17;0.06;0.98;-11.69;-7.65;-10.85;368.13;-361.45;-373.00;1.00;-129.11;16.60;7.65 
0.181;0.22;-0.04;1.09;-2.16;-2.37;-10.09;368.13;-358.59;-377.00;1.11;-128.75;16.74;7.59 
0.210;0.20;0.06;0.91;-8.42;13.98;-2.23;365.15;-356.67;-379.00;0.93;-128.61;16.54;7.54 
0.240;0.17;0.13;0.74;-12.17;14.82;-4.17;360.17;-355.72;-378.00;0.77;-128.61;16.03;7.33 
0.270;0.16;0.08;0.77;-12.73;3.41;-7.30;358.18;-352.85;-377.00;0.79;-128.49;15.62;7.08 
0.300;0.28;0.06;0.86;-15.30;0.21;-10.64;355.20;-348.07;-382.00;0.91;-128.23;15.50;6.72 
0.330;0.20;0.03;0.91;-16.49;-0.63;-11.69;353.21;-349.02;-381.00;0.93;-127.87;15.43;6.35 
0.361;0.22;0.00;0.99;-18.16;3.97;-10.50;351.22;-349.02;-384.00;1.01;-127.50;15.38;5.96 
0.391;0.23;0.00;0.98;-18.43;16.49;-10.85;349.23;-346.15;-387.00;1.01;-127.21;15.07;5.49 
0.421;0.22;0.00;0.89;-16.83;23.79;-12.24;342.26;-340.42;-387.00;0.92;-126.96;14.45;5.08 
0.451;0.22;-0.02;0.82;-14.26;24.07;-10.71;339.28;-332.77;-388.00;0.85;-126.73;13.70;4.75 
0.481;0.24;-0.03;0.74;-10.02;15.58;-9.81;336.29;-329.90;-389.00;0.78;-126.52;13.07;4.41 
0.511;0.26;-0.14;0.72;-3.13;3.06;-3.97;335.30;-326.07;-391.00;0.78;-126.36;12.83;4.15 
0.541;0.32;-0.15;0.78;1.88;-8.70;10.78;335.30;-325.12;-392.00;0.86;-126.48;13.02;3.94 
0.572;0.31;-0.10;0.86;8.14;-8.14;18.09;333.31;-331.81;-389.00;0.92;-126.95;13.48;3.82 
0.602;0.22;0.00;0.98;10.02;-1.46;20.45;336.29;-330.86;-391.00;1.00;-127.63;13.73;3.88 
0.632;0.16;0.17;1.06;1.67;3.62;15.44;337.29;-333.72;-389.00;1.09;-128.26;13.67;3.98 
0.663;0.20;0.01;0.86;-3.97;11.13;8.83;339.28;-332.77;-389.00;0.88;-128.65;13.40;3.92 
0.693;0.17;-0.10;0.66;3.83;8.07;11.13;337.29;-335.64;-385.00;0.69;-129.05;13.06;3.76 
0.723;0.16;0.00;0.70;9.74;-5.91;17.74;344.25;-331.81;-392.00;0.72;-129.56;13.05;3.73 
0.753;0.15;0.09;0.80;12.45;-8.90;13.29;342.26;-337.55;-388.00;0.82;-130.08;13.31;3.97 
0.784;0.14;0.16;0.91;11.76;-8.90;-0.42;348.23;-338.51;-382.00;0.93;-130.35;13.48;4.39 
0.813;0.10;0.18;1.06;4.87;-10.30;-12.38;348.23;-342.33;-386.00;1.08;-130.21;13.67;4.80 
0.843;0.23;0.17;1.15;-3.97;0.42;-20.80;349.23;-342.33;-380.00;1.19;-129.74;13.72;5.05 
0.874;0.23;-0.14;0.84;-5.08;9.88;-14.47;348.23;-338.51;-384.00;0.88;-129.19;13.46;5.09 
0.904;0.20;-0.15;0.71;0.28;4.17;4.24;345.25;-334.68;-386.00;0.75;-129.08;13.24;4.85 
0.934;0.18;0.02;0.76;1.81;-3.34;12.87;347.24;-335.64;-385.00;0.78;-129.40;13.26;4.76 
0.964;0.21;0.12;0.86;1.67;-3.41;6.40;347.24;-338.51;-382.00;0.89;-129.73;13.40;4.81 
0.994;0.22;0.11;0.93;0.90;1.18;-1.18;346.24;-337.55;-385.00;0.96;-129.83;13.45;4.92 
1.024;0.19;0.08;0.91;1.11;4.94;-3.27;350.22;-338.51;-385.00;0.93;-129.82;13.31;5.01 
1.054;0.16;0.06;0.92;-0.56;7.93;-3.83;350.22;-339.46;-384.00;0.94;-129.79;13.07;5.07 
1.084;0.18;0.05;0.86;-1.53;7.51;-4.87;347.24;-333.72;-385.00;0.88;-129.74;12.76;5.08 
1.114;0.21;0.00;0.83;-1.53;6.19;-2.78;346.24;-330.86;-383.00;0.86;-129.69;12.52;5.08 
1.144;0.19;0.02;0.82;-1.46;6.33;-0.28;347.24;-330.86;-380.00;0.84;-129.70;12.34;5.04 
1.175;0.21;0.03;0.86;-1.46;6.54;0.42;346.24;-328.94;-388.00;0.89;-129.77;12.15;5.00 
1.205;0.21;0.06;0.84;-0.70;7.10;0.21;347.24;-327.99;-386.00;0.87;-129.83;11.96;5.00 
1.235;0.23;0.06;0.91;-0.28;8.77;-0.70;348.23;-327.99;-386.00;0.94;-129.90;11.72;5.01 
1.265;0.21;0.05;0.90;-0.56;11.76;-1.25;346.24;-325.12;-387.00;0.93;-129.96;11.42;5.04 
1.296;0.18;0.07;0.87;-0.83;11.69;-2.57;348.23;-320.34;-383.00;0.89;-130.00;11.07;5.05 
1.326;0.20;0.06;0.87;-1.46;12.24;-3.76;348.23;-321.29;-381.00;0.89;-129.99;10.71;5.05 
1.356;0.22;0.04;0.87;-1.46;13.36;-3.27;344.25;-318.42;-386.00;0.90;-129.97;10.36;5.05 
1.387;0.22;0.05;0.88;-1.88;13.43;-2.85;345.25;-313.64;-383.00;0.91;-129.96;9.99;5.01 
1.417;0.18;0.05;0.84;-2.16;12.94;-2.78;345.25;-313.64;-386.00;0.86;-129.95;9.62;5.00 
1.447;0.21;0.05;0.85;-2.16;13.15;-2.71;345.25;-310.77;-383.00;0.88;-129.95;9.29;4.96 
1.477;0.20;0.05;0.86;-2.64;14.40;-2.92;347.24;-305.99;-383.00;0.88;-129.93;8.94;4.93 
1.507;0.20;0.04;0.87;-2.64;15.37;-2.37;346.24;-305.04;-385.00;0.89;-129.92;8.53;4.87 
1.537;0.16;0.01;0.86;-3.41;18.99;-1.32;342.26;-298.34;-385.00;0.87;-129.95;8.05;4.79 
1.567;0.14;0.02;0.83;-4.45;22.54;-0.56;343.26;-292.61;-384.00;0.84;-130.01;7.46;4.70 
1.598;0.11;0.04;0.78;-6.89;25.39;-0.90;341.27;-290.69;-384.00;0.79;-130.08;6.74;4.54 
1.627;0.09;0.02;0.70;-9.11;27.27;-3.97;339.28;-285.91;-383.00;0.71;-130.12;5.93;4.29 
1.656;0.11;0.02;0.54;-5.91;25.67;-5.63;340.27;-279.22;-382.00;0.55;-130.06;5.20;4.08 
1.685;0.09;0.02;0.53;-1.11;15.65;-3.48;337.29;-276.35;-379.00;0.54;-130.00;4.60;3.99 
1.715;0.08;0.02;0.66;-0.42;0.28;0.00;337.29;-272.53;-383.00;0.67;-129.98;4.40;4.02 
1.745;0.12;0.02;0.78;0.63;4.45;1.60;339.28;-274.44;-380.00;0.79;-130.04;4.43;4.03 
1.775;0.08;0.06;0.70;2.37;18.85;0.56;342.26;-269.66;-380.00;0.71;-130.12;4.17;4.12 
1.805;0.06;0.06;0.50;0.21;23.30;3.27;341.27;-266.79;-378.00;0.51;-130.28;3.55;4.22 
1.835;0.11;0.02;0.39;-4.94;18.02;3.13;340.27;-263.92;-377.00;0.41;-130.44;2.98;4.24 
1.865;0.14;0.10;0.34;-11.55;14.68;2.02;341.27;-262.01;-377.00;0.38;-130.58;2.70;4.06 
1.896;0.17;0.12;0.38;-3.48;0.56;-6.54;337.29;-259.14;-376.00;0.43;-130.55;2.72;3.96 
1.925;0.20;0.10;0.53;1.67;-9.18;-13.22;341.27;-258.18;-373.00;0.58;-130.25;3.15;4.20 
1.954;0.20;0.04;0.71;-13.50;-4.45;-5.29;339.28;-259.14;-374.00;0.74;-129.95;3.56;4.18 
1.985;0.22;0.00;1.03;-19.06;2.37;-3.90;337.29;-259.14;-375.00;1.05;-129.82;3.82;3.65 
2.015;0.06;-0.09;1.39;-16.49;43.90;1.74;334.30;-259.14;-375.00;1.39;-129.77;3.34;3.12 
2.045;0.18;0.06;1.19;-24.49;90.02;-2.16;331.32;-246.71;-373.00;1.21;-129.90;1.39;2.56 
2.075;0.22;0.12;1.02;-31.86;116.24;-10.43;328.33;-230.45;-371.00;1.05;-129.82;-1.48;1.81 
2.105;0.46;0.09;0.90;-30.47;138.85;-21.50;326.34;-208.46;-367.00;1.01;-129.26;-5.10;0.93 
2.135;0.00;-0.16;1.00;-23.30;134.61;-12.45;317.39;-184.55;-358.00;1.01;-128.51;-9.26;0.12 
2.165;-3.06;-1.47;5.58;95.51;31.30;100.31;321.37;-164.47;-349.00;6.53;-129.01;-11.88;0.15 
2.196;0.95;0.34;2.89;-34.16;277.77;119.58;339.28;-136.74;-317.00;3.06;-128.11;-18.76;2.37 
2.226;0.80;1.70;0.81;-132.45;325.36;-0.21;343.26;-107.10;-294.00;2.05;-129.52;-28.46;2.02 
2.256;1.34;0.47;0.38;5.08;283.27;-133.57;322.36;-65.98;-268.00;1.47;-125.55;-36.47;-0.98 
2.286;0.97;-0.67;0.14;-57.04;298.16;-59.20;292.52;-10.52;-205.00;1.19;-118.86;-44.10;-4.06 
2.316;0.06;-0.31;-0.28;-50.50;305.53;16.56;280.58;14.34;-158.00;0.42;-113.24;-53.02;-6.15 
2.346;-0.04;-0.02;-0.58;-19.62;298.71;-1.95;286.55;26.77;-104.00;0.58;-106.19;-62.96;-6.78 
2.376;-0.23;-0.58;-0.89;-5.43;298.16;-3.76;285.55;36.34;-51.00;1.09;-97.41;-71.98;-7.43 
2.407;-2.86;-1.25;-2.98;-53.70;224.21;81.74;296.49;30.60;22.00;4.32;-90.58;-80.05;-6.48 
2.437;0.02;0.15;-1.56;-47.44;51.13;33.25;308.43;21.99;45.00;1.57;-87.84;-84.37;-4.93 
2.467;-0.60;0.19;-1.56;2.30;-95.17;62.05;314.40;20.08;46.00;1.68;-88.65;-85.89;-3.54 
2.497;-1.18;0.15;-1.06;-10.02;-300.24;22.54;324.35;19.12;20.00;1.59;-94.85;-82.44;-2.01 
2.527;-1.34;0.37;0.01;-12.17;-381.77;5.98;332.31;18.17;-63.00;1.39;-103.71;-73.21;-1.15 
2.557;-1.53;-0.10;1.67;-3.27;-195.41;-58.09;328.33;11.47;-122.00;2.27;-110.46;-63.30;-1.89 
2.587;-0.86;-0.62;1.17;-1.60;112.21;-29.43;317.39;12.43;-135.00;1.58;-109.84;-61.22;-3.43 
2.617;-1.55;-0.26;-0.40;-7.86;212.94;6.61;310.42;19.12;-112.00;1.62;-105.36;-66.61;-3.80 
2.647;-1.37;-0.13;-1.02;1.04;108.80;-8.28;315.40;33.47;-65.00;1.71;-100.66;-72.33;-3.83 
2.677;-1.26;-0.31;-0.90;2.57;-18.85;2.71;313.41;35.38;-56.00;1.58;-98.39;-74.61;-3.98 
2.708;-1.59;-0.38;-0.20;0.07;-100.73;12.24;317.39;31.56;-66.00;1.65;-99.40;-73.38;-3.81 
2.738;-1.27;-0.14;0.50;-6.61;-38.96;4.73;318.38;29.64;-82.00;1.37;-101.08;-71.52;-3.63 
2.768;-1.14;-0.19;0.32;1.18;45.84;8.77;320.37;27.73;-84.00;1.20;-101.17;-71.59;-3.37 
2.798;-1.21;-0.14;-0.22;-0.14;47.58;8.00;328.33;30.60;-75.00;1.24;-100.10;-73.19;-3.05 
2.828;-1.05;-0.21;-0.29;1.60;-6.82;10.57;323.36;31.56;-71.00;1.11;-99.22;-74.43;-2.83 
2.857;-1.08;-0.10;-0.06;-2.92;-53.57;10.02;326.34;28.69;-71.00;1.09;-99.65;-74.05;-2.56 
2.886;-1.04;-0.03;0.27;-3.34;-54.12;7.10;326.34;25.82;-89.00;1.07;-100.81;-72.67;-2.31 
2.917;-0.98;0.01;0.48;-0.14;-26.57;1.60;329.33;23.91;-95.00;1.09;-101.78;-71.38;-2.10 
2.947;-0.97;-0.02;0.34;-1.46;3.41;-2.23;330.32;21.99;-99.00;1.03;-101.85;-71.07;-2.06 
2.977;-0.99;-0.06;0.11;-1.11;2.23;-4.59;325.35;24.86;-96.00;1.00;-101.45;-71.34;-2.10 
3.008;-0.95;-0.13;0.12;-0.14;-14.61;-6.12;328.33;25.82;-96.00;0.97;-101.07;-71.39;-2.24 
3.038;-0.94;-0.10;0.27;0.42;-11.62;-3.55;325.35;28.69;-100.00;0.98;-100.94;-71.05;-2.40 
3.068;-0.94;-0.12;0.23;0.90;-2.30;-5.36;325.35;23.91;-104.00;0.98;-100.71;-70.95;-2.50 
3.098;-0.95;-0.14;0.18;0.63;-3.69;-4.38;324.35;24.86;-100.00;0.98;-100.32;-71.01;-2.64 
3.127;-0.97;-0.12;0.19;-0.35;-5.84;-4.24;323.36;25.82;-104.00;1.00;-100.00;-71.01;-2.77 
3.157;-0.95;-0.14;0.22;-0.49;-4.80;-2.99;323.36;25.82;-105.00;0.99;-99.75;-70.96;-2.88 
3.187;-0.97;-0.14;0.18;-0.28;-2.99;-1.32;321.37;24.86;-105.00;1.00;-99.50;-70.96;-2.98 
3.218;-0.94;-0.16;0.22;0.28;-1.95;0.56;321.37;26.77;-105.00;0.98;-99.28;-70.99;-3.03 
3.248;-0.94;-0.11;0.24;0.49;-2.30;-0.56;320.37;22.95;-106.00;0.98;-99.07;-71.08;-3.03 
3.278;-0.97;-0.14;0.22;0.97;-2.92;0.14;322.36;25.82;-107.00;1.00;-98.86;-71.18;-3.02 
3.308;-0.96;-0.15;0.18;1.18;-3.97;0.70;320.37;25.82;-104.00;0.99;-98.67;-71.25;-3.02 
3.337;-0.98;-0.15;0.20;0.56;-5.15;1.53;321.37;25.82;-107.00;1.01;-98.54;-71.27;-2.99 
3.367;-0.99;-0.13;0.20;-0.49;-5.43;1.39;322.36;24.86;-110.00;1.02;-98.45;-71.25;-2.97 
3.397;-0.96;-0.11;0.23;-0.83;-5.91;0.49;321.37;21.99;-109.00;0.99;-98.38;-71.21;-2.94 
3.427;-0.96;-0.12;0.24;-0.35;-5.63;1.04;323.36;25.82;-111.00;1.00;-98.29;-71.18;-2.93 
3.457;-0.98;-0.09;0.24;0.00;-4.45;0.70;325.35;23.91;-109.00;1.01;-98.20;-71.17;-2.91 
3.487;-0.93;-0.12;0.26;0.56;-1.53;0.49;325.35;22.95;-111.00;0.97;-98.11;-71.15;-2.88 
3.518;-0.99;-0.14;0.21;0.49;-0.35;-0.70;321.37;21.99;-109.00;1.02;-97.91;-71.23;-2.91 
3.547;-0.97;-0.10;0.24;-0.07;-1.32;-0.42;320.37;21.99;-113.00;1.00;-97.69;-71.33;-2.95 
3.577;-0.98;-0.09;0.25;-0.49;-1.04;-1.25;325.35;18.17;-114.00;1.02;-97.52;-71.43;-2.96 
3.607;-0.97;-0.11;0.23;-1.11;-0.21;-2.09;324.35;24.86;-116.00;1.00;-97.30;-71.53;-3.01 
3.637;-0.94;-0.14;0.23;-0.07;-0.56;-1.88;324.35;23.91;-114.00;0.98;-97.05;-71.63;-3.09 
3.667;-0.94;-0.13;0.21;0.00;-0.63;-1.67;324.35;24.86;-112.00;0.97;-96.81;-71.74;-3.15 
3.697;-0.93;-0.14;0.22;-0.49;-0.42;-1.32;320.37;26.77;-113.00;0.97;-96.61;-71.82;-3.20 
3.726;-0.94;-0.14;0.20;-0.28;0.21;-1.67;320.37;21.99;-115.00;0.97;-96.36;-71.93;-3.28 
3.756;-0.94;-0.12;0.25;0.00;-0.49;-0.21;320.37;25.82;-116.00;0.98;-96.14;-72.01;-3.35 
3.786;-0.98;-0.11;0.26;-0.21;-0.07;0.00;320.37;24.86;-116.00;1.02;-95.99;-72.09;-3.36 
3.817;-0.98;-0.12;0.22;-0.07;-0.28;-0.28;319.38;21.99;-112.00;1.01;-95.81;-72.20;-3.39 
3.847;-0.96;-0.12;0.22;0.28;-0.49;-0.28;317.39;24.86;-115.00;0.99;-95.64;-72.28;-3.41 
3.877;-0.94;-0.13;0.23;-0.28;0.14;-0.35;316.39;25.82;-113.00;0.98;-95.47;-72.37;-3.44 
3.907;-0.96;-0.14;0.23;-0.28;0.49;1.11;321.37;21.04;-115.00;1.00;-95.29;-72.49;-3.47 
3.937;-0.94;-0.11;0.23;-1.46;0.07;1.60;319.38;22.95;-114.00;0.97;-95.15;-72.60;-3.49 
3.967;-0.97;-0.13;0.20;-1.60;-0.56;1.67;322.36;24.86;-113.00;1.00;-95.07;-72.71;-3.44 
3.997;-0.94;-0.12;0.22;-1.53;-0.77;2.37;323.36;22.95;-112.00;0.97;-94.96;-72.82;-3.44 
4.027;-0.96;-0.10;0.25;-1.25;0.00;2.85;321.37;24.86;-115.00;1.00;-94.88;-72.94;-3.41 
4.057;-0.94;-0.11;0.20;-0.97;-0.63;2.02;322.36;22.95;-116.00;0.97;-94.81;-73.07;-3.35 
4.087;-0.94;-0.10;0.26;0.00;-0.35;1.81;320.37;23.91;-114.00;0.98;-94.75;-73.12;-3.31 
4.118;-0.97;-0.08;0.26;0.21;0.35;-0.14;321.37;23.91;-115.00;1.01;-94.67;-73.23;-3.27 
4.148;-0.96;-0.10;0.24;0.56;0.21;-0.97;323.36;24.86;-113.00;0.99;-94.49;-73.33;-3.31 
4.178;-0.94;-0.14;0.22;0.07;0.28;-0.14;322.36;20.08;-114.00;0.98;-94.34;-73.42;-3.33 
4.208;-0.97;-0.13;0.24;-0.14;-1.04;-0.49;320.37;21.04;-112.00;1.01;-94.20;-73.51;-3.35 
4.238;-0.95;-0.12;0.22;-0.63;-0.49;-0.14;324.35;23.91;-114.00;0.98;-94.08;-73.56;-3.38 
4.268;-0.97;-0.14;0.26;-0.63;-1.39;-0.42;323.36;21.04;-115.00;1.01;-93.95;-73.61;-3.42 
4.298;-0.95;-0.10;0.23;-0.70;-2.09;-1.04;324.35;21.04;-119.00;0.98;-93.83;-73.63;-3.47 
4.328;-0.96;-0.11;0.25;-0.14;-2.09;-0.77;323.36;22.95;-115.00;1.00;-93.71;-73.65;-3.51 
4.357;-0.95;-0.09;0.21;-0.56;-0.42;-0.35;323.36;23.91;-116.00;0.98;-93.59;-73.68;-3.55 
4.387;-0.94;-0.12;0.22;-0.28;0.21;-0.35;321.37;22.95;-116.00;0.97;-93.47;-73.73;-3.59 
4.418;-0.90;-0.13;0.24;-0.63;0.83;-0.70;321.37;21.04;-115.00;0.94;-93.34;-73.80;-3.62 
4.448;-0.96;-0.14;0.24;-0.28;0.21;-0.77;321.37;23.91;-116.00;1.00;-93.19;-73.88;-3.67 
4.478;-0.96;-0.14;0.26;0.28;1.04;-0.63;320.37;23.91;-118.00;1.00;-93.06;-73.96;-3.70 
4.507;-0.95;-0.14;0.20;0.70;1.04;-0.56;323.36;21.99;-118.00;0.98;-92.91;-74.08;-3.73 
4.537;-0.94;-0.14;0.22;0.77;-0.07;-0.49;321.37;24.86;-116.00;0.98;-92.76;-74.15;-3.78 
4.567;-0.94;-0.12;0.24;0.63;0.56;0.07;323.36;21.99;-117.00;0.98;-92.67;-74.21;-3.78 
4.597;-0.96;-0.14;0.20;-0.07;0.07;-0.49;319.38;22.95;-116.00;0.99;-92.55;-74.30;-3.81 
4.628;-0.94;-0.13;0.23;-0.07;-0.28;0.14;318.38;26.77;-116.00;0.98;-92.45;-74.36;-3.83 
4.658;-0.94;-0.10;0.26;0.00;1.04;0.00;320.37;24.86;-116.00;0.98;-92.35;-74.43;-3.84 
4.688;-0.95;-0.10;0.26;-0.21;0.70;-0.97;316.39;23.91;-112.00;0.99;-92.25;-74.51;-3.85 
4.718;-0.94;-0.12;0.24;0.00;0.77;-1.25;319.38;22.95;-113.00;0.98;-92.11;-74.61;-3.90 
4.748;-0.94;-0.15;0.23;0.28;0.83;-1.67;320.37;21.99;-116.00;0.98;-91.97;-74.68;-3.96 
4.778;-0.94;-0.16;0.26;0.14;1.04;-0.90;320.37;22.95;-115.00;0.99;-91.81;-74.74;-4.02 
4.807;-0.96;-0.15;0.24;0.14;1.18;-0.70;321.37;21.99;-116.00;1.00;-91.66;-74.81;-4.09 
4.838;-0.97;-0.12;0.23;-0.35;0.35;-1.11;319.38;23.91;-116.00;1.00;-91.53;-74.89;-4.14 
4.868;-0.94;-0.14;0.26;-0.35;1.39;0.49;321.37;21.04;-114.00;0.99;-91.39;-74.93;-4.21 
4.898;-0.93;-0.10;0.25;-0.28;1.60;0.21;319.38;23.91;-114.00;0.97;-91.31;-75.00;-4.22 
4.929;-0.95;-0.12;0.22;-0.07;0.77;0.70;320.37;21.99;-113.00;0.98;-91.23;-75.08;-4.23 
4.959;-0.95;-0.15;0.22;0.42;1.46;1.46;324.35;23.91;-114.00;0.99;-91.16;-75.18;-4.22 
4.989;-0.95;-0.11;0.22;0.28;1.32;0.90;320.37;23.91;-114.00;0.98;-91.10;-75.26;-4.20 
5.019;-0.97;-0.10;0.24;0.00;0.63;0.28;322.36;23.91;-110.00;1.00;-91.03;-75.33;-4.21 
5.049;-0.94;-0.11;0.22;0.28;1.25;0.70;321.37;24.86;-112.00;0.97;-90.94;-75.40;-4.22 
5.079;-0.94;-0.11;0.22;0.35;0.49;-0.77;321.37;22.95;-115.00;0.97;-90.87;-75.47;-4.23 
5.109;-0.95;-0.15;0.26;0.49;0.90;-0.21;319.38;23.91;-113.00;1.00;-90.76;-75.50;-4.27 
5.140;-0.97;-0.11;0.22;-0.07;1.39;0.28;320.37;23.91;-113.00;1.00;-90.67;-75.57;-4.30 
5.170;-0.97;-0.12;0.23;-0.42;-0.14;-0.49;323.36;22.95;-113.00;1.00;-90.59;-75.64;-4.32 
5.200;-0.96;-0.11;0.23;-0.28;0.14;-0.63;323.36;24.86;-115.00;0.99;-90.49;-75.67;-4.36 
5.230;-0.95;-0.10;0.20;-0.63;-0.42;-1.67;319.38;22.95;-112.00;0.98;-90.39;-75.69;-4.41 
5.260;-0.96;-0.12;0.24;-0.21;-0.28;-1.25;317.39;23.91;-113.00;1.00;-90.26;-75.69;-4.50 
5.289;-0.94;-0.14;0.26;0.00;0.42;-0.63;321.37;24.86;-112.00;0.99;-90.17;-75.69;-4.55 
5.319;-0.96;-0.13;0.22;-0.97;0.00;-0.83;323.36;25.82;-113.00;0.99;-90.08;-75.72;-4.60 
5.350;-0.94;-0.14;0.20;-0.56;-0.42;0.07;321.37;24.86;-115.00;0.97;-89.98;-75.74;-4.65 
5.380;-0.95;-0.14;0.22;-0.28;-0.14;-0.07;320.37;25.82;-112.00;0.99;-89.91;-75.78;-4.67 
5.410;-0.95;-0.12;0.22;-0.49;-0.56;-0.21;320.37;25.82;-113.00;0.98;-89.84;-75.80;-4.71 
5.441;-0.98;-0.14;0.22;0.14;-0.77;0.00;320.37;24.86;-112.00;1.01;-89.76;-75.84;-4.73 
5.471;-0.97;-0.10;0.20;0.35;-0.42;0.56;319.38;25.82;-116.00;1.00;-89.71;-75.86;-4.75 
5.500;-0.94;-0.14;0.24;0.07;-2.30;-0.42;319.38;24.86;-115.00;0.98;-89.65;-75.87;-4.76 
5.530;-0.97;-0.13;0.26;0.14;-2.02;0.42;319.38;24.86;-115.00;1.01;-89.60;-75.84;-4.79 
5.560;-0.96;-0.10;0.25;-0.21;-0.97;-0.07;318.38;22.95;-118.00;1.00;-89.57;-75.80;-4.81 
5.590;-0.95;-0.14;0.24;-0.56;-1.46;0.14;320.37;26.77;-114.00;0.99;-89.51;-75.78;-4.84 
5.620;-0.94;-0.10;0.23;-0.70;-0.42;0.28;322.36;24.86;-115.00;0.97;-89.47;-75.77;-4.86 
5.651;-0.94;-0.12;0.26;-0.56;-0.42;-0.56;317.39;20.08;-116.00;0.98;-89.42;-75.75;-4.88 
5.680;-0.94;-0.13;0.22;-0.42;1.88;0.28;319.38;23.91;-116.00;0.97;-89.33;-75.79;-4.94 
5.709;-0.94;-0.14;0.22;-0.07;0.90;0.42;321.37;22.95;-117.00;0.98;-89.28;-75.83;-4.95 
5.740;-0.95;-0.14;0.21;-0.42;2.09;0.14;317.39;23.91;-118.00;0.98;-89.23;-75.89;-4.95 
5.770;-0.97;-0.14;0.21;-0.07;2.02;-0.28;319.38;23.91;-114.00;1.00;-89.16;-75.94;-4.98 
5.800;-0.97;-0.13;0.21;-0.07;1.25;0.35;321.37;23.91;-117.00;1.00;-89.07;-76.00;-5.02 
5.830;-0.94;-0.14;0.21;-0.07;0.70;0.97;319.38;26.77;-116.00;0.97;-89.03;-76.04;-5.02 
5.861;-0.97;-0.12;0.22;-0.35;0.63;0.83;317.39;25.82;-113.00;1.00;-88.99;-76.08;-5.02 
5.891;-0.95;-0.13;0.22;-0.28;0.70;0.63;321.37;24.86;-117.00;0.98;-88.95;-76.13;-5.02 
5.920;-0.97;-0.12;0.22;-0.14;0.90;0.07;319.38;22.95;-115.00;1.00;-88.89;-76.18;-5.04 
5.951;-0.95;-0.11;0.22;0.07;0.00;-0.07;319.38;23.91;-114.00;0.98;-88.84;-76.24;-5.05 
5.981;-0.97;-0.13;0.22;-0.21;0.83;0.07;323.36;25.82;-114.00;1.00;-88.77;-76.26;-5.09 
6.011;-0.96;-0.12;0.22;-0.28;0.14;-0.49;317.39;25.82;-114.00;0.99;-88.72;-76.29;-5.11 
6.041;-0.94;-0.14;0.22;-0.35;0.07;-0.63;318.38;23.91;-111.00;0.98;-88.65;-76.31;-5.14 
6.070;-0.94;-0.14;0.23;-0.14;0.63;-0.35;320.37;25.82;-113.00;0.98;-88.58;-76.33;-5.18 
6.099;-0.95;-0.13;0.23;0.14;0.35;0.00;323.36;24.86;-113.00;0.99;-88.53;-76.34;-5.21 
6.129;-0.97;-0.10;0.22;-0.42;0.07;-0.35;318.38;25.82;-113.00;1.00;-88.47;-76.37;-5.24 
6.160;-0.94;-0.15;0.24;-0.56;0.90;-1.32;319.38;21.99;-113.00;0.98;-88.40;-76.40;-5.27 
6.190;-0.93;-0.14;0.25;-0.42;0.83;-1.04;320.37;20.08;-113.00;0.97;-88.32;-76.41;-5.33 
6.220;-0.95;-0.13;0.24;-0.21;1.18;-0.90;320.37;24.86;-114.00;0.99;-88.23;-76.42;-5.38 
6.251;-0.97;-0.09;0.25;-0.28;0.70;-1.18;320.37;25.82;-109.00;1.01;-88.16;-76.43;-5.43 
6.280;-0.97;-0.13;0.25;0.07;0.49;-0.83;318.38;23.91;-115.00;1.01;-88.08;-76.43;-5.48 
6.310;-0.95;-0.14;0.22;0.28;0.35;-1.25;318.38;22.95;-115.00;0.99;-88.01;-76.43;-5.53 
6.340;-0.93;-0.14;0.26;0.00;1.74;-0.49;319.38;23.91;-112.00;0.98;-87.93;-76.44;-5.59 
6.370;-0.94;-0.13;0.23;0.35;1.81;-1.39;322.36;24.86;-111.00;0.98;-87.84;-76.50;-5.63 
6.399;-0.97;-0.14;0.22;0.83;0.56;-0.28;319.38;26.77;-114.00;1.00;-87.74;-76.55;-5.69 
6.428;-0.94;-0.14;0.21;0.35;-0.21;0.49;320.37;23.91;-112.00;0.97;-87.68;-76.55;-5.72 
6.459;-0.94;-0.12;0.21;-0.35;-0.07;-0.28;321.37;22.95;-110.00;0.97;-87.63;-76.57;-5.75 
6.489;-0.96;-0.14;0.23;-0.42;-1.32;-0.14;320.37;24.86;-110.00;1.00;-87.58;-76.56;-5.79 
6.519;-0.96;-0.12;0.23;-0.21;-1.25;0.56;318.38;23.91;-112.00;0.99;-87.57;-76.54;-5.79 
6.550;-0.95;-0.12;0.26;0.00;-1.11;-0.35;323.36;27.73;-111.00;0.99;-87.54;-76.50;-5.81 
6.580;-0.94;-0.14;0.22;-0.35;-0.77;0.00;319.38;22.95;-115.00;0.98;-87.52;-76.47;-5.83 
6.609;-0.94;-0.12;0.20;-0.77;-1.39;-0.07;319.38;24.86;-115.00;0.97;-87.51;-76.45;-5.83 
6.638;-0.95;-0.12;0.26;-0.83;-1.18;-0.70;318.38;23.91;-114.00;0.99;-87.52;-76.41;-5.83 
6.668;-0.98;-0.14;0.24;-0.70;-1.04;-0.49;319.38;24.86;-117.00;1.02;-87.49;-76.36;-5.85 
6.698;-0.95;-0.14;0.26;-0.21;-0.35;-0.90;320.37;22.95;-114.00;0.99;-87.44;-76.35;-5.89 
6.728;-0.96;-0.13;0.25;0.28;0.00;-0.83;319.38;25.82;-114.00;1.00;-87.37;-76.30;-5.95 
6.759;-0.95;-0.15;0.22;-0.28;0.14;-0.63;318.38;23.91;-113.00;0.99;-87.31;-76.30;-5.99 
6.789;-0.93;-0.14;0.25;-0.42;0.63;-0.42;319.38;23.91;-115.00;0.97;-87.24;-76.28;-6.05 
6.819;-0.95;-0.15;0.25;-0.49;0.35;0.28;318.38;26.77;-117.00;0.99;-87.19;-76.27;-6.09 
6.849;-0.94;-0.14;0.23;-0.07;0.00;0.28;317.39;24.86;-118.00;0.98;-87.16;-76.28;-6.10 
6.879;-0.95;-0.14;0.23;0.00;0.14;-0.07;317.39;24.86;-115.00;0.99;-87.12;-76.30;-6.13 
6.909;-1.00;-0.15;0.21;-0.35;-0.28;0.07;318.38;25.82;-120.00;1.03;-87.07;-76.29;-6.16 
6.939;-0.96;-0.14;0.24;-0.35;-0.56;-0.14;319.38;24.86;-114.00;1.00;-87.05;-76.27;-6.18 
6.969;-0.97;-0.14;0.18;0.07;0.00;-0.07;316.39;22.95;-115.00;1.00;-87.03;-76.27;-6.19 
6.998;-0.94;-0.14;0.26;-0.14;-0.14;-0.63;318.38;23.91;-114.00;0.99;-87.01;-76.27;-6.20 
7.028;-0.96;-0.11;0.22;-0.21;0.90;-0.77;320.37;24.86;-115.00;0.99;-86.97;-76.27;-6.22 
7.059;-0.94;-0.13;0.24;0.00;0.42;-0.49;318.38;25.82;-113.00;0.98;-86.92;-76.28;-6.25 
7.089;-0.93;-0.13;0.26;0.00;1.11;-1.25;318.38;23.91;-115.00;0.97;-86.88;-76.27;-6.28 
7.119;-0.95;-0.14;0.24;0.07;0.97;-0.56;318.38;28.69;-115.00;0.99;-86.81;-76.28;-6.33 
7.149;-0.96;-0.14;0.21;-0.14;0.42;-0.56;320.37;24.86;-113.00;0.99;-86.75;-76.29;-6.37 
7.178;-0.94;-0.14;0.23;-0.21;0.70;-0.49;316.39;26.77;-116.00;0.98;-86.70;-76.28;-6.41 
7.208;-0.95;-0.14;0.23;-0.21;0.14;0.14;321.37;25.82;-114.00;0.99;-86.66;-76.29;-6.44 
7.238;-0.96;-0.13;0.21;-0.42;0.07;0.14;318.38;24.86;-114.00;0.99;-86.65;-76.28;-6.45 
7.269;-0.96;-0.14;0.26;-0.42;0.70;0.63;316.39;24.86;-112.00;1.00;-86.63;-76.26;-6.47 
7.299;-0.95;-0.14;0.21;0.42;-0.07;1.04;314.40;26.77;-115.00;0.98;-86.62;-76.26;-6.47 
7.329;-0.96;-0.14;0.24;0.97;0.42;0.49;315.40;28.69;-116.00;1.00;-86.62;-76.28;-6.45 
7.360;-0.94;-0.14;0.19;1.39;0.70;1.39;319.38;25.82;-115.00;0.97;-86.64;-76.31;-6.41 
7.390;-0.94;-0.14;0.22;0.90;0.28;1.04;320.37;26.77;-110.00;0.98;-86.64;-76.34;-6.39 
7.420;-0.95;-0.14;0.25;0.07;-0.28;0.56;321.37;24.86;-116.00;0.99;-86.62;-76.34;-6.40 
7.450;-0.96;-0.13;0.26;-0.14;0.63;0.28;317.39;23.91;-111.00;1.00;-86.59;-76.33;-6.42 
7.480;-0.96;-0.14;0.23;0.00;0.90;0.14;319.38;21.99;-112.00;1.00;-86.56;-76.32;-6.44 
7.509;-0.97;-0.11;0.23;-0.14;0.28;0.97;317.39;27.73;-115.00;1.00;-86.51;-76.33;-6.47 
7.539;-0.95;-0.14;0.26;-0.35;0.07;-0.07;318.38;25.82;-114.00;0.99;-86.51;-76.34;-6.47 
7.570;-0.94;-0.14;0.18;0.00;0.97;0.77;317.39;25.82;-116.00;0.97;-86.48;-76.35;-6.49 
7.600;-0.96;-0.12;0.19;-0.28;-0.07;-0.14;319.38;22.95;-113.00;0.99;-86.47;-76.37;-6.50 
7.630;-0.98;-0.12;0.21;-0.35;0.42;-0.35;322.36;25.82;-114.00;1.01;-86.45;-76.35;-6.50 
7.660;-0.97;-0.10;0.22;-0.14;-0.56;-0.97;319.38;25.82;-113.00;1.00;-86.42;-76.35;-6.53 
7.690;-0.95;-0.11;0.22;0.14;-0.28;-0.28;319.38;25.82;-113.00;0.98;-86.39;-76.33;-6.55 
7.720;-0.95;-0.14;0.23;-0.21;0.56;-1.04;318.38;22.95;-116.00;0.99;-86.34;-76.31;-6.59 
7.750;-0.97;-0.12;0.22;-0.35;-0.56;-1.04;319.38;27.73;-114.00;1.00;-86.29;-76.30;-6.64 
7.781;-0.95;-0.14;0.25;-0.28;-0.83;-1.04;320.37;23.91;-113.00;0.99;-86.22;-76.26;-6.70 
7.811;-0.94;-0.15;0.22;0.35;-0.83;-1.04;317.39;24.86;-112.00;0.98;-86.16;-76.21;-6.76 
7.841;-0.97;-0.12;0.21;-0.14;-1.32;-0.70;320.37;24.86;-113.00;1.00;-86.13;-76.17;-6.80 
7.871;-0.96;-0.14;0.22;0.35;-1.81;-0.49;313.41;27.73;-115.00;0.99;-86.11;-76.14;-6.82 
7.900;-0.95;-0.18;0.19;0.35;-1.74;-0.14;315.40;25.82;-114.00;0.99;-86.09;-76.08;-6.85 
7.930;-0.95;-0.14;0.24;0.49;-1.60;-0.28;317.39;25.82;-114.00;0.99;-86.08;-76.00;-6.87 
7.960;-0.95;-0.11;0.22;0.77;-1.88;0.07;314.40;22.95;-116.00;0.98;-86.09;-75.95;-6.87 
7.990;-0.96;-0.14;0.22;0.83;-1.46;-0.07;318.38;22.95;-114.00;0.99;-86.12;-75.90;-6.85 
8.020;-0.96;-0.12;0.20;0.28;-1.95;-0.14;320.37;24.86;-114.00;0.99;-86.11;-75.85;-6.86 
8.050;-0.95;-0.14;0.23;0.07;-1.81;-0.56;318.38;25.82;-115.00;0.99;-86.09;-75.79;-6.89 
8.080;-0.95;-0.13;0.26;0.28;-1.88;-0.42;314.40;24.86;-113.00;0.99;-86.07;-75.71;-6.92 
8.110;-0.94;-0.15;0.23;0.07;-1.18;0.35;315.40;23.91;-116.00;0.98;-86.08;-75.65;-6.92 
8.140;-0.96;-0.14;0.25;0.00;-0.83;0.42;317.39;24.86;-115.00;1.00;-86.08;-75.62;-6.93 
8.171;-0.95;-0.16;0.22;-0.28;-0.35;0.07;316.39;23.91;-117.00;0.99;-86.06;-75.57;-6.96 
8.201;-0.96;-0.13;0.26;0.28;0.21;0.42;316.39;26.77;-119.00;1.00;-86.05;-75.56;-6.97 
8.231;-0.97;-0.10;0.26;-0.21;-0.14;0.14;317.39;22.95;-116.00;1.01;-86.06;-75.55;-6.97 
8.261;-0.95;-0.15;0.25;0.07;-0.28;0.14;319.38;24.86;-116.00;0.99;-86.04;-75.57;-6.98 
8.291;-0.94;-0.12;0.25;0.00;0.56;0.56;319.38;23.91;-115.00;0.98;-86.04;-75.56;-6.98 
8.321;-0.94;-0.15;0.20;-0.56;-0.14;-0.07;316.39;26.77;-115.00;0.97;-86.05;-75.56;-6.97 
8.351;-0.94;-0.14;0.25;0.07;-0.97;-0.07;319.38;21.99;-116.00;0.98;-86.03;-75.56;-6.99 
8.382;-0.97;-0.10;0.25;0.07;0.49;0.00;315.40;27.73;-119.00;1.01;-86.03;-75.52;-7.01 
8.411;-0.96;-0.16;0.22;-0.07;-0.42;-0.42;316.39;23.91;-119.00;1.00;-86.02;-75.50;-7.02 
8.441;-0.95;-0.11;0.26;-0.07;-0.14;0.07;319.38;23.91;-119.00;0.99;-86.01;-75.49;-7.04 
8.471;-0.94;-0.14;0.22;0.35;-0.56;-0.21;316.39;23.91;-118.00;0.98;-85.99;-75.46;-7.05 
8.501;-0.94;-0.13;0.26;0.42;-0.14;-0.28;319.38;25.82;-116.00;0.98;-85.98;-75.44;-7.07 
8.531;-0.95;-0.12;0.24;0.63;-0.56;-0.07;315.40;25.82;-119.00;0.99;-85.96;-75.42;-7.08 
8.561;-0.95;-0.12;0.26;0.28;0.07;0.14;315.40;25.82;-116.00;0.99;-85.97;-75.40;-7.08 
8.592;-0.94;-0.14;0.24;0.35;0.00;0.35;318.38;22.95;-116.00;0.98;-85.96;-75.40;-7.09 
8.621;-0.96;-0.14;0.23;0.35;0.42;0.90;320.37;22.95;-118.00;1.00;-85.95;-75.38;-7.10 
8.651;-0.97;-0.11;0.22;-0.21;-0.97;0.56;316.39;25.82;-117.00;1.00;-85.98;-75.40;-7.08 
8.682;-0.95;-0.14;0.23;-0.21;-0.83;-0.42;317.39;25.82;-117.00;0.99;-85.98;-75.36;-7.09 
8.712;-0.95;-0.12;0.21;0.28;-0.42;0.97;316.39;24.86;-121.00;0.98;-85.99;-75.34;-7.08 
8.742;-0.94;-0.10;0.24;-0.56;-1.32;-0.49;316.39;25.82;-117.00;0.98;-86.02;-75.34;-7.07 
8.772;-0.94;-0.16;0.22;-0.56;-2.02;-1.25;318.38;23.91;-118.00;0.98;-86.00;-75.27;-7.10 
8.802;-0.94;-0.15;0.21;0.42;-1.11;-0.35;319.38;25.82;-121.00;0.97;-85.97;-75.21;-7.15 
8.831;-0.96;-0.11;0.27;0.56;-1.25;-0.70;319.38;22.95;-121.00;1.00;-85.96;-75.14;-7.17 
8.861;-0.94;-0.15;0.26;0.49;-0.83;-0.90;317.39;24.86;-117.00;0.99;-85.93;-75.08;-7.20 
8.892;-0.94;-0.14;0.26;-0.14;-0.56;-0.14;320.37;22.95;-119.00;0.99;-85.91;-75.04;-7.23 
8.922;-0.94;-0.14;0.23;-0.14;-0.28;0.21;319.38;23.91;-119.00;0.98;-85.92;-75.00;-7.24 
8.952;-0.96;-0.10;0.22;-0.28;-0.77;-0.28;316.39;26.77;-122.00;0.99;-85.93;-74.98;-7.24 
8.983;-0.96;-0.11;0.25;-0.49;-0.21;-0.28;318.38;24.86;-119.00;1.00;-85.92;-74.94;-7.26 
9.013;-0.91;-0.13;0.23;-0.14;0.42;-0.14;320.37;24.86;-120.00;0.95;-85.92;-74.93;-7.27 
9.043;-0.94;-0.14;0.22;-0.28;0.21;-0.83;317.39;23.91;-117.00;0.98;-85.88;-74.91;-7.31 
9.072;-0.94;-0.14;0.27;-0.35;0.77;-0.07;320.37;26.77;-124.00;0.99;-85.86;-74.87;-7.34 
9.101;-0.94;-0.15;0.24;-0.14;0.70;-0.56;313.41;26.77;-121.00;0.98;-85.84;-74.88;-7.36 
9.131;-0.92;-0.14;0.24;-0.35;0.14;-0.77;314.40;22.95;-117.00;0.96;-85.82;-74.88;-7.39 
9.161;-0.96;-0.14;0.23;-0.21;-0.35;-0.49;315.40;23.91;-121.00;1.00;-85.78;-74.85;-7.44 
9.192;-0.93;-0.16;0.24;-0.14;-0.56;-0.56;317.39;26.77;-121.00;0.97;-85.76;-74.81;-7.47 
9.222;-0.92;-0.14;0.26;-0.07;-0.14;-0.35;316.39;22.95;-120.00;0.97;-85.75;-74.78;-7.49 
9.252;-0.92;-0.14;0.27;0.00;0.56;-0.14;318.38;24.86;-121.00;0.97;-85.73;-74.75;-7.52 
9.281;-0.94;-0.14;0.26;0.21;0.90;0.07;316.39;23.91;-119.00;0.99;-85.72;-74.74;-7.54 
9.311;-0.96;-0.14;0.24;-0.35;0.49;0.90;318.38;22.95;-119.00;1.00;-85.73;-74.76;-7.53 
9.341;-0.97;-0.13;0.24;-0.97;-0.42;-0.21;317.39;27.73;-121.00;1.01;-85.75;-74.75;-7.52 
9.371;-0.94;-0.14;0.26;-0.35;-0.63;0.14;319.38;25.82;-120.00;0.99;-85.75;-74.72;-7.54 
9.401;-0.96;-0.10;0.26;0.07;0.63;0.56;317.39;23.91;-117.00;1.00;-85.79;-74.71;-7.51 
9.431;-0.95;-0.12;0.26;-0.21;1.04;-0.35;316.39;22.95;-120.00;0.99;-85.81;-74.73;-7.49 
9.461;-0.96;-0.14;0.26;0.00;0.42;-0.83;317.39;25.82;-120.00;1.00;-85.79;-74.72;-7.51 
9.492;-0.95;-0.14;0.26;-0.14;-0.14;-0.42;317.39;24.86;-122.00;0.99;-85.78;-74.71;-7.54 
9.521;-0.94;-0.13;0.27;-0.21;0.07;-0.56;316.39;26.77;-119.00;0.99;-85.78;-74.70;-7.54 
9.551;-0.91;-0.14;0.26;-0.56;1.11;-0.63;314.40;24.86;-120.00;0.96;-85.76;-74.68;-7.58 
9.581;-0.94;-0.16;0.22;-0.21;0.97;-0.14;318.38;24.86;-124.00;0.98;-85.73;-74.70;-7.60 
9.611;-0.94;-0.13;0.26;-0.07;1.25;0.28;319.38;24.86;-120.00;0.98;-85.72;-74.70;-7.61 
