Time(s) acc_x(g) acc_y(g) acc_z(g) gyr_x(°/s) gyr_y(°/s) gyr_z(°/s) mag_x(G) mag_y(G) mag_z(G) SVM(g) yaw(°) pitch(°) roll(°)
0.000;0.00;0.03;0.91;-17.95;4.10;16.97;329.05;-235.03;-379.00;0.91;-136.79;-0.28;1.39 
0.030;-0.13;-0.02;0.80;-14.12;-1.04;13.15;325.07;-236.95;-380.00;0.81;-137.34;-0.41;0.97 
0.060;-0.13;-0.06;0.86;-8.07;-2.78;12.59;326.07;-235.99;-380.00;0.87;-137.83;-0.43;0.65 
0.090;-0.07;0.00;0.94;-5.01;3.76;11.62;326.07;-239.81;-382.00;0.94;-138.29;-0.54;0.51 
0.120;-0.09;-0.07;0.87;-3.41;10.09;12.17;324.08;-240.77;-377.00;0.88;-138.74;-0.83;0.44 
0.150;-0.07;-0.09;0.85;-1.53;10.02;10.71;325.07;-238.86;-377.00;0.86;-139.16;-1.18;0.39 
0.180;-0.10;-0.07;0.86;-0.07;7.93;10.02;322.09;-235.03;-378.00;0.87;-139.53;-1.56;0.39 
0.210;-0.11;-0.06;0.91;0.49;6.40;7.65;323.09;-236.95;-375.00;0.92;-139.91;-1.87;0.46 
0.240;-0.09;-0.07;0.89;-0.70;11.27;5.50;324.08;-235.99;-381.00;0.90;-140.17;-2.15;0.49 
0.270;-0.06;-0.16;0.88;3.06;10.71;10.92;325.07;-235.03;-380.00;0.90;-140.46;-2.56;0.51 
0.301;0.00;-0.15;0.86;2.92;12.24;11.34;329.05;-234.08;-374.00;0.87;-140.85;-2.93;0.63 
0.331;-0.02;-0.15;0.79;6.82;16.28;16.35;331.04;-233.12;-376.00;0.80;-141.35;-3.39;0.75 
0.361;-0.02;-0.09;0.78;8.70;6.19;15.79;335.02;-230.26;-373.00;0.79;-141.86;-3.72;0.97 
0.391;-0.12;-0.06;0.81;11.20;-0.07;18.57;335.02;-233.12;-374.00;0.82;-142.42;-3.85;1.30 
0.421;-0.30;0.15;0.94;1.53;-7.37;14.47;338.00;-234.08;-372.00;1.00;-143.02;-3.92;1.73 
0.451;-0.22;0.14;1.04;-18.43;-9.11;7.72;337.00;-235.99;-371.00;1.07;-143.38;-3.84;1.77 
0.481;-0.22;-0.10;0.88;-23.23;11.41;9.46;332.03;-239.81;-378.00;0.91;-143.67;-3.94;1.29 
0.511;-0.32;-0.15;0.66;-24.07;13.08;17.81;332.03;-236.95;-374.00;0.75;-144.12;-4.62;0.58 
0.541;-0.40;-0.06;0.74;-21.08;-8.07;25.32;328.06;-237.90;-382.00;0.84;-144.80;-5.15;-0.07 
0.571;-0.28;0.14;1.06;-5.77;-26.16;31.37;326.07;-245.54;-383.00;1.11;-145.72;-4.92;-0.29 
0.602;-0.06;0.21;1.31;2.78;12.87;27.69;327.06;-248.41;-382.00;1.33;-146.70;-4.60;0.04 
0.632;-0.20;0.28;0.85;5.36;40.28;21.77;332.03;-242.68;-381.00;0.92;-147.48;-5.66;0.57 
0.662;-0.26;0.16;0.68;9.74;9.81;15.58;331.04;-242.68;-381.00;0.75;-147.99;-6.74;1.18 
0.692;-0.18;0.17;0.92;14.89;0.07;11.83;335.02;-240.77;-379.00;0.95;-148.39;-6.96;1.90 
0.721;-0.18;0.13;0.90;12.24;23.58;11.13;339.99;-239.81;-378.00;0.93;-148.70;-7.37;2.62 
0.751;-0.19;0.18;0.77;5.29;22.96;9.18;344.96;-241.72;-372.00;0.81;-148.94;-8.19;3.21 
0.781;-0.17;0.19;0.77;-0.21;15.17;0.07;343.96;-236.95;-373.00;0.81;-149.10;-8.89;3.63 
0.811;-0.14;0.13;0.86;-1.95;13.15;-10.71;342.97;-235.03;-373.00;0.88;-148.93;-9.39;3.87 
0.841;-0.21;0.06;0.82;-8.28;21.15;-11.48;340.98;-233.12;-373.00;0.85;-148.57;-9.97;3.88 
0.871;-0.26;-0.14;0.81;-13.08;11.69;-12.94;339.99;-225.48;-367.00;0.86;-148.17;-10.68;3.62 
0.901;-0.23;-0.13;0.92;-2.50;-5.43;-4.45;336.01;-223.57;-369.00;0.96;-147.93;-10.86;3.27 
0.931;-0.16;0.05;1.10;3.48;9.53;3.41;334.02;-224.52;-371.00;1.11;-147.91;-10.86;3.39 
0.960;-0.18;0.19;0.90;-0.56;29.84;0.63;334.02;-219.75;-371.00;0.94;-147.98;-11.48;3.70 
0.989;-0.27;0.09;0.71;-1.53;23.79;-5.91;337.00;-214.97;-370.00;0.76;-147.89;-12.42;3.91 
1.018;-0.28;-0.03;0.78;1.67;10.23;-8.21;339.99;-212.10;-368.00;0.83;-147.64;-13.00;4.07 
1.048;-0.26;-0.08;0.88;2.71;11.90;-4.66;337.00;-209.24;-365.00;0.92;-147.42;-13.40;4.16 
1.078;-0.25;-0.05;0.81;0.56;14.54;-2.71;335.02;-205.42;-368.00;0.85;-147.24;-13.94;4.25 
1.109;-0.24;-0.02;0.81;-1.53;8.49;-1.39;336.01;-202.55;-364.00;0.85;-147.14;-14.38;4.32 
1.139;-0.24;-0.03;0.78;-0.14;8.07;0.49;334.02;-201.59;-364.00;0.82;-147.11;-14.72;4.37 
1.169;-0.22;-0.04;0.74;2.85;5.36;-2.57;334.02;-200.64;-364.00;0.77;-147.07;-14.94;4.53 
1.200;-0.19;-0.05;0.77;4.87;-2.57;2.23;337.00;-199.68;-360.00;0.79;-147.02;-15.07;4.73 
1.230;-0.18;-0.09;0.74;3.55;-4.45;5.98;338.00;-201.59;-362.00;0.77;-147.11;-15.01;4.93 
1.260;-0.21;-0.05;0.70;-2.78;-9.11;8.83;340.98;-203.51;-361.00;0.73;-147.32;-14.86;5.04 
1.290;-0.25;-0.02;0.65;-8.90;-7.44;9.11;335.02;-204.46;-362.00;0.70;-147.66;-14.63;5.10 
1.321;-0.26;0.02;0.56;-12.10;-9.46;0.14;336.01;-206.37;-364.00;0.62;-147.84;-14.51;4.94 
1.351;-0.23;0.06;0.54;-11.13;-11.83;-2.92;338.99;-212.10;-365.00;0.59;-147.88;-14.35;4.78 
1.381;-0.27;0.10;0.53;-13.77;-9.39;-10.92;338.00;-212.10;-367.00;0.60;-147.75;-14.23;4.58 
1.412;-0.27;-0.04;0.54;-6.33;-22.89;-16.63;330.05;-214.97;-370.00;0.61;-147.33;-14.11;4.31 
1.442;-0.11;-0.10;0.71;1.46;-32.70;-6.96;331.04;-218.79;-369.00;0.73;-147.06;-13.33;4.21 
1.472;0.03;-0.06;0.65;-1.95;-16.21;-8.90;330.05;-222.61;-367.00;0.65;-146.89;-12.51;4.17 
1.502;0.14;0.06;0.48;-0.14;-28.38;-7.03;327.06;-225.48;-371.00;0.50;-146.79;-11.66;4.25 
1.532;0.20;-0.14;0.65;-5.91;-60.52;-6.12;327.06;-231.21;-372.00;0.69;-146.75;-10.02;4.18 
1.562;0.16;-0.21;1.05;-10.43;-48.77;8.49;326.07;-243.63;-375.00;1.08;-146.92;-7.87;3.82 
1.592;0.10;-0.05;1.02;-7.51;-6.40;11.27;326.07;-251.28;-379.00;1.03;-147.28;-6.94;3.60 
1.622;0.09;0.06;0.93;-5.63;-11.27;10.09;324.08;-252.23;-379.00;0.94;-147.72;-6.47;3.57 
1.651;0.09;0.09;0.85;0.70;-3.27;5.15;328.06;-257.96;-376.00;0.86;-148.00;-6.06;3.66 
1.681;0.03;0.00;0.70;3.97;-7.17;5.15;327.06;-260.83;-377.00;0.70;-148.16;-5.83;3.88 
1.712;0.01;-0.14;0.82;1.74;-22.75;8.28;329.05;-260.83;-372.00;0.83;-148.41;-5.26;4.03 
1.742;0.02;0.03;1.08;8.49;1.88;6.54;332.03;-266.56;-373.00;1.08;-148.69;-4.69;4.20 
1.771;-0.14;0.07;0.89;9.39;43.62;-1.39;338.00;-262.74;-374.00;0.90;-148.74;-5.34;4.66 
1.800;-0.30;0.00;0.62;4.24;37.63;-1.39;338.99;-257.01;-369.00;0.69;-148.65;-6.81;5.00 
1.830;-0.11;-0.03;0.76;6.12;35.48;0.97;340.98;-250.32;-365.00;0.77;-148.60;-8.04;5.17 
1.860;0.05;0.03;0.78;8.00;63.23;3.48;341.97;-244.59;-362.00;0.78;-148.61;-9.41;5.45 
1.890;-0.14;-0.06;1.26;6.19;58.37;6.47;343.96;-238.86;-357.00;1.27;-148.63;-11.09;5.78 
1.921;-5.94;-0.46;4.55;39.03;-98.30;30.12;349.93;-229.30;-353.00;7.50;-148.86;-13.29;6.35 
1.951;3.24;0.51;3.59;12.17;-310.75;21.70;355.89;-298.09;-361.00;4.86;-150.98;1.31;7.41 
1.981;1.77;0.14;0.60;19.83;513.32;-31.37;358.87;-305.74;-362.00;1.87;-151.26;-2.07;8.15 
2.010;0.48;-0.26;-0.68;-0.07;253.08;0.77;360.86;-227.39;-344.00;0.87;-150.22;-13.28;8.43 
2.040;0.70;-0.22;-0.46;19.69;154.85;4.66;364.84;-180.58;-326.00;0.87;-150.04;-18.23;8.64 
2.070;0.69;-0.28;0.01;19.27;134.68;15.51;365.83;-164.33;-311.00;0.74;-149.96;-21.64;9.21 
2.100;0.66;-0.43;0.18;21.70;219.06;32.42;375.77;-144.27;-297.00;0.81;-149.75;-25.74;9.88 
2.130;0.18;-0.04;-0.44;36.38;285.98;39.03;379.75;-120.38;-269.00;0.48;-149.22;-32.74;11.26 
2.160;-0.90;0.22;-0.67;20.10;204.45;46.89;394.66;-88.85;-217.00;1.14;-147.47;-40.80;13.08 
2.190;-1.14;0.32;0.00;18.16;21.22;38.47;400.63;-85.03;-205.00;1.18;-146.55;-44.43;14.78 
2.221;-0.88;0.35;1.06;13.15;2.92;26.23;408.58;-91.72;-205.00;1.42;-147.16;-43.82;16.19 
2.251;-1.10;0.38;0.18;20.59;224.70;-0.49;411.56;-88.85;-194.00;1.18;-145.62;-47.05;17.04 
2.280;-1.48;0.58;-0.98;14.75;204.03;-4.87;416.53;-65.92;-150.00;1.87;-141.31;-53.52;17.64 
2.310;-1.66;0.40;-1.26;12.10;38.40;-18.23;416.53;-55.41;-132.00;2.12;-137.14;-57.97;17.96 
2.340;-1.45;0.06;-0.23;11.48;-95.37;-3.27;412.56;-55.41;-132.00;1.47;-136.16;-57.88;18.08 
2.370;-1.27;-0.14;0.45;12.59;-51.20;10.09;412.56;-60.19;-147.00;1.35;-136.79;-56.17;18.31 
2.400;-1.25;0.31;0.54;6.61;48.49;14.54;415.54;-64.01;-153.00;1.40;-136.60;-55.95;18.84 
2.431;-1.35;0.53;-0.05;-4.59;82.23;-5.29;419.52;-58.28;-140.00;1.45;-134.86;-57.89;19.19 
2.461;-1.28;0.25;-0.07;5.70;47.30;-4.66;417.53;-50.64;-135.00;1.31;-132.72;-59.87;19.17 
2.491;-1.22;0.12;-0.08;18.78;65.74;5.15;418.52;-47.77;-127.00;1.23;-130.63;-61.44;19.35 
2.522;-1.34;0.40;-0.22;13.57;56.56;-4.38;421.50;-42.04;-109.00;1.42;-128.20;-63.09;19.74 
2.552;-1.40;0.32;-0.05;9.18;37.57;-8.49;420.51;-40.13;-106.00;1.44;-126.14;-64.34;19.83 
2.581;-1.35;0.23;0.02;5.63;40.35;-6.75;420.51;-37.26;-95.00;1.37;-124.63;-65.19;19.86 
2.611;-1.35;0.22;-0.04;4.66;38.96;3.48;420.51;-38.22;-93.00;1.37;-123.36;-65.83;20.08 
2.641;-1.26;0.26;-0.02;3.62;17.25;1.11;421.50;-38.22;-91.00;1.29;-122.13;-66.37;20.28 
2.671;-1.09;0.22;0.06;6.12;3.55;-0.77;423.49;-37.26;-84.00;1.11;-121.57;-66.48;20.50 
2.701;-1.01;0.28;0.14;4.45;1.39;-5.43;420.51;-34.40;-85.00;1.06;-121.03;-66.59;20.60 
2.732;-1.02;0.24;0.10;0.63;8.63;-10.99;415.54;-35.35;-80.00;1.05;-120.37;-66.88;20.47 
2.762;-1.02;0.19;0.00;3.34;8.49;-7.10;417.53;-32.48;-82.00;1.04;-119.46;-67.34;20.27 
2.792;-0.98;0.19;-0.02;1.32;-2.30;-2.85;417.53;-32.48;-80.00;1.00;-119.02;-67.45;20.32 
2.822;-0.94;0.19;0.08;-0.63;-9.95;-6.47;417.53;-32.48;-77.00;0.96;-118.67;-67.57;20.27 
2.852;-0.98;0.22;0.17;1.11;-9.81;-8.35;417.53;-28.66;-81.00;1.02;-118.43;-67.66;20.12 
2.882;-0.99;0.18;0.11;0.35;2.71;-8.77;417.53;-31.53;-83.00;1.01;-118.01;-67.87;19.92 
2.912;-1.02;0.13;0.07;0.70;2.43;-7.37;411.56;-26.75;-81.00;1.03;-117.37;-68.22;19.68 
2.942;-1.02;0.10;0.03;-0.56;0.83;-5.77;412.56;-28.66;-81.00;1.03;-116.77;-68.56;19.47 
2.971;-1.02;0.10;0.05;-0.63;-5.08;-3.97;411.56;-24.84;-81.00;1.03;-116.31;-68.81;19.29 
3.001;-1.02;0.10;0.08;-1.18;-8.28;-0.42;410.57;-23.89;-80.00;1.03;-116.08;-68.90;19.21 
3.032;-0.95;0.11;0.18;-1.39;-9.11;1.25;407.59;-23.89;-85.00;0.97;-116.05;-68.83;19.23 
3.062;-0.95;0.16;0.20;-1.81;4.10;0.77;411.56;-24.84;-86.00;0.98;-116.04;-68.75;19.29 
3.092;-1.01;0.15;0.08;0.14;8.70;2.85;409.57;-27.71;-83.00;1.02;-115.73;-68.87;19.33 
3.122;-1.06;0.14;0.07;0.35;-2.30;3.06;411.56;-26.75;-85.00;1.07;-115.47;-68.92;19.42 
3.152;-0.99;0.18;0.14;-1.11;-1.11;2.78;412.56;-27.71;-87.00;1.02;-115.36;-68.89;19.52 
3.182;-0.99;0.18;0.13;-0.70;4.73;2.71;414.54;-27.71;-85.00;1.01;-115.25;-68.87;19.61 
3.212;-0.97;0.18;0.10;0.00;6.12;2.30;410.57;-23.89;-84.00;0.99;-115.04;-68.88;19.73 
3.243;-0.98;0.18;0.06;0.21;4.17;2.16;412.56;-25.80;-83.00;1.00;-114.79;-68.94;19.80 
3.273;-1.01;0.17;0.08;0.14;3.90;1.53;413.55;-26.75;-81.00;1.03;-114.57;-68.98;19.88 
3.303;-1.02;0.18;0.09;-0.21;-0.07;1.46;409.57;-26.75;-80.00;1.04;-114.38;-69.01;19.93 
3.333;-0.99;0.18;0.15;-0.21;3.20;0.28;415.54;-27.71;-82.00;1.02;-114.24;-69.03;19.97 
3.362;-0.98;0.17;0.08;0.77;7.17;0.63;415.54;-28.66;-82.00;1.00;-113.97;-69.12;19.98 
3.391;-1.01;0.19;0.00;-0.14;4.45;0.14;410.57;-24.84;-80.00;1.03;-113.72;-69.19;20.01 
3.421;-1.00;0.18;0.06;0.14;0.70;-0.35;414.54;-24.84;-80.00;1.02;-113.48;-69.28;20.00 
3.451;-0.99;0.18;0.11;-0.21;0.70;-0.77;413.55;-27.71;-81.00;1.01;-113.31;-69.34;19.98 
3.481;-1.00;0.18;0.09;0.49;3.48;-0.21;417.53;-26.75;-81.00;1.02;-113.12;-69.40;19.96 
3.511;-1.02;0.15;0.06;0.07;3.69;-0.97;414.54;-27.71;-78.00;1.03;-112.88;-69.51;19.92 
3.542;-1.02;0.15;0.05;0.14;2.50;0.49;416.53;-27.71;-77.00;1.03;-112.64;-69.62;19.86 
3.572;-1.02;0.18;0.05;0.35;2.99;1.04;413.55;-26.75;-77.00;1.04;-112.44;-69.69;19.84 
3.602;-1.02;0.18;0.06;-0.28;1.39;1.32;413.55;-26.75;-79.00;1.04;-112.27;-69.74;19.84 
3.632;-1.00;0.16;0.07;-0.07;-0.56;1.25;413.55;-29.62;-76.00;1.02;-112.15;-69.77;19.84 
3.661;-0.98;0.18;0.08;-0.14;2.64;0.49;414.54;-23.89;-77.00;1.00;-112.03;-69.80;19.84 
3.690;-1.02;0.17;0.02;-0.21;1.67;-0.28;416.53;-27.71;-76.00;1.03;-111.87;-69.86;19.82 
3.720;-1.00;0.18;0.05;-0.14;-1.25;-0.35;415.54;-29.62;-75.00;1.02;-111.74;-69.92;19.79 
3.750;-0.98;0.18;0.12;0.07;0.63;-0.42;416.53;-26.75;-77.00;1.00;-111.59;-69.99;19.73 
3.780;-1.02;0.18;0.06;-0.21;2.71;-0.70;416.53;-30.57;-77.00;1.04;-111.44;-70.07;19.68 
3.810;-1.01;0.16;0.06;-0.70;-0.35;-0.42;414.54;-25.80;-79.00;1.02;-111.27;-70.15;19.62 
3.841;-1.01;0.14;0.07;0.00;0.83;0.00;415.54;-27.71;-76.00;1.02;-111.15;-70.22;19.56 
3.871;-1.00;0.17;0.10;-0.14;0.28;-0.07;414.54;-25.80;-78.00;1.02;-110.99;-70.30;19.50 
3.901;-0.98;0.18;0.12;0.28;0.28;-0.35;413.55;-24.84;-73.00;1.00;-110.88;-70.35;19.47 
3.930;-0.99;0.16;0.07;0.49;4.03;-0.21;412.56;-28.66;-78.00;1.01;-110.75;-70.42;19.42 
3.959;-1.02;0.19;0.02;0.35;1.81;-0.35;413.55;-28.66;-78.00;1.04;-110.57;-70.50;19.36 
3.989;-0.99;0.18;0.08;0.35;0.56;-0.14;416.53;-26.75;-77.00;1.01;-110.44;-70.57;19.31 
4.019;-1.00;0.15;0.11;0.28;1.25;0.07;415.54;-26.75;-76.00;1.02;-110.31;-70.65;19.25 
4.049;-0.99;0.17;0.09;0.35;1.18;0.21;413.55;-25.80;-77.00;1.01;-110.19;-70.72;19.19 
4.079;-0.99;0.14;0.06;0.21;3.20;0.21;416.53;-27.71;-77.00;1.00;-110.08;-70.77;19.14 
4.109;-1.02;0.17;0.05;-0.07;1.74;0.21;413.55;-27.71;-75.00;1.04;-109.95;-70.83;19.10 
4.140;-1.02;0.18;0.09;0.14;0.21;-0.56;412.56;-25.80;-75.00;1.04;-109.83;-70.91;19.03 
4.170;-1.00;0.18;0.08;0.56;2.78;0.14;416.53;-25.80;-69.00;1.02;-109.71;-70.98;18.97 
4.200;-1.00;0.15;0.06;0.28;1.74;0.35;414.54;-28.66;-74.00;1.01;-109.59;-71.04;18.92 
4.229;-1.01;0.16;0.05;-0.42;0.49;0.77;415.54;-25.80;-73.00;1.02;-109.50;-71.08;18.89 
4.259;-1.02;0.20;0.07;-0.21;0.90;0.00;414.54;-27.71;-73.00;1.04;-109.41;-71.13;18.84 
4.289;-0.98;0.18;0.05;0.28;1.95;-0.07;418.52;-24.84;-74.00;1.00;-109.30;-71.19;18.78 
4.319;-1.01;0.17;0.06;0.49;0.49;0.42;414.54;-26.75;-74.00;1.03;-109.19;-71.26;18.72 
4.350;-0.99;0.17;0.04;0.14;0.90;-0.28;414.54;-25.80;-73.00;1.01;-109.10;-71.31;18.68 
4.380;-1.01;0.18;0.06;0.35;2.23;0.00;415.54;-28.66;-76.00;1.03;-108.99;-71.38;18.61 
4.410;-1.03;0.15;0.06;0.42;1.32;0.35;413.55;-27.71;-74.00;1.04;-108.88;-71.45;18.55 
4.441;-1.01;0.18;0.06;-0.21;-1.04;-0.07;413.55;-26.75;-72.00;1.03;-108.82;-71.49;18.51 
4.470;-0.98;0.18;0.06;-0.21;0.07;0.14;416.53;-23.89;-72.00;1.00;-108.78;-71.53;18.47 
4.500;-0.99;0.18;0.06;0.28;2.57;-0.07;414.54;-24.84;-72.00;1.01;-108.72;-71.57;18.43 
4.530;-1.02;0.19;0.05;0.14;1.39;-0.28;413.55;-26.75;-72.00;1.04;-108.61;-71.64;18.36 
4.560;-1.01;0.17;0.03;-0.49;-0.49;0.00;416.53;-26.75;-70.00;1.02;-108.52;-71.70;18.30 
4.590;-0.98;0.17;0.06;0.07;1.11;-0.70;414.54;-23.89;-71.00;1.00;-108.44;-71.77;18.23 
4.620;-0.99;0.18;0.06;0.21;1.39;-0.21;414.54;-26.75;-69.00;1.01;-108.36;-71.83;18.17 
4.651;-0.99;0.15;0.05;0.07;0.83;0.14;416.53;-23.89;-74.00;1.00;-108.26;-71.90;18.10 
4.681;-1.00;0.18;0.06;0.00;0.77;0.14;413.55;-25.80;-74.00;1.02;-108.19;-71.95;18.05 
4.711;-1.00;0.17;0.09;0.00;0.07;0.00;415.54;-25.80;-75.00;1.02;-108.12;-72.01;17.99 
4.741;-0.98;0.16;0.06;0.35;1.46;-0.07;416.53;-24.84;-71.00;0.99;-108.05;-72.06;17.93 
4.771;-0.98;0.14;0.04;0.14;1.53;-0.14;413.55;-26.75;-71.00;0.99;-107.96;-72.13;17.87 
4.801;-1.01;0.18;0.06;0.00;0.42;-0.14;415.54;-26.75;-71.00;1.03;-107.87;-72.20;17.80 
4.831;-0.99;0.18;0.07;0.07;0.14;0.21;414.54;-25.80;-73.00;1.01;-107.80;-72.27;17.72 
4.860;-1.00;0.17;0.10;0.07;1.88;0.63;413.55;-26.75;-72.00;1.02;-107.75;-72.31;17.68 
4.889;-1.00;0.15;0.06;0.00;1.04;0.35;416.53;-24.84;-74.00;1.01;-107.69;-72.36;17.63 
4.919;-0.98;0.18;0.06;0.00;0.70;-0.35;415.54;-27.71;-71.00;1.00;-107.61;-72.43;17.56 
4.950;-0.98;0.18;0.03;-0.07;1.53;-0.21;415.54;-23.89;-72.00;1.00;-107.53;-72.50;17.49 
4.980;-1.00;0.18;0.08;0.00;2.16;-0.70;419.52;-28.66;-72.00;1.02;-107.43;-72.58;17.40 
5.010;-1.01;0.18;0.08;0.14;1.53;-0.21;416.53;-26.75;-73.00;1.03;-107.36;-72.64;17.34 
5.040;-1.02;0.17;0.06;0.00;0.14;-0.21;413.55;-25.80;-72.00;1.04;-107.27;-72.72;17.26 
5.070;-1.02;0.17;0.07;0.07;1.53;-0.35;413.55;-23.89;-73.00;1.04;-107.22;-72.77;17.21 
5.100;-1.02;0.18;0.05;0.00;2.78;-0.35;418.52;-26.75;-71.00;1.04;-107.13;-72.85;17.13 
5.129;-1.02;0.18;0.03;0.14;1.74;-0.35;414.54;-23.89;-71.00;1.04;-107.04;-72.92;17.05 
5.158;-1.02;0.19;0.03;-0.14;-0.63;0.07;415.54;-26.75;-68.00;1.04;-106.98;-72.98;16.99 
5.188;-1.01;0.16;0.06;-0.07;0.83;-0.07;415.54;-24.84;-74.00;1.02;-106.91;-73.05;16.92 
5.218;-1.02;0.14;0.02;0.07;1.11;0.14;415.54;-25.80;-71.00;1.03;-106.83;-73.12;16.85 
5.249;-1.01;0.18;0.04;-0.07;0.83;0.00;416.53;-25.80;-70.00;1.03;-106.77;-73.18;16.78 
5.279;-1.00;0.16;0.06;-0.35;0.14;0.07;416.53;-23.89;-69.00;1.01;-106.71;-73.25;16.72 
5.309;-1.00;0.17;0.03;0.07;0.90;0.14;415.54;-26.75;-67.00;1.01;-106.64;-73.32;16.65 
5.339;-1.02;0.22;0.02;0.00;0.21;-0.35;415.54;-22.93;-69.00;1.04;-106.56;-73.39;16.57 
5.368;-0.98;0.18;0.06;-0.07;0.28;0.00;416.53;-27.71;-69.00;1.00;-106.50;-73.46;16.50 
5.398;-1.02;0.17;0.05;0.00;0.97;-0.07;412.56;-26.75;-69.00;1.04;-106.43;-73.52;16.44 
5.428;-1.01;0.16;0.06;0.14;0.70;0.35;417.53;-28.66;-65.00;1.02;-106.38;-73.57;16.39 
5.458;-1.00;0.16;0.06;-0.21;0.83;0.00;416.53;-27.71;-70.00;1.01;-106.34;-73.61;16.34 
5.488;-0.99;0.19;0.06;-0.07;0.49;-0.28;418.52;-22.93;-70.00;1.01;-106.27;-73.68;16.28 
5.518;-1.00;0.18;0.05;-0.21;0.42;-0.21;416.53;-25.80;-72.00;1.02;-106.21;-73.75;16.21 
5.549;-1.00;0.16;0.02;0.00;1.46;-0.56;411.56;-24.84;-70.00;1.01;-106.15;-73.81;16.15 
5.578;-0.98;0.14;0.04;-0.14;0.35;-0.49;413.55;-27.71;-69.00;0.99;-106.08;-73.89;16.07 
5.608;-0.99;0.18;0.06;0.00;0.42;0.14;414.54;-23.89;-71.00;1.01;-106.02;-73.95;16.00 
5.638;-1.00;0.14;0.06;-0.07;1.88;-0.14;416.53;-23.89;-67.00;1.01;-105.94;-74.04;15.92 
5.668;-1.02;0.16;0.03;0.14;1.81;0.00;414.54;-25.80;-69.00;1.03;-105.88;-74.10;15.86 
5.698;-1.02;0.17;0.06;-0.28;-0.42;0.14;414.54;-25.80;-68.00;1.04;-105.83;-74.14;15.81 
5.728;-1.02;0.18;0.04;0.00;0.70;0.21;417.53;-23.89;-69.00;1.04;-105.78;-74.20;15.75 
5.759;-0.98;0.17;0.06;0.14;2.23;0.00;414.54;-24.84;-69.00;1.00;-105.72;-74.26;15.69 
5.789;-1.02;0.17;0.02;0.21;2.09;0.00;417.53;-25.80;-69.00;1.03;-105.67;-74.31;15.64 
5.819;-1.02;0.18;0.00;-0.07;0.28;-0.28;412.56;-24.84;-65.00;1.04;-105.60;-74.37;15.57 
5.850;-1.01;0.14;0.05;-0.07;-0.28;-0.28;416.53;-25.80;-66.00;1.02;-105.56;-74.42;15.52 
5.880;-1.00;0.16;0.04;0.00;0.90;-0.28;416.53;-25.80;-69.00;1.01;-105.50;-74.48;15.46 
5.910;-1.02;0.17;0.03;-0.14;1.04;-0.28;415.54;-21.97;-65.00;1.03;-105.44;-74.55;15.40 
5.940;-1.02;0.18;0.05;-0.21;0.42;-0.35;412.56;-24.84;-68.00;1.04;-105.36;-74.63;15.32 
5.969;-1.00;0.17;0.08;0.00;1.25;0.00;418.52;-25.80;-66.00;1.02;-105.28;-74.71;15.23 
5.999;-1.03;0.22;0.03;0.14;1.39;-0.07;413.55;-25.80;-70.00;1.05;-105.24;-74.75;15.19 
6.029;-0.99;0.17;0.00;0.07;0.77;-0.56;415.54;-26.75;-66.00;1.00;-105.19;-74.80;15.14 
6.060;-1.02;0.17;0.03;0.14;0.70;-0.28;417.53;-23.89;-68.00;1.03;-105.11;-74.88;15.06 
6.090;-1.02;0.18;0.10;0.00;0.21;-0.63;413.55;-25.80;-66.00;1.04;-105.10;-74.89;15.05 
6.120;-0.99;0.18;0.03;-0.07;1.04;-0.28;415.54;-24.84;-65.00;1.01;-105.05;-74.95;14.99 
6.150;-1.01;0.18;0.02;0.00;-0.07;-0.35;413.55;-26.75;-69.00;1.03;-104.99;-75.02;14.92 
6.180;-1.02;0.16;0.07;-0.14;-0.07;-0.14;413.55;-22.93;-63.00;1.03;-104.95;-75.06;14.88 
6.210;-0.99;0.16;0.06;0.00;0.70;-0.14;415.54;-24.84;-64.00;1.00;-104.91;-75.11;14.84 
6.240;-1.00;0.15;0.06;0.14;-0.28;0.07;416.53;-24.84;-70.00;1.01;-104.85;-75.18;14.77 
6.270;-1.02;0.18;0.02;-0.07;-0.14;-0.35;415.54;-25.80;-65.00;1.04;-104.79;-75.24;14.70 
6.299;-1.00;0.16;0.06;-0.07;-0.28;0.07;411.56;-26.75;-70.00;1.01;-104.74;-75.31;14.64 
6.328;-1.02;0.18;0.03;-0.28;-0.63;0.21;412.56;-22.93;-67.00;1.04;-104.67;-75.38;14.57 
6.359;-0.98;0.15;0.02;-0.14;-0.28;-0.14;412.56;-25.80;-66.00;0.99;-104.63;-75.44;14.52 
6.389;-0.98;0.17;0.04;0.00;0.21;-0.49;415.54;-25.80;-70.00;1.00;-104.59;-75.49;14.47 
6.419;-1.01;0.18;0.06;0.07;-0.28;-0.14;415.54;-26.75;-68.00;1.03;-104.52;-75.57;14.40 
6.449;-1.02;0.18;0.03;-0.14;-1.95;0.21;415.54;-21.97;-68.00;1.04;-104.48;-75.62;14.35 
6.479;-0.99;0.18;0.09;-0.21;0.63;0.21;416.53;-24.84;-65.00;1.01;-104.42;-75.68;14.29 
6.509;-1.00;0.17;0.06;0.07;1.39;-0.07;413.55;-21.02;-67.00;1.02;-104.39;-75.72;14.25 
6.539;-1.02;0.18;0.01;0.07;0.07;-0.07;415.54;-24.84;-69.00;1.04;-104.34;-75.77;14.20 
6.569;-1.00;0.15;0.06;-0.21;-1.95;-0.21;415.54;-24.84;-69.00;1.01;-104.32;-75.80;14.17 
6.599;-1.01;0.14;0.06;-0.14;0.07;0.00;413.55;-26.75;-69.00;1.02;-104.27;-75.86;14.12 
6.629;-1.02;0.14;0.04;-0.07;0.21;-0.21;415.54;-23.89;-67.00;1.03;-104.22;-75.92;14.07 
6.660;-1.01;0.16;0.04;0.07;-0.56;0.00;416.53;-23.89;-70.00;1.02;-104.16;-75.98;14.01 
6.690;-1.01;0.16;0.06;0.00;-0.90;-0.14;413.55;-22.93;-67.00;1.02;-104.12;-76.04;13.95 
6.720;-1.02;0.16;0.02;-0.14;-0.63;0.14;414.54;-24.84;-66.00;1.03;-104.06;-76.10;13.89 
6.749;-1.00;0.14;0.06;0.14;0.07;0.35;413.55;-24.84;-72.00;1.01;-104.02;-76.14;13.85 
6.778;-1.02;0.18;0.04;-0.28;0.21;-0.35;411.56;-27.71;-69.00;1.04;-103.99;-76.18;13.81 
6.808;-1.01;0.17;0.04;-0.14;-0.63;0.00;417.53;-27.71;-69.00;1.02;-103.94;-76.23;13.76 
6.838;-0.99;0.18;0.09;-0.21;-0.28;0.28;412.56;-23.89;-70.00;1.01;-103.91;-76.26;13.74 
6.869;-1.00;0.18;0.04;-0.28;0.21;-0.35;412.56;-24.84;-68.00;1.02;-103.86;-76.31;13.68 
6.899;-1.01;0.17;0.06;-0.21;0.00;-0.35;414.54;-26.75;-68.00;1.03;-103.79;-76.39;13.61 
6.929;-1.00;0.16;0.06;-0.21;-0.35;-0.14;414.54;-24.84;-73.00;1.01;-103.74;-76.44;13.55 
6.960;-1.01;0.17;0.06;-0.14;-0.42;-0.07;413.55;-27.71;-66.00;1.03;-103.69;-76.49;13.51 
6.990;-1.02;0.17;0.03;0.00;-0.56;0.07;416.53;-25.80;-69.00;1.03;-103.65;-76.54;13.46 
7.019;-0.99;0.16;0.09;-0.07;-0.77;-0.28;415.54;-25.80;-70.00;1.01;-103.60;-76.59;13.41 
7.048;-1.00;0.18;0.06;0.07;0.35;-0.28;412.56;-24.84;-69.00;1.02;-103.56;-76.63;13.37 
7.078;-0.99;0.16;0.05;-0.14;0.56;-0.21;416.53;-24.84;-70.00;1.00;-103.52;-76.67;13.32 
7.108;-1.01;0.15;0.03;-0.28;-0.14;0.28;417.53;-24.84;-70.00;1.02;-103.48;-76.71;13.29 
7.138;-1.02;0.18;0.04;-0.14;-0.14;-0.14;417.53;-24.84;-69.00;1.04;-103.45;-76.75;13.25 
7.169;-0.99;0.17;0.06;0.21;-0.14;0.00;416.53;-23.89;-71.00;1.01;-103.40;-76.79;13.21 
7.199;-0.99;0.18;0.05;-0.35;-0.83;-0.28;413.55;-27.71;-69.00;1.01;-103.38;-76.82;13.18 
7.229;-1.01;0.16;0.04;-0.21;1.53;0.00;414.54;-24.84;-71.00;1.02;-103.33;-76.86;13.13 
7.259;-1.00;0.18;0.02;0.07;1.11;0.28;415.54;-23.89;-70.00;1.02;-103.28;-76.91;13.08 
7.289;-1.01;0.18;0.04;-0.07;1.11;-0.21;414.54;-23.89;-70.00;1.03;-103.25;-76.94;13.05 
7.319;-1.02;0.14;0.06;-0.14;-0.42;-0.35;414.54;-25.80;-71.00;1.03;-103.19;-77.00;13.00 
7.349;-0.98;0.18;0.09;0.21;0.14;-0.07;412.56;-26.75;-70.00;1.00;-103.15;-77.04;12.95 
7.378;-0.99;0.18;0.05;-0.14;2.09;-0.28;414.54;-21.97;-71.00;1.01;-103.10;-77.09;12.90 
7.407;-1.02;0.17;0.04;0.00;-0.21;-0.07;413.55;-25.80;-73.00;1.03;-103.03;-77.15;12.84 
7.437;-1.02;0.17;0.06;-0.07;-0.28;0.14;412.56;-23.89;-71.00;1.04;-103.02;-77.17;12.82 
7.468;-1.01;0.17;0.06;-0.14;1.18;-0.14;415.54;-23.89;-68.00;1.03;-102.99;-77.20;12.79 
7.498;-1.02;0.18;0.07;0.28;1.11;0.00;413.55;-23.89;-73.00;1.04;-102.94;-77.25;12.74 
7.528;-1.02;0.19;0.02;-0.07;0.35;0.07;416.53;-27.71;-70.00;1.04;-102.90;-77.28;12.71 
7.558;-1.02;0.18;0.03;-0.14;-0.28;0.07;412.56;-26.75;-68.00;1.04;-102.86;-77.32;12.67 
7.588;-1.00;0.14;0.08;0.07;0.63;0.07;416.53;-21.97;-73.00;1.01;-102.82;-77.35;12.63 
7.618;-1.01;0.17;0.05;-0.14;1.04;-0.07;414.54;-23.89;-72.00;1.03;-102.79;-77.39;12.59 
7.648;-1.00;0.15;0.02;-0.07;0.56;0.21;416.53;-24.84;-69.00;1.01;-102.75;-77.43;12.55 
7.678;-0.99;0.15;0.02;-0.14;0.35;-0.14;415.54;-24.84;-69.00;1.00;-102.70;-77.47;12.51 
7.708;-1.00;0.17;0.06;0.07;0.70;0.14;413.55;-24.84;-68.00;1.02;-102.68;-77.49;12.48 
7.738;-1.00;0.19;0.06;-0.07;0.77;0.00;416.53;-25.80;-70.00;1.02;-102.67;-77.50;12.48 
7.769;-1.00;0.18;0.06;0.00;1.46;0.14;413.55;-23.89;-69.00;1.02;-102.63;-77.53;12.44 
7.799;-1.00;0.17;0.05;0.21;0.70;-0.14;413.55;-22.93;-67.00;1.02;-102.59;-77.58;12.39 
7.828;-1.01;0.16;0.10;0.14;0.21;0.21;414.54;-30.57;-71.00;1.03;-102.54;-77.63;12.34 
7.857;-0.98;0.16;0.03;-0.14;1.32;0.07;417.53;-21.02;-70.00;0.99;-102.50;-77.66;12.31 
7.886;-1.00;0.20;0.02;0.00;1.60;0.14;417.53;-22.93;-70.00;1.02;-102.47;-77.69;12.28 
7.916;-1.02;0.17;0.05;-0.07;-0.63;0.07;417.53;-22.93;-71.00;1.04;-102.44;-77.71;12.25 
7.946;-0.98;0.18;0.07;0.00;0.83;0.14;415.54;-26.75;-69.00;1.00;-102.42;-77.74;12.23 
7.977;-1.01;0.18;0.04;-0.28;1.67;-0.07;414.54;-26.75;-67.00;1.03;-102.39;-77.77;12.20 
8.007;-0.98;0.19;0.06;0.21;1.39;-0.07;415.54;-25.80;-69.00;1.00;-102.38;-77.77;12.20 
8.037;-1.00;0.17;0.04;-0.07;-0.63;-0.14;413.55;-25.80;-68.00;1.02;-102.35;-77.80;12.16 
8.068;-1.01;0.16;0.06;-0.42;-0.42;-0.07;411.56;-24.84;-69.00;1.02;-102.31;-77.83;12.13 
8.098;-0.98;0.14;0.06;0.00;0.28;0.35;414.54;-24.84;-67.00;0.99;-102.29;-77.86;12.10 
8.127;-1.01;0.16;0.05;-0.14;1.18;0.14;417.53;-23.89;-67.00;1.02;-102.31;-77.83;12.12 
8.156;-1.02;0.16;0.02;0.00;1.32;-0.07;410.57;-23.89;-67.00;1.03;-102.29;-77.85;12.10 
8.185;-1.01;0.17;0.07;-0.21;-0.21;-0.07;413.55;-25.80;-67.00;1.03;-102.27;-77.87;12.08 
8.214;-1.01;0.17;0.06;-0.07;0.63;0.14;412.56;-26.75;-69.00;1.03;-102.24;-77.89;12.05 
8.244;-1.02;0.17;0.04;-0.07;1.60;0.07;415.54;-24.84;-68.00;1.03;-102.21;-77.92;12.02 
8.274;-0.99;0.17;0.05;0.07;0.90;0.14;414.54;-22.93;-67.00;1.01;-102.19;-77.94;12.00 
8.304;-1.02;0.19;0.06;0.14;0.77;-0.07;416.53;-24.84;-66.00;1.04;-102.16;-77.96;11.98 
8.334;-1.00;0.16;0.04;-0.14;0.77;-0.21;413.55;-23.89;-65.00;1.01;-102.12;-78.00;11.94 
8.365;-1.02;0.18;0.06;-0.07;1.46;-0.28;413.55;-22.93;-70.00;1.04;-102.09;-78.03;11.91 
8.395;-1.02;0.17;0.02;-0.14;1.04;0.14;413.55;-21.97;-69.00;1.03;-102.07;-78.05;11.89 
8.425;-1.01;0.16;0.10;0.00;0.35;-0.21;414.54;-25.80;-69.00;1.03;-102.03;-78.08;11.85 
8.455;-1.01;0.18;0.03;0.07;0.83;0.14;414.54;-26.75;-68.00;1.03;-102.01;-78.10;11.83 
8.484;-0.97;0.17;0.06;-0.07;1.67;-0.28;414.54;-23.89;-68.00;0.99;-101.99;-78.12;11.81 
8.513;-1.01;0.18;0.06;0.07;1.46;-0.28;414.54;-26.75;-68.00;1.03;-101.95;-78.16;11.77 
8.542;-1.02;0.18;0.04;0.21;0.83;-0.42;417.53;-25.80;-63.00;1.04;-101.91;-78.20;11.73 
8.571;-1.01;0.18;0.03;0.07;1.39;0.00;414.54;-22.93;-65.00;1.03;-101.88;-78.23;11.70 
8.601;-1.01;0.18;0.05;0.21;1.18;0.14;413.55;-25.80;-69.00;1.03;-101.85;-78.26;11.67 
8.631;-1.00;0.18;0.05;0.00;1.32;0.07;414.54;-25.80;-68.00;1.02;-101.80;-78.30;11.63 
8.662;-1.01;0.18;0.04;-0.21;1.04;0.56;416.53;-22.93;-66.00;1.03;-101.79;-78.31;11.61 
8.692;-0.98;0.15;0.06;0.07;1.88;0.00;415.54;-22.93;-68.00;0.99;-101.76;-78.34;11.58 
8.722;-1.02;0.17;0.02;0.42;1.18;0.14;412.56;-26.75;-67.00;1.03;-101.74;-78.36;11.56 
8.752;-1.02;0.19;0.05;-0.28;1.39;-0.07;414.54;-25.80;-69.00;1.04;-101.72;-78.39;11.54 
8.781;-1.00;0.15;0.02;0.00;0.21;-0.14;414.54;-23.89;-65.00;1.01;-101.67;-78.43;11.50 
8.811;-0.98;0.19;0.09;0.07;0.70;-0.14;415.54;-25.80;-66.00;1.00;-101.66;-78.44;11.48 
8.841;-1.02;0.18;0.06;0.14;1.32;-0.07;412.56;-23.89;-67.00;1.04;-101.64;-78.45;11.46 
8.871;-1.02;0.16;0.02;-0.07;1.11;-0.21;414.54;-23.89;-66.00;1.03;-101.61;-78.48;11.43 
8.901;-0.99;0.16;0.04;-0.07;0.70;-0.42;417.53;-22.93;-64.00;1.00;-101.58;-78.51;11.40 
8.931;-1.02;0.17;0.02;0.21;0.90;-0.28;416.53;-21.97;-66.00;1.03;-101.53;-78.55;11.36 
8.962;-1.02;0.17;0.03;-0.42;0.21;-0.42;414.54;-24.84;-66.00;1.03;-101.49;-78.59;11.32 
8.992;-1.02;0.18;0.03;0.00;0.07;-0.07;413.55;-23.89;-64.00;1.04;-101.45;-78.63;11.27 
9.022;-1.02;0.18;0.02;0.00;0.49;0.14;414.54;-23.89;-63.00;1.04;-101.43;-78.64;11.26 
9.052;-1.01;0.18;0.03;0.00;0.63;-0.21;414.54;-24.84;-64.00;1.03;-101.40;-78.66;11.23 
9.081;-1.02;0.20;0.05;-0.14;0.14;0.07;414.54;-21.97;-64.00;1.04;-101.38;-78.68;11.21 
9.110;-1.00;0.18;0.03;-0.28;0.42;-0.28;414.54;-21.97;-64.00;1.02;-101.35;-78.70;11.18 
9.140;-1.02;0.17;0.02;-0.14;-0.07;-0.14;413.55;-24.84;-67.00;1.03;-101.33;-78.72;11.16 
9.170;-1.00;0.15;0.03;-0.21;0.35;-0.07;415.54;-26.75;-64.00;1.01;-101.32;-78.72;11.15 
9.200;-0.99;0.16;0.05;-0.21;0.21;0.28;416.53;-23.89;-67.00;1.00;-101.28;-78.75;11.11 
9.230;-0.99;0.17;0.02;-0.28;-0.21;0.07;412.56;-25.80;-66.00;1.00;-101.26;-78.76;11.09 
9.261;-1.02;0.18;0.06;0.00;0.49;0.07;412.56;-26.75;-64.00;1.04;-101.26;-78.76;11.09 
9.291;-1.01;0.17;0.06;-0.35;-0.77;-0.21;411.56;-22.93;-65.00;1.03;-101.23;-78.78;11.06 
9.321;-1.00;0.18;0.07;-0.14;0.14;0.00;412.56;-23.89;-63.00;1.02;-101.22;-78.78;11.05 
9.350;-1.02;0.18;0.00;-0.07;0.21;0.00;414.54;-23.89;-66.00;1.04;-101.20;-78.79;11.03 
9.380;-1.02;0.17;0.02;-0.56;-0.90;-0.07;413.55;-21.97;-65.00;1.03;-101.19;-78.80;11.02 
9.410;-1.02;0.18;0.06;-0.21;-1.32;-0.63;416.53;-24.84;-65.00;1.04;-101.18;-78.80;11.01 
9.440;-1.02;0.19;0.02;-0.21;-0.70;-2.09;414.54;-21.02;-66.00;1.04;-101.16;-78.80;10.99 
9.471;-1.05;0.19;0.02;-0.21;-2.23;-2.78;414.54;-21.97;-65.00;1.07;-101.08;-78.86;10.92 
9.500;-1.06;0.21;-0.02;-0.83;-4.66;-4.45;413.55;-25.80;-66.00;1.08;-100.98;-78.93;10.81 
9.530;-1.03;0.18;-0.03;-1.46;-13.08;-4.80;415.54;-22.93;-72.00;1.05;-100.84;-79.01;10.68 
9.561;-1.03;0.17;0.00;-2.23;-12.24;-5.36;410.57;-25.80;-67.00;1.04;-100.67;-79.08;10.51 
9.591;-1.08;0.14;-0.08;-2.43;-16.77;-4.45;407.59;-22.93;-73.00;1.09;-100.48;-79.14;10.32 
9.621;-1.10;0.11;-0.06;-2.30;-27.97;-2.57;411.56;-22.93;-77.00;1.11;-100.33;-79.10;10.17 
9.651;-1.07;0.12;-0.02;-3.76;-36.94;-0.97;410.57;-22.93;-81.00;1.08;-100.22;-78.83;10.07 
9.681;-1.05;0.11;0.06;-5.63;-41.25;1.88;407.59;-25.80;-87.00;1.06;-100.20;-78.28;10.05 
9.711;-1.04;0.12;0.06;-7.86;-41.95;3.34;410.57;-26.75;-95.00;1.05;-100.22;-77.58;10.06 
